corrGoResp,shape,practiceBlocks.thisRepN,practiceBlocks.thisTrialN,practiceBlocks.thisN,practiceBlocks.thisIndex,practiceTrials.thisRepN,practiceTrials.thisTrialN,practiceTrials.thisN,practiceTrials.thisIndex,stopBlocks.thisRepN,stopBlocks.thisTrialN,stopBlocks.thisN,stopBlocks.thisIndex,testTrials.thisRepN,testTrials.thisTrialN,testTrials.thisN,testTrials.thisIndex,stopPracTrialList,Test Block: 1,welcome.started,start_exp.started,start_exp.keys,start_exp.rt,instrStopText.started,start_prac.started,StartTrialTimeStamp,trialType,goStim,correctResponse,ssd,fixation.started,rules.started,goStim.started,goResp.started,fixation.stopped,stopSignal.started,stopSignal.stopped,goStim.stopped,goResp.stopped,rules.stopped,goResp.keys,goResp.corr,text.started,rules_2.started,fixationOnset,goStimOnset,stopSignalOnset,EndTrialTimeStamp,Phase,Block,goResp.rt,text.stopped,rules_2.stopped,text_5.started,key_resp_3.started,key_resp_3.keys,key_resp_3.rt,key_resp.started,testText.started,test_fixation.started,goStim_test.started,goResp_test.started,test_fixation.stopped,stopSignal_test.started,stopSignal_test.stopped,goStim_test.stopped,goResp_test.stopped,goResp_test.keys,goResp_test.corr,goResp_test.rt,EndingSSD,text_6.started,key_resp_4.started,key_resp_4.keys,key_resp_4.rt,Test Block: 2,Test Block: 3,ending_text.started,end_resp.started,end_resp.keys,end_resp.rt,participant,session,date,expName,psychopyVersion,frameRate,
,,,,,,,,,,,,,,,,,,"[{'fileName': 'squareblack.png', 'correct_response': 'right', 'condition': 'go'}, {'fileName': 'circleblack.png', 'correct_response': 'left', 'condition': 'stop'}, {'fileName': 'circleblack.png', 'correct_response': 'left', 'condition': 'go'}, {'fileName': 'squareblack.png', 'correct_response': 'right', 'condition': 'go'}, {'fileName': 'squareblack.png', 'correct_response': 'right', 'condition': 'go'}, {'fileName': 'circleblack.png', 'correct_response': 'left', 'condition': 'go'}, {'fileName': 'circleblack.png', 'correct_response': 'left', 'condition': 'stop'}, {'fileName': 'circleblack.png', 'correct_response': 'left', 'condition': 'go'}, {'fileName': 'squareblack.png', 'correct_response': 'right', 'condition': 'stop'}, {'fileName': 'circleblack.png', 'correct_response': 'left', 'condition': 'go'}, {'fileName': 'squareblack.png', 'correct_response': 'right', 'condition': 'go'}, {'fileName': 'squareblack.png', 'correct_response': 'right', 'condition': 'stop'}, {'fileName': 'squareblack.png', 'correct_response': 'right', 'condition': 'stop'}, {'fileName': 'circleblack.png', 'correct_response': 'left', 'condition': 'go'}, {'fileName': 'circleblack.png', 'correct_response': 'left', 'condition': 'go'}, {'fileName': 'circleblack.png', 'correct_response': 'left', 'condition': 'stop'}, {'fileName': 'circleblack.png', 'correct_response': 'left', 'condition': 'stop'}, {'fileName': 'squareblack.png', 'correct_response': 'right', 'condition': 'go'}, {'fileName': 'circleblack.png', 'correct_response': 'left', 'condition': 'go'}, {'fileName': 'squareblack.png', 'correct_response': 'right', 'condition': 'go'}, {'fileName': 'squareblack.png', 'correct_response': 'right', 'condition': 'go'}, {'fileName': 'circleblack.png', 'correct_response': 'left', 'condition': 'go'}, {'fileName': 'squareblack.png', 'correct_response': 'right', 'condition': 'go'}, {'fileName': 'squareblack.png', 'correct_response': 'right', 'condition': 'stop'}]","[{'fileName': 'squareblack.png', 'correct_response': 'right', 'condition': 'go'}, {'fileName': 'circleblack.png', 'correct_response': 'left', 'condition': 'stop'}, {'fileName': 'squareblack.png', 'correct_response': 'right', 'condition': 'go'}, {'fileName': 'squareblack.png', 'correct_response': 'right', 'condition': 'stop'}, {'fileName': 'circleblack.png', 'correct_response': 'left', 'condition': 'stop'}, {'fileName': 'circleblack.png', 'correct_response': 'left', 'condition': 'go'}, {'fileName': 'squareblack.png', 'correct_response': 'right', 'condition': 'go'}, {'fileName': 'circleblack.png', 'correct_response': 'left', 'condition': 'go'}, {'fileName': 'circleblack.png', 'correct_response': 'left', 'condition': 'go'}, {'fileName': 'squareblack.png', 'correct_response': 'right', 'condition': 'stop'}, {'fileName': 'circleblack.png', 'correct_response': 'left', 'condition': 'go'}, {'fileName': 'squareblack.png', 'correct_response': 'right', 'condition': 'go'}, {'fileName': 'circleblack.png', 'correct_response': 'left', 'condition': 'stop'}, {'fileName': 'circleblack.png', 'correct_response': 'left', 'condition': 'go'}, {'fileName': 'squareblack.png', 'correct_response': 'right', 'condition': 'stop'}, {'fileName': 'circleblack.png', 'correct_response': 'left', 'condition': 'go'}, {'fileName': 'squareblack.png', 'correct_response': 'right', 'condition': 'go'}, {'fileName': 'circleblack.png', 'correct_response': 'left', 'condition': 'stop'}, {'fileName': 'circleblack.png', 'correct_response': 'left', 'condition': 'go'}, {'fileName': 'squareblack.png', 'correct_response': 'right', 'condition': 'stop'}, {'fileName': 'squareblack.png', 'correct_response': 'right', 'condition': 'go'}, {'fileName': 'squareblack.png', 'correct_response': 'right', 'condition': 'go'}, {'fileName': 'squareblack.png', 'correct_response': 'right', 'condition': 'go'}, {'fileName': 'circleblack.png', 'correct_response': 'left', 'condition': 'go'}, {'fileName': 'squareblack.png', 'correct_response': 'right', 'condition': 'stop'}, {'fileName': 'circleblack.png', 'correct_response': 'left', 'condition': 'go'}, {'fileName': 'circleblack.png', 'correct_response': 'left', 'condition': 'go'}, {'fileName': 'squareblack.png', 'correct_response': 'right', 'condition': 'go'}, {'fileName': 'squareblack.png', 'correct_response': 'right', 'condition': 'go'}, {'fileName': 'circleblack.png', 'correct_response': 'left', 'condition': 'stop'}, {'fileName': 'circleblack.png', 'correct_response': 'left', 'condition': 'go'}, {'fileName': 'circleblack.png', 'correct_response': 'left', 'condition': 'stop'}, {'fileName': 'circleblack.png', 'correct_response': 'left', 'condition': 'go'}, {'fileName': 'squareblack.png', 'correct_response': 'right', 'condition': 'go'}, {'fileName': 'squareblack.png', 'correct_response': 'right', 'condition': 'go'}, {'fileName': 'squareblack.png', 'correct_response': 'right', 'condition': 'stop'}, {'fileName': 'circleblack.png', 'correct_response': 'left', 'condition': 'stop'}, {'fileName': 'squareblack.png', 'correct_response': 'right', 'condition': 'stop'}, {'fileName': 'circleblack.png', 'correct_response': 'left', 'condition': 'stop'}, {'fileName': 'squareblack.png', 'correct_response': 'right', 'condition': 'go'}, {'fileName': 'squareblack.png', 'correct_response': 'right', 'condition': 'go'}, {'fileName': 'squareblack.png', 'correct_response': 'right', 'condition': 'stop'}, {'fileName': 'circleblack.png', 'correct_response': 'left', 'condition': 'go'}, {'fileName': 'circleblack.png', 'correct_response': 'left', 'condition': 'go'}, {'fileName': 'squareblack.png', 'correct_response': 'right', 'condition': 'go'}, {'fileName': 'squareblack.png', 'correct_response': 'right', 'condition': 'go'}, {'fileName': 'circleblack.png', 'correct_response': 'left', 'condition': 'go'}, {'fileName': 'circleblack.png', 'correct_response': 'left', 'condition': 'go'}]",3139.9493411183357,3139.9493411183357,return,2.374162659049034,,,,,,,,,,,,,,,,,,,,,,,,,,,,,,,,,,,,,,,,,,,,,,,,,,,,,,,,,,,s039,001,2024-09-26_13h37.06.129,simplestop_skeleton,2022.2.2,59.71082955325917,
$currentCorrectResponse,$currentGoStim,0,0,0,0,0,0,0,0,,,,,,,,,,,,,,,3142.3708058148623,3142.3708058148623,3178.514479547739,go,squareblack.png,right,0.35,3178.5392042398453,3178.5392042398453,3179.02986510098,3179.02986510098,3179.046581737697,3179.3801696822047,3179.8807311952114,3180.0308278650045,3181.031933352351,3181.0510821193457,None,0,3181.0510821193457,3181.0510821193457,0.002683870494365692,0.4888111352920532,0.8391386345028877,3181.550128109753,practice,1,,,,,,,,,,,,,,,,,,,,,,,,,,,,,,,,s039,001,2024-09-26_13h37.06.129,simplestop_skeleton,2022.2.2,59.71082955325917,
None,None,0,0,0,0,0,1,1,2,,,,,,,,,,,,,,,,,3181.550653785467,stop,circleblack.png,left,0.35,3181.5747188553214,3181.5747188553214,3182.0663459673524,3182.0663459673524,3182.0835057646036,3182.415718898177,3182.9169558882713,3183.0676542297006,3184.068656772375,3184.085369721055,left,1,3184.085369721055,3184.085369721055,0.008084364235401154,0.4899601489305496,0.8391770571470261,3184.570124410093,practice,1,0.01172761619091034,,,,,,,,,,,,,,,,,,,,,,,,,,,,,,,s039,001,2024-09-26_13h37.06.129,simplestop_skeleton,2022.2.2,59.71082955325917,
$currentCorrectResponse,$currentGoStim,0,0,0,0,0,2,2,0,,,,,,,,,,,,,,,,,3184.570566609502,go,circleblack.png,left,0.3,3184.589864335954,3184.589864335954,3185.0866356492043,3185.0866356492043,3185.103475727141,3185.386950403452,3185.8860939890146,3186.086262732744,3187.088659621775,3187.1053867787123,left,1,3187.1053867787123,3187.1053867787123,0.001286149024963379,0.49004895240068436,0.790457658469677,3187.5901899039745,practice,1,0.3896274268627167,,,,,,,,,,,,,,,,,,,,,,,,,,,,,,,s039,001,2024-09-26_13h37.06.129,simplestop_skeleton,2022.2.2,59.71082955325917,
$currentCorrectResponse,$currentGoStim,0,0,0,0,0,3,3,0,,,,,,,,,,,,,,,,,3187.590610586107,go,squareblack.png,right,0.3,3187.6106316000223,3187.6106316000223,3188.107103973627,3188.107103973627,3188.1234187185764,3188.407001592219,3188.9075823053718,3189.107627362013,3190.1087317615747,3190.1254008337855,None,0,3190.1254008337855,3190.1254008337855,0.0018022432923316956,0.4895201846957207,0.7900703102350235,3190.610155172646,practice,1,,3190.629538141191,3190.629538141191,,,,,,,,,,,,,,,,,,,,,,,,,,,,,s039,001,2024-09-26_13h37.06.129,simplestop_skeleton,2022.2.2,59.71082955325917,
None,None,0,0,0,0,1,0,4,2,,,,,,,,,,,,,,,,,3190.610576502979,go,squareblack.png,right,0.3,3190.629538141191,3190.629538141191,3191.1267126351595,3191.1267126351595,3191.143083013594,3191.426950417459,3191.9276084676385,3192.126373976469,3193.128746651113,3193.145605497062,None,0,3193.145605497062,3193.145605497062,0.0011846572160720825,0.4903314337134361,0.7907419949769974,3193.630275607109,practice,1,,3193.650188677013,3193.650188677013,,,,,,,,,,,,,,,,,,,,,,,,,,,,,s039,001,2024-09-26_13h37.06.129,simplestop_skeleton,2022.2.2,59.71082955325917,
None,None,0,0,0,0,1,1,5,1,,,,,,,,,,,,,,,,,3193.6307162567973,go,circleblack.png,left,0.3,3193.650188677013,3193.650188677013,3194.146493665874,3194.146493665874,3194.163413375616,3194.4472986981273,3194.962620563805,3195.146862961352,3196.1488112807274,3196.1656099781394,left,1,3196.1656099781394,3196.1656099781394,0.0018145814538002014,0.49026551842689514,0.7901351526379585,3196.650262378156,practice,1,0.29307370632886887,3196.6698477491736,3196.6698477491736,,,,,,,,,,,,,,,,,,,,,,,,,,,,,s039,001,2024-09-26_13h37.06.129,simplestop_skeleton,2022.2.2,59.71082955325917,
None,None,0,0,0,0,1,2,6,3,,,,,,,,,,,,,,,,,3196.650682002306,stop,circleblack.png,left,0.3,3196.6698477491736,3196.6698477491736,3197.1664981916547,3197.1664981916547,3197.183123782277,3197.466853350401,3197.9659191966057,3198.1671516373754,3199.1688055694103,3199.185698233545,right,0,3199.185698233545,3199.185698233545,0.0012483224272727966,0.49005746096372604,0.7904650047421455,3199.6703988164663,practice,1,0.2729777917265892,3199.6899465173483,3199.6899465173483,,,,,,,,,,,,,,,,,,,,,,,,,,,,,s039,001,2024-09-26_13h37.06.129,simplestop_skeleton,2022.2.2,59.71082955325917,
None,None,0,0,0,0,1,3,7,2,,,,,,,,,,,,,,,,,3199.670816704631,go,circleblack.png,left,0.25,3199.6899465173483,3199.6899465173483,3200.1867146492004,3200.1867146492004,3200.2033810317516,3200.4368574768305,3200.952544108033,3201.1870828941464,3202.1888049915433,3202.2053730636835,left,1,3202.2053730636835,3202.2053730636835,0.001409180462360382,0.4897159934043884,0.739886149764061,3202.6901941746473,practice,1,0.3008948415517807,,,,,,,,,,,,,,,,,,,,,,,,,,,,,,,s039,001,2024-09-26_13h37.06.129,simplestop_skeleton,2022.2.2,59.71082955325917,
$currentCorrectResponse,$currentGoStim,0,0,0,0,2,0,8,0,,,,,,,,,,,,,,,,,3202.6906170919538,stop,squareblack.png,right,0.25,3202.7100344002247,3202.7100344002247,3203.206469208002,3203.206469208002,3203.223299264908,3203.4567098990083,3203.972495533526,3204.2069525942206,3205.2087541744113,3205.2253327146173,right,1,3205.2253327146173,3205.2253327146173,0.0017390921711921692,0.4901559054851532,0.7406015247106552,3205.7100493982434,practice,1,0.28502698987722397,3205.730194941163,3205.730194941163,,,,,,,,,,,,,,,,,,,,,,,,,,,,,s039,001,2024-09-26_13h37.06.129,simplestop_skeleton,2022.2.2,59.71082955325917,
$currentCorrectResponse,$currentGoStim,0,0,0,0,2,1,9,0,,,,,,,,,,,,,,,,,3205.7104683592916,go,circleblack.png,left,0.2,3205.730194941163,3205.730194941163,3206.2262315377593,3206.2262315377593,3206.2431325018406,3206.426497720182,3206.925940461457,3207.227151989937,3208.2285484820604,3208.245146602392,left,1,3208.245146602392,3208.245146602392,0.0017782524228096008,0.4900507852435112,0.6903832107782364,3208.7302992865443,practice,1,0.34443600475788116,,,,,,,,,,,,,,,,,,,,,,,,,,,,,,,s039,001,2024-09-26_13h37.06.129,simplestop_skeleton,2022.2.2,59.71082955325917,
None,None,0,0,0,0,2,2,10,3,,,,,,,,,,,,,,,,,3208.7307197600603,go,squareblack.png,right,0.2,3208.750378623605,3208.750378623605,3209.2467428818345,3209.2467428818345,3209.263153269887,3209.4468521773815,3209.9625479727983,3210.247114561498,3211.2489084154367,3211.265690088272,right,1,3211.265690088272,3211.265690088272,0.0016708225011825562,0.4899049550294876,0.6902642920613289,3211.7501502633095,practice,1,0.2842140793800354,3211.769913330674,3211.769913330674,,,,,,,,,,,,,,,,,,,,,,,,,,,,,s039,001,2024-09-26_13h37.06.129,simplestop_skeleton,2022.2.2,59.71082955325917,
None,None,0,0,0,0,2,3,11,3,,,,,,,,,,,,,,,,,3211.750591188669,stop,squareblack.png,right,0.2,3211.769913330674,3211.769913330674,3212.2667798399925,3212.2667798399925,3212.2835813760757,3212.4668519869447,3212.9825460240245,3213.2672464475036,3214.268962480128,3214.2854357287288,left,0,3214.2854357287288,3214.2854357287288,0.0012170448899269104,0.48980601131916046,0.6903706565499306,3214.7701621949673,practice,1,0.28302959352731705,3214.789539426565,3214.789539426565,,,,,,,,,,,,,,,,,,,,,,,,,,,,,s039,001,2024-09-26_13h37.06.129,simplestop_skeleton,2022.2.2,59.71082955325917,
None,None,0,0,0,0,3,0,12,2,,,,,,,,,,,,,,,,,3214.77066231519,stop,squareblack.png,right,0.15,3214.789539426565,3214.789539426565,3215.2866047248244,3215.2866047248244,3215.303481169045,3215.4365255087614,3215.9371764734387,3216.28622020036,3217.2887545749545,3217.2887545749545,right,1,3217.2887545749545,3217.2887545749545,0.0011904537677764893,0.4902685210108757,0.6402929052710533,3217.7734787538648,practice,1,0.42593028396368027,3217.7936787456274,3217.7936787456274,,,,,,,,,,,,,,,,,,,,,,,,,,,,,s039,001,2024-09-26_13h37.06.129,simplestop_skeleton,2022.2.2,59.71082955325917,
None,None,0,0,0,0,3,1,13,1,,,,,,,,,,,,,,,,,3217.7739202678204,go,circleblack.png,left,0.1,3217.7936787456274,3217.7936787456274,3218.2898333072662,3218.2898333072662,3218.3064779490232,3218.390138886869,3218.9058642163873,3219.29018933326,3220.291853174567,3220.308596678078,left,1,3220.308596678078,3220.308596678078,0.0018469616770744324,0.49011416733264923,0.5902818292379379,3220.793423332274,practice,1,0.2732306569814682,3220.813070319593,3220.813070319593,,,,,,,,,,,,,,,,,,,,,,,,,,,,,s039,001,2024-09-26_13h37.06.129,simplestop_skeleton,2022.2.2,59.71082955325917,
$currentCorrectResponse,$currentGoStim,0,0,0,0,3,2,14,0,,,,,,,,,,,,,,,,,3220.7938575819135,go,circleblack.png,left,0.1,3220.813070319593,3220.813070319593,3221.3095951601863,3221.3095951601863,3221.326390892267,3221.410034522414,3221.9259427785873,3222.3103962913156,3223.311858572066,3223.328719481826,right,0,3223.328719481826,3223.328719481826,0.001248389482498169,0.4901406988501549,0.5904165953397751,3223.813344374299,practice,1,0.266239233314991,,,,,,,,,,,,,,,,,,,,,,,,,,,,,,,s039,001,2024-09-26_13h37.06.129,simplestop_skeleton,2022.2.2,59.71082955325917,
None,None,0,0,0,0,3,3,15,3,,,,,,,,,,,,,,,,,3223.81379006058,stop,circleblack.png,left,0.1,3223.8328502997756,3223.8328502997756,3224.3297377228737,3224.3297377228737,3224.3467787131667,3224.43006426841,3224.930601939559,3225.3308813646436,3226.3319930657744,3226.3319930657744,left,1,3226.3319930657744,3226.3319930657744,0.001282230019569397,0.4902835711836815,0.5903366655111313,3226.8169918581843,practice,1,0.3561485707759857,3226.8366955816746,3226.8366955816746,,,,,,,,,,,,,,,,,,,,,,,,,,,,,s039,001,2024-09-26_13h37.06.129,simplestop_skeleton,2022.2.2,59.71082955325917,
None,None,0,0,0,0,4,0,16,3,,,,,,,,,,,,,,,,,3226.8174097388983,stop,circleblack.png,left,0.05,3226.8366955816746,3226.8366955816746,3227.3337898105383,3227.3337898105383,3227.350379191339,3227.3832744956017,3227.8834095671773,3228.333018325269,3229.3353278189898,3229.3521803617477,left,1,3229.3521803617477,3229.3521803617477,0.0012525469064712524,0.4902719110250473,0.5402105301618576,3229.836838811636,practice,1,0.35028140991926193,3229.8565264716744,3229.8565264716744,,,,,,,,,,,,,,,,,,,,,,,,,,,,,s039,001,2024-09-26_13h37.06.129,simplestop_skeleton,2022.2.2,59.71082955325917,
None,None,0,0,0,0,4,1,17,1,,,,,,,,,,,,,,,,,3229.8372616693377,go,squareblack.png,right,0.0,3229.8565264716744,3229.8565264716744,3230.3531837165356,3230.3531837165356,3230.3697546720505,3230.3531837165356,3230.853899076581,3231.352873429656,3232.355277083814,3232.372234493494,right,1,3232.372234493494,3232.372234493494,0.0017386376857757568,0.48993075639009476,0.48993075639009476,3232.856790035963,practice,1,0.4601188823580742,,,,,,,,,,,,,,,,,,,,,,,,,,,,,,,s039,001,2024-09-26_13h37.06.129,simplestop_skeleton,2022.2.2,59.71082955325917,
None,None,0,0,0,0,4,2,18,2,,,,,,,,,,,,,,,,,3232.8572261482477,go,circleblack.png,left,0.0,3232.8768849894404,3232.8768849894404,3233.373120121658,3233.373120121658,3233.389942653477,3233.373120121658,3233.8736050650477,3234.3735367804766,3235.3752535656095,3235.3918205574155,left,1,3235.3918205574155,3235.3918205574155,0.001829102635383606,0.490151509642601,0.490151509642601,3235.8767856433988,practice,1,0.30104881525039673,3235.8966391831636,3235.8966391831636,,,,,,,,,,,,,,,,,,,,,,,,,,,,,s039,001,2024-09-26_13h37.06.129,simplestop_skeleton,2022.2.2,59.71082955325917,
None,None,0,0,0,0,4,3,19,1,,,,,,,,,,,,,,,,,3235.8772010579705,go,squareblack.png,right,0.0,3235.8966391831636,3235.8966391831636,3236.3932442739606,3236.3932442739606,3236.4096698611975,3236.3932442739606,3236.8936189562082,3237.3936249539256,3238.3953264951706,3238.411800712347,right,1,3238.411800712347,3238.411800712347,0.0016511455178260803,0.4897170215845108,0.4897170215845108,3238.89675462991,practice,1,0.2904353067278862,3238.9164304956794,3238.9164304956794,,,,,,,,,,,,,,,,,,,,,,,,,,,,,s039,001,2024-09-26_13h37.06.129,simplestop_skeleton,2022.2.2,59.71082955325917,
None,None,0,0,0,0,5,0,20,2,,,,,,,,,,,,,,,,,3238.8971704021096,go,squareblack.png,right,0.0,3238.9164304956794,3238.9164304956794,3239.413299188018,3239.413299188018,3239.4299374371767,3239.413299188018,3239.913874924183,3240.413804784417,3241.415599323809,3241.432130537927,left,0,3241.432130537927,3241.432130537927,0.0012391507625579834,0.4902030676603317,0.4902030676603317,3241.9168614149094,practice,1,0.25102388858795166,3241.9368727505207,3241.9368727505207,,,,,,,,,,,,,,,,,,,,,,,,,,,,,s039,001,2024-09-26_13h37.06.129,simplestop_skeleton,2022.2.2,59.71082955325917,
None,None,0,0,0,0,5,1,21,3,,,,,,,,,,,,,,,,,3241.9173021689057,go,circleblack.png,left,0.0,3241.9368727505207,3241.9368727505207,3242.433189332485,3242.433189332485,3242.4498362094164,3242.433189332485,3242.9337179511786,3243.433885656297,3244.43531755358,3244.4523418843746,left,1,3244.4523418843746,3244.4523418843746,0.0018367469310760498,0.4899350628256798,0.4899350628256798,3244.93689532578,practice,1,0.28874117136001587,3244.9566461592913,3244.9566461592913,,,,,,,,,,,,,,,,,,,,,,,,,,,,,s039,001,2024-09-26_13h37.06.129,simplestop_skeleton,2022.2.2,59.71082955325917,
None,None,0,0,0,0,5,2,22,1,,,,,,,,,,,,,,,,,3244.9373090192676,go,squareblack.png,right,0.0,3244.9566461592913,3244.9566461592913,3245.4531933516264,3245.4531933516264,3245.469872780144,3245.4531933516264,3245.953756123781,3246.4540722444654,3247.455337062478,3247.472013153136,right,1,3247.472013153136,3247.472013153136,0.0016640201210975647,0.48987963795661926,0.48987963795661926,3247.9571810290217,practice,1,0.249735489487648,,,,,,,,,,,,,,,,,,,,,,,,,,,,,,,s039,001,2024-09-26_13h37.06.129,simplestop_skeleton,2022.2.2,59.71082955325917,
None,None,0,0,0,0,5,3,23,1,,,,,,,,,,,,,,,,,3247.9577395692468,stop,squareblack.png,right,0.0,3247.9778586253524,3247.9778586253524,3248.473169706762,3248.473169706762,3248.4897383749485,3248.473169706762,3248.9735505357385,3249.4737434461713,3250.475388608873,3250.4920278713107,right,1,3250.4920278713107,3250.4920278713107,0.0017218515276908875,0.4878687188029289,0.4878687188029289,3250.976985953748,practice,1,0.3296264037489891,3251.012471154332,3251.012471154332,,,,,,,,,,,,,,,,,,,,,,,,,,,,,s039,001,2024-09-26_13h37.06.129,simplestop_skeleton,2022.2.2,59.71082955325917,
,,0,0,0,0,,,,,,,,,,,,,"[{'fileName': 'squareblack.png', 'correct_response': 'right', 'condition': 'stop'}, {'fileName': 'circleblack.png', 'correct_response': 'left', 'condition': 'go'}, {'fileName': 'squareblack.png', 'correct_response': 'right', 'condition': 'go'}, {'fileName': 'circleblack.png', 'correct_response': 'left', 'condition': 'go'}, {'fileName': 'squareblack.png', 'correct_response': 'right', 'condition': 'go'}, {'fileName': 'circleblack.png', 'correct_response': 'left', 'condition': 'go'}, {'fileName': 'squareblack.png', 'correct_response': 'right', 'condition': 'stop'}, {'fileName': 'squareblack.png', 'correct_response': 'right', 'condition': 'go'}, {'fileName': 'circleblack.png', 'correct_response': 'left', 'condition': 'stop'}, {'fileName': 'circleblack.png', 'correct_response': 'left', 'condition': 'stop'}, {'fileName': 'squareblack.png', 'correct_response': 'right', 'condition': 'go'}, {'fileName': 'circleblack.png', 'correct_response': 'left', 'condition': 'go'}, {'fileName': 'circleblack.png', 'correct_response': 'left', 'condition': 'go'}, {'fileName': 'circleblack.png', 'correct_response': 'left', 'condition': 'stop'}, {'fileName': 'squareblack.png', 'correct_response': 'right', 'condition': 'go'}, {'fileName': 'squareblack.png', 'correct_response': 'right', 'condition': 'go'}, {'fileName': 'squareblack.png', 'correct_response': 'right', 'condition': 'stop'}, {'fileName': 'circleblack.png', 'correct_response': 'left', 'condition': 'stop'}, {'fileName': 'circleblack.png', 'correct_response': 'left', 'condition': 'go'}, {'fileName': 'squareblack.png', 'correct_response': 'right', 'condition': 'go'}, {'fileName': 'circleblack.png', 'correct_response': 'left', 'condition': 'go'}, {'fileName': 'circleblack.png', 'correct_response': 'left', 'condition': 'go'}, {'fileName': 'squareblack.png', 'correct_response': 'right', 'condition': 'go'}, {'fileName': 'squareblack.png', 'correct_response': 'right', 'condition': 'stop'}]",,,,,,,,,,,,,,,,,,,,,,,,,,,,,,,,,,,,3251.012471154332,3251.012471154332,return,6.34835022687912,,,,,,,,,,,,,,,,,,,,,,,,,s039,001,2024-09-26_13h37.06.129,simplestop_skeleton,2022.2.2,59.71082955325917,
None,None,1,0,1,0,0,0,0,3,,,,,,,,,,,,,,,,,3257.3862190693617,stop,squareblack.png,right,0.0,3257.4166039824486,3257.4166039824486,3257.915301948786,3257.915301948786,3257.932092130184,3257.915301948786,3258.417338848114,3258.9179183244705,3259.919292345643,3259.919292345643,right,1,3259.919292345643,3259.919292345643,0.0016313642263412476,0.49308470636606216,0.49308470636606216,3260.404024899006,practice,2,0.49031420797109604,3260.4260710552335,3260.4260710552335,,,,,,,,,,,,,,,,,,,,,,,,,,,,,s039,001,2024-09-26_13h37.06.129,simplestop_skeleton,2022.2.2,59.71082955325917,
None,None,1,0,1,0,0,1,1,3,,,,,,,,,,,,,,,,,3260.404569119215,go,circleblack.png,left,0.0,3260.4260710552335,3260.4260710552335,3260.920357644558,3260.920357644558,3260.9370439127088,3260.920357644558,3261.4207801371813,3261.920687556267,3262.9223878011107,3262.9389669820666,left,1,3262.9389669820666,3262.9389669820666,0.0045197755098342896,0.48988911509513855,0.48988911509513855,3263.4238465577364,practice,2,0.28428663313388824,3263.4438492134213,3263.4438492134213,,,,,,,,,,,,,,,,,,,,,,,,,,,,,s039,001,2024-09-26_13h37.06.129,simplestop_skeleton,2022.2.2,59.71082955325917,
None,None,1,0,1,0,0,2,2,3,,,,,,,,,,,,,,,,,3263.4242610633373,go,squareblack.png,right,0.0,3263.4438492134213,3263.4438492134213,3263.9402758851647,3263.9402758851647,3263.9567384794354,3263.9402758851647,3264.4564251825213,3264.940974742174,3265.942601956427,3265.9591355398297,right,1,3265.9591355398297,3265.9591355398297,0.001657634973526001,0.489859975874424,0.489859975874424,3266.4441183432937,practice,2,0.251751184463501,3266.4641284272075,3266.4641284272075,,,,,,,,,,,,,,,,,,,,,,,,,,,,,s039,001,2024-09-26_13h37.06.129,simplestop_skeleton,2022.2.2,59.71082955325917,
None,None,1,0,1,0,0,3,3,2,,,,,,,,,,,,,,,,,3266.4445338994265,go,circleblack.png,left,0.0,3266.4641284272075,3266.4641284272075,3266.960333287716,3266.960333287716,3266.9768478944898,3266.960333287716,3267.4607413187623,3267.9606231302023,3268.962663181126,3268.97931612283,left,1,3268.97931612283,3268.97931612283,0.0018894970417022705,0.4897845461964607,0.4897845461964607,3269.463968798518,practice,2,0.3027227818965912,3269.4838526397943,3269.4838526397943,,,,,,,,,,,,,,,,,,,,,,,,,,,,,s039,001,2024-09-26_13h37.06.129,simplestop_skeleton,2022.2.2,59.71082955325917,
$currentCorrectResponse,$currentGoStim,1,0,1,0,1,0,4,0,,,,,,,,,,,,,,,,,3269.4643828868866,go,squareblack.png,right,0.0,3269.4838526397943,3269.4838526397943,3269.9803694039583,3269.9803694039583,3269.9967742189765,3269.9803694039583,3270.4808432012796,3270.980829961598,3271.982628546655,3271.999043561518,right,1,3271.999043561518,3271.999043561518,0.0016888752579689026,0.49010246247053146,0.49010246247053146,3272.483886770904,practice,2,0.27288586646318436,3272.503939077258,3272.503939077258,,,,,,,,,,,,,,,,,,,,,,,,,,,,,s039,001,2024-09-26_13h37.06.129,simplestop_skeleton,2022.2.2,59.71082955325917,
$currentCorrectResponse,$currentGoStim,1,0,1,0,1,1,5,0,,,,,,,,,,,,,,,,,3272.4843011423945,go,circleblack.png,left,0.0,3272.503939077258,3272.503939077258,3273.0002680942416,3273.0002680942416,3273.016709804535,3273.0002680942416,3273.5007532164454,3274.0005184188485,3275.0024119988084,3275.0189004689455,left,1,3275.0189004689455,3275.0189004689455,0.0017505213618278503,0.49009519070386887,0.49009519070386887,3275.5035853907466,practice,2,0.26316582411527634,3275.523406766355,3275.523406766355,,,,,,,,,,,,,,,,,,,,,,,,,,,,,s039,001,2024-09-26_13h37.06.129,simplestop_skeleton,2022.2.2,59.71082955325917,
None,None,1,0,1,0,1,2,6,2,,,,,,,,,,,,,,,,,3275.503996387124,stop,squareblack.png,right,0.0,3275.523406766355,3275.523406766355,3276.020066343248,3276.020066343248,3276.0366587415338,3276.020066343248,3276.5207333639264,3277.0211550220847,3278.0221862867475,3278.0390582978725,None,0,3278.0390582978725,3278.0390582978725,0.001653715968132019,0.4904627650976181,0.4904627650976181,3278.523617170751,practice,2,,3278.5428611561656,3278.5428611561656,,,,,,,,,,,,,,,,,,,,,,,,,,,,,s039,001,2024-09-26_13h37.06.129,simplestop_skeleton,2022.2.2,59.71082955325917,
$currentCorrectResponse,$currentGoStim,1,0,1,0,1,3,7,0,,,,,,,,,,,,,,,,,3278.524028211832,go,squareblack.png,right,0.05,3278.5428611561656,3278.5428611561656,3279.040099725127,3279.040099725127,3279.0569093972445,3279.090486370027,3279.5908636674285,3280.0421321615577,3281.0425779744983,3281.0425779744983,left,0,3281.0425779744983,3281.0425779744983,0.0011948347091674805,0.4903615936636925,0.5403935983777046,3281.52729421854,practice,2,0.3319670110940933,3281.547109745443,3281.547109745443,,,,,,,,,,,,,,,,,,,,,,,,,,,,,s039,001,2024-09-26_13h37.06.129,simplestop_skeleton,2022.2.2,59.71082955325917,
None,None,1,0,1,0,2,0,8,1,,,,,,,,,,,,,,,,,3281.527707397938,stop,circleblack.png,left,0.05,3281.547109745443,3281.547109745443,3282.0435055941343,3282.0435055941343,3282.06026853621,3282.0936451628804,3282.594197385013,3283.0433626696467,3284.0458154305816,3284.0623798295856,left,1,3284.0623798295856,3284.0623798295856,0.001789972186088562,0.4899776726961136,0.5402695015072823,3284.54738201946,practice,2,0.36050719022750854,,,,,,,,,,,,,,,,,,,,,,,,,,,,,,,s039,001,2024-09-26_13h37.06.129,simplestop_skeleton,2022.2.2,59.71082955325917,
None,None,1,0,1,0,2,1,9,1,,,,,,,,,,,,,,,,,3284.547804236412,stop,circleblack.png,left,0.0,3284.567498125136,3284.567498125136,3285.0636131241918,3285.0636131241918,3285.080057837069,3285.0636131241918,3285.563940256834,3286.0647349357605,3287.0659044086933,3287.0823318958282,None,0,3287.0823318958282,3287.0823318958282,0.0014215856790542603,0.489136666059494,0.489136666059494,3287.567227937281,practice,2,,3287.5871487930417,3287.5871487930417,,,,,,,,,,,,,,,,,,,,,,,,,,,,,s039,001,2024-09-26_13h37.06.129,simplestop_skeleton,2022.2.2,59.71082955325917,
None,None,1,0,1,0,2,2,10,3,,,,,,,,,,,,,,,,,3287.567664451897,go,squareblack.png,right,0.05,3287.5871487930417,3287.5871487930417,3288.083418659866,3288.083418659866,3288.100426144898,3288.133445382118,3288.634043738246,3289.084196075797,3290.08561629802,3290.1023668274283,right,1,3290.1023668274283,3290.1023668274283,0.001810029149055481,0.4902053102850914,0.5400253683328629,3290.5869735106826,practice,2,0.30702928453683853,3290.6071381121874,3290.6071381121874,,,,,,,,,,,,,,,,,,,,,,,,,,,,,s039,001,2024-09-26_13h37.06.129,simplestop_skeleton,2022.2.2,59.71082955325917,
None,None,1,0,1,0,2,3,11,3,,,,,,,,,,,,,,,,,3290.5873875543475,go,circleblack.png,left,0.05,3290.6071381121874,3290.6071381121874,3291.103318810463,3291.103318810463,3291.1200126707554,3291.153495185077,3291.6539279818535,3292.103622660041,3293.1055120378733,3293.1221349984407,left,1,3293.1221349984407,3293.1221349984407,0.0018812641501426697,0.4902008846402168,0.5403973236680031,3293.6068963781,practice,2,0.3068510591983795,3293.626588433981,3293.626588433981,,,,,,,,,,,,,,,,,,,,,,,,,,,,,s039,001,2024-09-26_13h37.06.129,simplestop_skeleton,2022.2.2,59.71082955325917,
None,None,1,0,1,0,3,0,12,2,,,,,,,,,,,,,,,,,3293.6073298305273,go,circleblack.png,left,0.05,3293.626588433981,3293.626588433981,3294.123613625765,3294.123613625765,3294.140930093825,3294.1735472157598,3294.689264714718,3295.124960578978,3296.1256151646376,3296.1423577293754,left,1,3296.1423577293754,3296.1423577293754,0.0012888237833976746,0.4906116798520088,0.5405919849872589,3296.627164915204,practice,2,0.37790412455797195,3296.646786697209,3296.646786697209,,,,,,,,,,,,,,,,,,,,,,,,,,,,,s039,001,2024-09-26_13h37.06.129,simplestop_skeleton,2022.2.2,59.71082955325917,
None,None,1,0,1,0,3,1,13,1,,,,,,,,,,,,,,,,,3296.6276945248246,stop,circleblack.png,left,0.05,3296.646786697209,3296.646786697209,3297.1437447294593,3297.1437447294593,3297.1601967290044,3297.193465426564,3297.692618638277,3298.14374858886,3299.1457193642855,3299.16219162941,right,0,3299.16219162941,3299.16219162941,0.001272834837436676,0.49001433700323105,0.540135495364666,3299.6470386460423,practice,2,0.23490548133850098,3299.672302387655,3299.672302387655,,,,,,,,,,,,,,,,,,,,,,,,,,,,,s039,001,2024-09-26_13h37.06.129,simplestop_skeleton,2022.2.2,59.71082955325917,
None,None,1,0,1,0,3,2,14,2,,,,,,,,,,,,,,,,,3299.647453278303,go,squareblack.png,right,0.0,3299.672302387655,3299.672302387655,3300.1633846387267,3300.1633846387267,3300.1800238639116,3300.1633846387267,3300.66418594867,3301.163017950952,3302.1655251830816,3302.182084046304,right,1,3302.182084046304,3302.182084046304,0.007759183645248413,0.4900013506412506,0.4900013506412506,3302.667239919305,practice,2,0.48916836827993393,3302.6866386830807,3302.6866386830807,,,,,,,,,,,,,,,,,,,,,,,,,,,,,s039,001,2024-09-26_13h37.06.129,simplestop_skeleton,2022.2.2,59.71082955325917,
None,None,1,0,1,0,3,3,15,3,,,,,,,,,,,,,,,,,3302.6676655113697,go,squareblack.png,right,0.0,3302.6866386830807,3302.6866386830807,3303.183455981314,3303.183455981314,3303.19998524338,3303.183455981314,3303.683958142996,3304.183028884232,3305.1857179403305,3305.202255398035,right,1,3305.202255398035,3305.202255398035,0.0011994168162345886,0.4898536428809166,0.4898536428809166,3305.687149658799,practice,2,0.39894095808267593,3305.706652633846,3305.706652633846,,,,,,,,,,,,,,,,,,,,,,,,,,,,,s039,001,2024-09-26_13h37.06.129,simplestop_skeleton,2022.2.2,59.71082955325917,
None,None,1,0,1,0,4,0,16,1,,,,,,,,,,,,,,,,,3305.68757224828,stop,squareblack.png,right,0.0,3305.706652633846,3305.706652633846,3306.203234896064,3306.203234896064,3306.2198745533824,3306.203234896064,3306.7039252966642,3307.2042849585414,3308.205455340445,3308.2221269756556,None,0,3308.2221269756556,3308.2221269756556,0.0012037158012390137,0.4900527223944664,0.4900527223944664,3308.706879720092,practice,2,,,,,,,,,,,,,,,,,,,,,,,,,,,,,,,,s039,001,2024-09-26_13h37.06.129,simplestop_skeleton,2022.2.2,59.71082955325917,
$currentCorrectResponse,$currentGoStim,1,0,1,0,4,1,17,0,,,,,,,,,,,,,,,,,3308.707315981388,stop,circleblack.png,left,0.05,3308.7270628735423,3308.7270628735423,3309.2236526831985,3309.2236526831985,3309.2404368445277,3309.273540958762,3309.7740641087294,3310.2246002331376,3311.2259392887354,3311.2423882186413,None,0,3311.2423882186413,3311.2423882186413,0.0019573718309402466,0.49047088623046875,0.5404312536120415,3311.7274748012424,practice,2,,3311.7469026073813,3311.7469026073813,,,,,,,,,,,,,,,,,,,,,,,,,,,,,s039,001,2024-09-26_13h37.06.129,simplestop_skeleton,2022.2.2,59.71082955325917,
None,None,1,0,1,0,4,2,18,1,,,,,,,,,,,,,,,,,3311.7278891950846,go,circleblack.png,left,0.1,3311.7469026073813,3311.7469026073813,3312.243624344468,3312.243624344468,3312.26014495641,3312.3437673673034,3312.844103179872,3313.243065163493,3314.2456782236695,3314.2624223455787,left,1,3314.2624223455787,3314.2624223455787,0.0012476518750190735,0.4900257885456085,0.5902845859527588,3314.747201450169,practice,2,0.37792396545410156,3314.7671553343534,3314.7671553343534,,,,,,,,,,,,,,,,,,,,,,,,,,,,,s039,001,2024-09-26_13h37.06.129,simplestop_skeleton,2022.2.2,59.71082955325917,
None,None,1,0,1,0,4,3,19,1,,,,,,,,,,,,,,,,,3314.7476774305105,go,squareblack.png,right,0.1,3314.7671553343534,3314.7671553343534,3315.263662070036,3315.263662070036,3315.280311226845,3315.363744556904,3315.864652648568,3316.263373285532,3317.2655941843987,3317.2824742123485,right,1,3317.2824742123485,3317.2824742123485,0.0017169192433357239,0.48975083976984024,0.5898342877626419,3317.7671255022287,practice,2,0.32600340247154236,,,,,,,,,,,,,,,,,,,,,,,,,,,,,,,s039,001,2024-09-26_13h37.06.129,simplestop_skeleton,2022.2.2,59.71082955325917,
$currentCorrectResponse,$currentGoStim,1,0,1,0,5,0,20,0,,,,,,,,,,,,,,,,,3317.767541334033,go,circleblack.png,left,0.1,3317.7871183231473,3317.7871183231473,3318.2833972349763,3318.2833972349763,3318.3000896275043,3318.3835106939077,3318.8825692385435,3319.2842264845967,3320.2855876013637,3320.302268445492,left,1,3320.302268445492,3320.302268445492,0.0017293095588684082,0.4901224672794342,0.5899600312113762,3320.787184789777,practice,2,0.3079990819096565,3320.8082956820726,3320.8082956820726,,,,,,,,,,,,,,,,,,,,,,,,,,,,,s039,001,2024-09-26_13h37.06.129,simplestop_skeleton,2022.2.2,59.71082955325917,
None,None,1,0,1,0,5,1,21,2,,,,,,,,,,,,,,,,,3320.787603586912,go,circleblack.png,left,0.1,3320.8082956820726,3320.8082956820726,3321.3033954128623,3321.3033954128623,3321.3199564889073,3321.403369344771,3321.9039640426636,3322.302960343659,3323.305458523333,3323.322111874819,left,1,3323.322111874819,3323.322111874819,0.002471432089805603,0.4887627586722374,0.5887608379125595,3323.80689881742,practice,2,0.36787085235118866,,,,,,,,,,,,,,,,,,,,,,,,,,,,,,,s039,001,2024-09-26_13h37.06.129,simplestop_skeleton,2022.2.2,59.71082955325917,
$currentCorrectResponse,$currentGoStim,1,0,1,0,5,2,22,0,,,,,,,,,,,,,,,,,3323.8073148578405,go,squareblack.png,right,0.1,3323.8268187865615,3323.8268187865615,3324.3234908655286,3324.3234908655286,3324.34017264843,3324.422096580267,3324.923989765346,3325.324490621686,3326.325827330351,3326.342562817037,right,1,3326.342562817037,3326.342562817037,0.0016643702983856201,0.49032731354236603,0.5892749354243279,3326.8271497040987,practice,2,0.27651645243167877,3326.846878901124,3326.846878901124,,,,,,,,,,,,,,,,,,,,,,,,,,,,,s039,001,2024-09-26_13h37.06.129,simplestop_skeleton,2022.2.2,59.71082955325917,
None,None,1,0,1,0,5,3,23,2,,,,,,,,,,,,,,,,,3326.827559635043,stop,squareblack.png,right,0.1,3326.846878901124,3326.846878901124,3327.3433907181025,3327.3433907181025,3327.360250003636,3327.443716175854,3327.9596323519945,3328.3434638157487,3329.345640577376,3329.3624426200986,right,1,3329.3624426200986,3329.3624426200986,0.0012494400143623352,0.4902843311429024,0.5902182161808014,3329.847299531102,practice,2,0.3670009523630142,3329.862862072885,3329.862862072885,,,,,,,,,,,,,,,,,,,,,,,,,,,,,s039,001,2024-09-26_13h37.06.129,simplestop_skeleton,2022.2.2,59.71082955325917,
,,1,0,1,0,,,,,,,,,,,,,"[{'fileName': 'squareblack.png', 'correct_response': 'right', 'condition': 'stop'}, {'fileName': 'squareblack.png', 'correct_response': 'right', 'condition': 'go'}, {'fileName': 'circleblack.png', 'correct_response': 'left', 'condition': 'go'}, {'fileName': 'squareblack.png', 'correct_response': 'right', 'condition': 'go'}, {'fileName': 'squareblack.png', 'correct_response': 'right', 'condition': 'go'}, {'fileName': 'circleblack.png', 'correct_response': 'left', 'condition': 'go'}, {'fileName': 'circleblack.png', 'correct_response': 'left', 'condition': 'stop'}, {'fileName': 'circleblack.png', 'correct_response': 'left', 'condition': 'stop'}, {'fileName': 'circleblack.png', 'correct_response': 'left', 'condition': 'go'}, {'fileName': 'squareblack.png', 'correct_response': 'right', 'condition': 'go'}, {'fileName': 'circleblack.png', 'correct_response': 'left', 'condition': 'go'}, {'fileName': 'squareblack.png', 'correct_response': 'right', 'condition': 'stop'}, {'fileName': 'squareblack.png', 'correct_response': 'right', 'condition': 'stop'}, {'fileName': 'squareblack.png', 'correct_response': 'right', 'condition': 'stop'}, {'fileName': 'squareblack.png', 'correct_response': 'right', 'condition': 'go'}, {'fileName': 'circleblack.png', 'correct_response': 'left', 'condition': 'go'}, {'fileName': 'circleblack.png', 'correct_response': 'left', 'condition': 'stop'}, {'fileName': 'circleblack.png', 'correct_response': 'left', 'condition': 'stop'}, {'fileName': 'squareblack.png', 'correct_response': 'right', 'condition': 'go'}, {'fileName': 'circleblack.png', 'correct_response': 'left', 'condition': 'go'}, {'fileName': 'squareblack.png', 'correct_response': 'right', 'condition': 'go'}, {'fileName': 'circleblack.png', 'correct_response': 'left', 'condition': 'go'}, {'fileName': 'squareblack.png', 'correct_response': 'right', 'condition': 'go'}, {'fileName': 'circleblack.png', 'correct_response': 'left', 'condition': 'go'}]",,,,,,,,,,,,,,,,,,,,,,,,,,,,,,,,,,,,3329.862862072885,3329.862862072885,return,1.3113858550786972,,,,,,,,,,,,,,,,,,,,,,,,,s039,001,2024-09-26_13h37.06.129,simplestop_skeleton,2022.2.2,59.71082955325917,
None,None,,,,,,,,,0,0,0,0,0,0,0,3,,,,,,,,,3335.6867089793086,go,squareblack.png,right,0.05,,,,,,,,,,,,,,,0.0022880956530570984,0.490399494767189,,3338.1904082894325,test,1,,,,,,,,3331.197864048183,3331.197864048183,3335.7061732932925,3336.203070178628,3336.203070178628,3336.219654098153,3336.2533508315682,3336.7537607476115,3337.2041639462113,3338.215226352215,left,0,0.32261723279953003,0.05,,,,,,,,,,,s039,001,2024-09-26_13h37.06.129,simplestop_skeleton,2022.2.2,59.71082955325917,
None,None,,,,,,,,,0,0,0,0,0,1,1,3,,,,,,,,,3338.1909632906318,stop,circleblack.png,left,0.05,,,,,,,,,,,,,,,0.007914349436759949,0.48774224519729614,0.5375627651810646,3340.6925331503153,test,1,,,,,,,,,,3338.215226352215,3338.7053281217813,3338.7053281217813,3338.7213750332594,3338.7544297873974,3339.2559200152755,3339.7070438861847,3340.7121733650565,left,1,0.34700293838977814,0.0,,,,,,,,,,,s039,001,2024-09-26_13h37.06.129,simplestop_skeleton,2022.2.2,59.71082955325917,
None,None,,,,,,,,,0,0,0,0,0,2,2,2,,,,,,,,,3340.6929675862193,go,squareblack.png,right,0.0,,,,,,,,,,,,,,,0.001763850450515747,0.48951905220746994,,3343.195436619222,test,1,,,,,,,,,,3340.7121733650565,3341.208738029003,3341.208738029003,3341.225451231003,3341.208738029003,3341.709337092936,3342.209083393216,3343.214246183634,right,1,0.27167174965143204,0.0,,,,,,,,,,,s039,001,2024-09-26_13h37.06.129,simplestop_skeleton,2022.2.2,59.71082955325917,
$currentCorrectResponse,$currentGoStim,,,,,,,,,0,0,0,0,0,3,3,0,,,,,,,,,3343.1958699971437,stop,squareblack.png,right,0.0,,,,,,,,,,,,,,,0.0012808963656425476,0.4895302504301071,0.4895302504301071,3345.69880720973,test,1,,,,,,,,,,3343.214246183634,3343.7113875746727,3343.7113875746727,3343.728181950748,3343.7113875746727,3344.2120473608375,3344.7116899862885,3345.7235463634133,right,1,0.33494339138269424,0.0,,,,,,,,,,,s039,001,2024-09-26_13h37.06.129,simplestop_skeleton,2022.2.2,59.71082955325917,
None,None,,,,,,,,,0,0,0,0,1,0,4,1,,,,,,,,,3345.699245005846,stop,circleblack.png,left,0.0,,,,,,,,,,,,,,,0.008094005286693573,0.4890451356768608,0.4890451356768608,3348.201069429517,test,1,,,,,,,,,,3345.7235463634133,3346.21440243721,3346.21440243721,3346.231018707156,3346.21440243721,3346.714769475162,3347.2138630971313,3348.2196811810136,left,1,0.3906485065817833,0.0,,,,,,,,,,,s039,001,2024-09-26_13h37.06.129,simplestop_skeleton,2022.2.2,59.71082955325917,
None,None,,,,,,,,,0,0,0,0,1,1,5,2,,,,,,,,,3348.2015032321215,go,circleblack.png,left,0.0,,,,,,,,,,,,,,,0.0013379603624343872,0.48962075263261795,,3350.703799046576,test,1,,,,,,,,,,3348.2196811810136,3348.7171357274055,3348.7171357274055,3348.73365072906,3348.7171357274055,3349.2175036668777,3349.716657809913,3350.722960047424,left,1,0.3477408066391945,0.0,,,,,,,,,,,s039,001,2024-09-26_13h37.06.129,simplestop_skeleton,2022.2.2,59.71082955325917,
$currentCorrectResponse,$currentGoStim,,,,,,,,,0,0,0,0,1,2,6,0,,,,,,,,,3350.7042315155268,go,squareblack.png,right,0.0,,,,,,,,,,,,,,,0.0016810446977615356,0.48979200422763824,,3353.206293068826,test,1,,,,,,,,,,3350.722960047424,3351.219871930778,3351.219871930778,3351.2366525754333,3351.219871930778,3351.7202470228076,3352.219396084547,3353.2255233600736,right,1,0.35553789883852005,0.0,,,,,,,,,,,s039,001,2024-09-26_13h37.06.129,simplestop_skeleton,2022.2.2,59.71082955325917,
None,None,,,,,,,,,0,0,0,0,1,3,7,3,,,,,,,,,3353.20672326535,go,circleblack.png,left,0.0,,,,,,,,,,,,,,,0.0017275214195251465,0.4899696707725525,,3355.7090735584497,test,1,,,,,,,,,,3353.2255233600736,3353.7227870747447,3353.7227870747447,3353.739286661148,3353.7227870747447,3354.2231644541025,3354.7223152667284,3355.7282269597054,left,1,0.3402676060795784,0.0,,,,,,,,,,,s039,001,2024-09-26_13h37.06.129,simplestop_skeleton,2022.2.2,59.71082955325917,
$currentCorrectResponse,$currentGoStim,,,,,,,,,0,0,0,0,2,0,8,0,,,,,,,,,3355.7095039114356,go,circleblack.png,left,0.0,,,,,,,,,,,,,,,0.0012786462903022766,0.48979683965444565,,3358.2118932902813,test,1,,,,,,,,,,3355.7282269597054,3356.2255865857005,3356.2255865857005,3356.242170549929,3356.2255865857005,3356.72580781579,3357.2251714915037,3358.231061168015,right,0,0.33421074599027634,0.0,,,,,,,,,,,s039,001,2024-09-26_13h37.06.129,simplestop_skeleton,2022.2.2,59.71082955325917,
$currentCorrectResponse,$currentGoStim,,,,,,,,,0,0,0,0,2,1,9,0,,,,,,,,,3358.2123287841678,stop,squareblack.png,right,0.0,,,,,,,,,,,,,,,0.0015943348407745361,0.48999033868312836,0.48999033868312836,3360.714716002345,test,1,,,,,,,,,,3358.231061168015,3358.728080101311,3358.728080101311,3358.744693264365,3358.728080101311,3359.2283759117126,3359.7289043813944,3360.7339312955737,None,0,,0.05,,,,,,,,,,,s039,001,2024-09-26_13h37.06.129,simplestop_skeleton,2022.2.2,59.71082955325917,
None,None,,,,,,,,,0,0,0,0,2,2,10,3,,,,,,,,,3360.7151588499546,go,circleblack.png,left,0.05,,,,,,,,,,,,,,,0.0018453970551490784,0.48974311351776123,,3363.21755708009,test,1,,,,,,,,,,3360.7339312955737,3361.2304872199893,3361.2304872199893,3361.2472892403603,3361.280907943845,3361.781239964068,3362.230497248471,3363.236689709127,left,1,0.3385043740272522,0.05,,,,,,,,,,,s039,001,2024-09-26_13h37.06.129,simplestop_skeleton,2022.2.2,59.71082955325917,
None,None,,,,,,,,,0,0,0,0,2,3,11,2,,,,,,,,,3363.218003936112,go,squareblack.png,right,0.05,,,,,,,,,,,,,,,0.001755647361278534,0.4895360395312309,,3365.720190651715,test,1,,,,,,,,,,3363.236689709127,3363.733487546444,3363.733487546444,3363.750027656555,3363.7834546267986,3364.2842307314277,3364.733227044344,3365.739582553506,right,1,0.4324498400092125,0.05,,,,,,,,,,,s039,001,2024-09-26_13h37.06.129,simplestop_skeleton,2022.2.2,59.71082955325917,
None,None,,,,,,,,,0,0,0,0,3,0,12,1,,,,,,,,,3365.720699235797,stop,circleblack.png,left,0.05,,,,,,,,,,,,,,,0.001732073724269867,0.4897845759987831,0.5398760437965393,3368.2233375757933,test,1,,,,,,,,,,3365.739582553506,3366.236192755401,3366.236192755401,3366.2530413866043,3366.286872431636,3366.7870252132416,3367.237498603761,3368.242067888379,None,0,,0.1,,,,,,,,,,,s039,001,2024-09-26_13h37.06.129,simplestop_skeleton,2022.2.2,59.71082955325917,
$currentCorrectResponse,$currentGoStim,,,,,,,,,0,0,0,0,3,1,13,0,,,,,,,,,3368.2237838357687,go,circleblack.png,left,0.1,,,,,,,,,,,,,,,0.0014447197318077087,0.4895457327365875,,3370.7256676778197,test,1,,,,,,,,,,3368.242067888379,3368.7392569109797,3368.7392569109797,3368.756035067141,3368.8396093696356,3369.3398400321603,3369.7387622520328,3370.744681432843,left,1,0.3718480169773102,0.1,,,,,,,,,,,s039,001,2024-09-26_13h37.06.129,simplestop_skeleton,2022.2.2,59.71082955325917,
None,None,,,,,,,,,0,0,0,0,3,2,14,2,,,,,,,,,3370.7261073440313,stop,squareblack.png,right,0.1,,,,,,,,,,,,,,,0.0016802921891212463,0.4897855669260025,0.5899011716246605,3373.228557497263,test,1,,,,,,,,,,3370.744681432843,3371.241850234568,3371.241850234568,3371.258439347148,3371.3419668227434,3371.8576673716307,3372.2438078969717,3373.2478528395295,right,1,0.26785314828157425,0.05,,,,,,,,,,,s039,001,2024-09-26_13h37.06.129,simplestop_skeleton,2022.2.2,59.71082955325917,
None,None,,,,,,,,,0,0,0,0,3,3,15,3,,,,,,,,,3373.228985927999,go,circleblack.png,left,0.05,,,,,,,,,,,,,,,0.0018012449145317078,0.4896165728569031,,3375.7312825098634,test,1,,,,,,,,,,3373.2478528395295,3373.744669318199,3373.744669318199,3373.761233083904,3373.7947287634015,3374.2954115718603,3374.7455593273044,3375.751378364861,left,1,0.2926790937781334,0.05,,,,,,,,,,,s039,001,2024-09-26_13h37.06.129,simplestop_skeleton,2022.2.2,59.71082955325917,
None,None,,,,,,,,,0,0,0,0,4,0,16,1,,,,,,,,,3375.7317661568522,go,squareblack.png,right,0.05,,,,,,,,,,,,,,,0.0025420114398002625,0.4891156330704689,,3378.234158463776,test,1,,,,,,,,,,3375.751378364861,3376.2474234178662,3376.2474234178662,3376.264157049358,3376.2973445877433,3376.796561487019,3377.2480971589684,3378.2533965855837,right,1,0.2781977131962776,0.05,,,,,,,,,,,s039,001,2024-09-26_13h37.06.129,simplestop_skeleton,2022.2.2,59.71082955325917,
None,None,,,,,,,,,0,0,0,0,4,1,17,2,,,,,,,,,3378.2345895543694,stop,circleblack.png,left,0.05,,,,,,,,,,,,,,,0.001795247197151184,0.4897047430276871,0.539830669760704,3380.7368516400456,test,1,,,,,,,,,,3378.2533965855837,3378.7503883838654,3378.7503883838654,3378.766862668097,3378.8003509044647,3379.300807930529,3379.751099064946,3380.7556012421846,None,0,,0.1,,,,,,,,,,,s039,001,2024-09-26_13h37.06.129,simplestop_skeleton,2022.2.2,59.71082955325917,
None,None,,,,,,,,,0,0,0,0,4,2,18,3,,,,,,,,,3380.7372775301337,go,circleblack.png,left,0.1,,,,,,,,,,,,,,,0.0013341158628463745,0.4899705648422241,,3383.239754870534,test,1,,,,,,,,,,3380.7556012421846,3381.2531340122223,3381.2531340122223,3381.2699423879385,3381.353144966066,3381.853618375957,3382.2525029033422,3383.259121634066,left,1,0.366700641810894,0.1,,,,,,,,,,,s039,001,2024-09-26_13h37.06.129,simplestop_skeleton,2022.2.2,59.71082955325917,
None,None,,,,,,,,,0,0,0,0,4,3,19,1,,,,,,,,,3383.2402068525553,stop,squareblack.png,right,0.1,,,,,,,,,,,,,,,0.0017591938376426697,0.49015556275844574,0.5897192358970642,3385.7425223365426,test,1,,,,,,,,,,3383.259121634066,3383.755848929286,3383.755848929286,3383.7723336666822,3383.8558634370565,3384.3563849180937,3384.7552658990026,3385.761315256357,None,0,,0.15,,,,,,,,,,,s039,001,2024-09-26_13h37.06.129,simplestop_skeleton,2022.2.2,59.71082955325917,
None,None,,,,,,,,,0,0,0,0,5,0,20,1,,,,,,,,,3385.7429515868425,go,squareblack.png,right,0.15,,,,,,,,,,,,,,,0.0013257414102554321,0.48954885452985764,,3388.245314449072,test,1,,,,,,,,,,3385.761315256357,3386.25838547945,3386.25838547945,3386.275094769895,3386.4085730835795,3386.9244442880154,3387.2580683529377,3388.264160402119,right,1,0.34669680893421173,0.15,,,,,,,,,,,s039,001,2024-09-26_13h37.06.129,simplestop_skeleton,2022.2.2,59.71082955325917,
None,None,,,,,,,,,0,0,0,0,5,1,21,1,,,,,,,,,3388.245754621923,go,squareblack.png,right,0.15,,,,,,,,,,,,,,,0.0013338848948478699,0.48989859968423843,,3390.7478948011994,test,1,,,,,,,,,,3388.264160402119,3388.7612265124917,3388.7612265124917,3388.7777512818575,3388.911405287683,3389.411920093,3389.7607864886522,3390.766795396805,right,1,0.44493546336889267,0.15,,,,,,,,,,,s039,001,2024-09-26_13h37.06.129,simplestop_skeleton,2022.2.2,59.71082955325917,
$currentCorrectResponse,$currentGoStim,,,,,,,,,0,0,0,0,5,2,22,0,,,,,,,,,3390.7483912929893,go,squareblack.png,right,0.15,,,,,,,,,,,,,,,0.0013158097863197327,0.48955612629652023,,3393.2507290542126,test,1,,,,,,,,,,3390.766795396805,3391.2640422061086,3391.2640422061086,3391.2807637378573,3391.414005562663,3391.914677530527,3392.263531446457,3393.2760895863175,right,1,0.38789453357458115,0.15,,,,,,,,,,,s039,001,2024-09-26_13h37.06.129,simplestop_skeleton,2022.2.2,59.71082955325917,
None,None,,,,,,,,,0,0,0,0,5,3,23,3,,,,,,,,,3393.251164533198,go,circleblack.png,left,0.15,,,,,,,,,,,,,,,0.008756637573242188,0.48964185267686844,,3395.7531521469355,test,1,,,,,,,,,,3393.2760895863175,3393.76677236706,3393.76677236706,3393.783410638571,3393.916570007801,3394.417415469885,3394.76636441797,3395.772406809032,left,1,0.3565360978245735,0.15,,,,,,,,,,,s039,001,2024-09-26_13h37.06.129,simplestop_skeleton,2022.2.2,59.71082955325917,
None,None,,,,,,,,,0,0,0,0,6,0,24,2,,,,,,,,,3395.753581792116,stop,squareblack.png,right,0.15,,,,,,,,,,,,,,,0.0016554296016693115,0.4901905879378319,0.6402242258191109,3398.2561299949884,test,1,,,,,,,,,,3395.772406809032,3396.269452609122,3396.269452609122,3396.2859328761697,3396.4195323958993,3396.9201420918107,3397.270332187414,3398.2752897441387,None,0,,0.2,,,,,,,,,,,s039,001,2024-09-26_13h37.06.129,simplestop_skeleton,2022.2.2,59.71082955325917,
None,None,,,,,,,,,0,0,0,0,6,1,25,1,,,,,,,,,3398.2565698325634,go,circleblack.png,left,0.2,,,,,,,,,,,,,,,0.0017635300755500793,0.4898935928940773,,3400.7588834539056,test,1,,,,,,,,,,3398.2752897441387,3398.772112004459,3398.772112004459,3398.7888428345323,3398.9724595472217,3399.471707947552,3399.772158317268,3400.776559509337,left,1,0.3084159269928932,0.2,,,,,,,,,,,s039,001,2024-09-26_13h37.06.129,simplestop_skeleton,2022.2.2,59.71082955325917,
$currentCorrectResponse,$currentGoStim,,,,,,,,,0,0,0,0,6,2,26,0,,,,,,,,,3400.7593923807144,go,circleblack.png,left,0.2,,,,,,,,,,,,,,,0.0012542083859443665,0.489704966545105,,3403.260929495096,test,1,,,,,,,,,,3400.776559509337,3401.275088943541,3401.275088943541,3401.291639365256,3401.4752433672547,3401.9910011664033,3402.2746605053544,3403.278446830809,left,1,0.37867993116378784,0.2,,,,,,,,,,,s039,001,2024-09-26_13h37.06.129,simplestop_skeleton,2022.2.2,59.71082955325917,
$currentCorrectResponse,$currentGoStim,,,,,,,,,0,0,0,0,6,3,27,0,,,,,,,,,3403.261378288269,go,squareblack.png,right,0.2,,,,,,,,,,,,,,,0.001627996563911438,0.4905984327197075,,3405.7645332589746,test,1,,,,,,,,,,3403.278446830809,3403.777780599892,3403.777780599892,3403.777780599892,3403.9782137721777,3404.493763834238,3404.777502089739,3405.7832957804203,right,1,0.3885873556137085,0.2,,,,,,,,,,,s039,001,2024-09-26_13h37.06.129,simplestop_skeleton,2022.2.2,59.71082955325917,
None,None,,,,,,,,,0,0,0,0,7,0,28,2,,,,,,,,,3405.764969341457,go,squareblack.png,right,0.2,,,,,,,,,,,,,,,0.001240074634552002,0.4896533116698265,,3408.267376229167,test,1,,,,,,,,,,3405.7832957804203,3406.2804503813386,3406.2804503813386,3406.297261096537,3406.4811220914125,3406.996629729867,3407.2802334800363,3408.2867765128613,right,1,0.38948042690753937,0.2,,,,,,,,,,,s039,001,2024-09-26_13h37.06.129,simplestop_skeleton,2022.2.2,59.71082955325917,
None,None,,,,,,,,,0,0,0,0,7,1,29,2,,,,,,,,,3408.267814606428,stop,circleblack.png,left,0.2,,,,,,,,,,,,,,,0.0019059479236602783,0.48975714296102524,0.6897048130631447,3410.770271539688,test,1,,,,,,,,,,3408.2867765128613,3408.783513441682,3408.783513441682,3408.7998381331563,3408.9834504127502,3409.4993298128247,3409.7828075513244,3410.7900038287044,left,1,0.3297385200858116,0.15,,,,,,,,,,,s039,001,2024-09-26_13h37.06.129,simplestop_skeleton,2022.2.2,59.71082955325917,
None,None,,,,,,,,,0,0,0,0,7,2,30,2,,,,,,,,,3410.77071107924,go,circleblack.png,left,0.15,,,,,,,,,,,,,,,0.0022213980555534363,0.48887618631124496,,3413.2724644467235,test,1,,,,,,,,,,3410.7900038287044,3411.286048308015,3411.286048308015,3411.3026239052415,3411.4361709058285,3411.9367113411427,3412.285536393523,3413.290986277163,left,1,0.3232990577816963,0.15,,,,,,,,,,,s039,001,2024-09-26_13h37.06.129,simplestop_skeleton,2022.2.2,59.71082955325917,
$currentCorrectResponse,$currentGoStim,,,,,,,,,0,0,0,0,7,3,31,0,,,,,,,,,3413.272895388305,stop,circleblack.png,left,0.15,,,,,,,,,,,,,,,0.0013060197234153748,0.4897592142224312,0.6403869539499283,3415.7758643999696,test,1,,,,,,,,,,3413.290986277163,3413.7887718603015,3413.7887718603015,3413.8053791299462,3413.939397893846,3414.4547283798456,3414.788374386728,3415.794933564961,left,1,0.4014059528708458,0.1,,,,,,,,,,,s039,001,2024-09-26_13h37.06.129,simplestop_skeleton,2022.2.2,59.71082955325917,
$currentCorrectResponse,$currentGoStim,,,,,,,,,0,0,0,0,8,0,32,0,,,,,,,,,3415.776292040944,go,circleblack.png,left,0.1,,,,,,,,,,,,,,,0.0014081746339797974,0.48959531635046005,,3418.2782371640205,test,1,,,,,,,,,,3415.794933564961,3416.2915927022696,3416.2915927022696,3416.308160200715,3416.391768269241,3416.892427034676,3417.2912532165647,3418.302640274167,left,1,0.418253593146801,0.1,,,,,,,,,,,s039,001,2024-09-26_13h37.06.129,simplestop_skeleton,2022.2.2,59.71082955325917,
None,None,,,,,,,,,0,0,0,0,8,1,33,3,,,,,,,,,3418.278665162623,go,squareblack.png,right,0.1,,,,,,,,,,,,,,,0.007641702890396118,0.4898810386657715,,3420.7809465378523,test,1,,,,,,,,,,3418.302640274167,3418.7944613173604,3418.7944613173604,3418.8110811188817,3418.894426032901,3419.3949465230107,3419.7939186021686,3420.7999724671245,right,1,0.4428121969103813,0.1,,,,,,,,,,,s039,001,2024-09-26_13h37.06.129,simplestop_skeleton,2022.2.2,59.71082955325917,
None,None,,,,,,,,,0,0,0,0,8,2,34,1,,,,,,,,,3420.7813779339194,go,squareblack.png,right,0.1,,,,,,,,,,,,,,,0.0012901127338409424,0.4899134337902069,,3423.28369846195,test,1,,,,,,,,,,3420.7999724671245,3421.297080181539,3421.297080181539,3421.313734449446,3421.397165633738,3421.897560685873,3422.296679146588,3423.301316663623,right,1,0.47597766667604446,0.1,,,,,,,,,,,s039,001,2024-09-26_13h37.06.129,simplestop_skeleton,2022.2.2,59.71082955325917,
None,None,,,,,,,,,0,0,0,0,8,3,35,3,,,,,,,,,3423.284143522382,stop,squareblack.png,right,0.1,,,,,,,,,,,,,,,0.0011818408966064453,0.4898561164736748,0.5900967717170715,3425.7866289690137,test,1,,,,,,,,,,3423.301316663623,3423.7999829873443,3423.7999829873443,3423.8166494593024,3423.899989657104,3424.400469340384,3424.8010179772973,3425.8060992136598,None,0,,0.15,,,,,,,,,,,s039,001,2024-09-26_13h37.06.129,simplestop_skeleton,2022.2.2,59.71082955325917,
None,None,,,,,,,,,0,0,0,0,9,0,36,3,,,,,,,,,3425.787064321339,stop,circleblack.png,left,0.15,,,,,,,,,,,,,,,0.0019387826323509216,0.4901275783777237,0.6400069370865822,3428.2894308790565,test,1,,,,,,,,,,3425.8060992136598,3426.3025217577815,3426.3025217577815,3426.319732837379,3426.4531753882766,3426.9532627165318,3427.303811699152,3428.3084851801395,None,0,,0.2,,,,,,,,,,,s039,001,2024-09-26_13h37.06.129,simplestop_skeleton,2022.2.2,59.71082955325917,
None,None,,,,,,,,,0,0,0,0,9,1,37,2,,,,,,,,,3428.2898744791746,stop,squareblack.png,right,0.2,,,,,,,,,,,,,,,0.0015488117933273315,0.4894837364554405,0.6900841072201729,3430.7921316102147,test,1,,,,,,,,,,3428.3084851801395,3428.805413208902,3428.805413208902,3428.8219934776425,3429.0056936070323,3429.5067907720804,3429.8050978034735,3430.81128757447,right,1,0.3429654836654663,0.15,,,,,,,,,,,s039,001,2024-09-26_13h37.06.129,simplestop_skeleton,2022.2.2,59.71082955325917,
None,None,,,,,,,,,0,0,0,0,9,2,38,3,,,,,,,,,3430.792559862137,stop,circleblack.png,left,0.15,,,,,,,,,,,,,,,0.0017357096076011658,0.48972947150468826,0.6398236155509949,3433.294830299914,test,1,,,,,,,,,,3430.81128757447,3431.308168873191,3431.308168873191,3431.32479660213,3431.4581871032715,3431.958788521588,3432.309063322842,3433.3142921850085,None,0,,0.2,,,,,,,,,,,s039,001,2024-09-26_13h37.06.129,simplestop_skeleton,2022.2.2,59.71082955325917,
$currentCorrectResponse,$currentGoStim,,,,,,,,,0,0,0,0,9,3,39,0,,,,,,,,,3433.2952578365803,go,squareblack.png,right,0.2,,,,,,,,,,,,,,,0.0017553865909576416,0.4898972436785698,,3435.797539062798,test,1,,,,,,,,,,3433.3142921850085,3433.8108868151903,3433.8108868151903,3433.8274876773357,3434.0113226100802,3434.5116847008467,3434.8112037703395,3435.816600687802,right,1,0.543521337211132,0.2,,,,,,,,,,,s039,001,2024-09-26_13h37.06.129,simplestop_skeleton,2022.2.2,59.71082955325917,
None,None,,,,,,,,,0,0,0,0,10,0,40,1,,,,,,,,,3435.797966994345,go,squareblack.png,right,0.2,,,,,,,,,,,,,,,0.0013751313090324402,0.4897104352712631,,3438.300431370735,test,1,,,,,,,,,,3435.816600687802,3436.3138644248247,3436.3138644248247,3436.330428637564,3436.513899356127,3437.013163946569,3437.3136994987726,3438.319196127355,right,1,0.4009690508246422,0.2,,,,,,,,,,,s039,001,2024-09-26_13h37.06.129,simplestop_skeleton,2022.2.2,59.71082955325917,
None,None,,,,,,,,,0,0,0,0,10,1,41,1,,,,,,,,,3438.30087582767,stop,squareblack.png,right,0.2,,,,,,,,,,,,,,,0.0012831315398216248,0.49010973423719406,0.6901573091745377,3440.8029799461365,test,1,,,,,,,,,,3438.319196127355,3438.8163249716163,3438.8163249716163,3438.833178140223,3439.016682818532,3439.5172640681267,3439.8174096494913,3440.822427906096,None,0,,0.25,,,,,,,,,,,s039,001,2024-09-26_13h37.06.129,simplestop_skeleton,2022.2.2,59.71082955325917,
None,None,,,,,,,,,0,0,0,0,10,2,42,2,,,,,,,,,3440.8034153729677,go,circleblack.png,left,0.25,,,,,,,,,,,,,,,0.001958131790161133,0.4898831248283386,,3443.3059690520167,test,1,,,,,,,,,,3440.822427906096,3441.31940305233,3441.31940305233,3441.3359315618873,3441.5694558918476,3442.0687031522393,3442.318820208311,3443.324805125594,left,1,0.3510555624961853,0.25,,,,,,,,,,,s039,001,2024-09-26_13h37.06.129,simplestop_skeleton,2022.2.2,59.71082955325917,
None,None,,,,,,,,,0,0,0,0,10,3,43,1,,,,,,,,,3443.3064098209143,go,circleblack.png,left,0.25,,,,,,,,,,,,,,,0.0014068856835365295,0.48966699838638306,,3445.8086020052433,test,1,,,,,,,,,,3443.324805125594,3443.822144471109,3443.822144471109,3443.8387941643596,3444.0722765401006,3444.5716412439942,3444.8216091915965,3445.827617570758,left,1,0.4275733605027199,0.25,,,,,,,,,,,s039,001,2024-09-26_13h37.06.129,simplestop_skeleton,2022.2.2,59.71082955325917,
None,None,,,,,,,,,0,0,0,0,11,0,44,1,,,,,,,,,3445.8090331181884,go,squareblack.png,right,0.25,,,,,,,,,,,,,,,0.001684814691543579,0.48984310030937195,,3448.3115099072456,test,1,,,,,,,,,,3445.827617570758,3446.3246132209897,3446.3246132209897,3446.3413794487715,3446.574928537011,3447.0748433321714,3447.3243438601494,3448.3303439468145,right,1,0.38432585448026657,0.25,,,,,,,,,,,s039,001,2024-09-26_13h37.06.129,simplestop_skeleton,2022.2.2,59.71082955325917,
None,None,,,,,,,,,0,0,0,0,11,1,45,2,,,,,,,,,3448.311950586736,go,squareblack.png,right,0.25,,,,,,,,,,,,,,,0.001261010766029358,0.48955046385526657,,3450.814108170569,test,1,,,,,,,,,,3448.3303439468145,3448.827743574977,3448.827743574977,3448.844162352383,3449.077959358692,3449.576803572476,3449.8272059485316,3450.8333470895886,right,1,0.4552304148674011,0.25,,,,,,,,,,,s039,001,2024-09-26_13h37.06.129,simplestop_skeleton,2022.2.2,59.71082955325917,
None,None,,,,,,,,,0,0,0,0,11,2,46,3,,,,,,,,,3450.8145319521427,go,circleblack.png,left,0.25,,,,,,,,,,,,,,,0.0018481612205505371,0.48996130377054214,,3453.31690351665,test,1,,,,,,,,,,3450.8333470895886,3451.3302109390497,3451.3302109390497,3451.346996560693,3451.580440863967,3452.0796157494187,3452.3297691866755,3453.3358307257295,left,1,0.4409928098320961,0.25,,,,,,,,,,,s039,001,2024-09-26_13h37.06.129,simplestop_skeleton,2022.2.2,59.71082955325917,
$currentCorrectResponse,$currentGoStim,,,,,,,,,0,0,0,0,11,3,47,0,,,,,,,,,3453.317339681089,go,circleblack.png,left,0.25,,,,,,,,,,,,,,,0.0014921501278877258,0.489575520157814,,3455.819666132331,test,1,,,,,,,,,,3453.3358307257295,3453.83294197917,3453.83294197917,3453.8499111309648,3454.083095267415,3454.5837532803416,3454.8325384259224,3455.8360858932137,left,1,0.47811489552259445,0.25,,,,,,,,,,,s039,001,2024-09-26_13h37.06.129,simplestop_skeleton,2022.2.2,59.71082955325917,
,,,,,,,,,,0,0,0,0,,,,,,"[{'fileName': 'squareblack.png', 'correct_response': 'right', 'condition': 'go'}, {'fileName': 'circleblack.png', 'correct_response': 'left', 'condition': 'go'}, {'fileName': 'squareblack.png', 'correct_response': 'right', 'condition': 'stop'}, {'fileName': 'circleblack.png', 'correct_response': 'left', 'condition': 'stop'}, {'fileName': 'squareblack.png', 'correct_response': 'right', 'condition': 'go'}, {'fileName': 'circleblack.png', 'correct_response': 'left', 'condition': 'stop'}, {'fileName': 'squareblack.png', 'correct_response': 'right', 'condition': 'stop'}, {'fileName': 'circleblack.png', 'correct_response': 'left', 'condition': 'go'}, {'fileName': 'squareblack.png', 'correct_response': 'right', 'condition': 'go'}, {'fileName': 'circleblack.png', 'correct_response': 'left', 'condition': 'go'}, {'fileName': 'circleblack.png', 'correct_response': 'left', 'condition': 'go'}, {'fileName': 'squareblack.png', 'correct_response': 'right', 'condition': 'go'}, {'fileName': 'squareblack.png', 'correct_response': 'right', 'condition': 'go'}, {'fileName': 'squareblack.png', 'correct_response': 'right', 'condition': 'go'}, {'fileName': 'circleblack.png', 'correct_response': 'left', 'condition': 'stop'}, {'fileName': 'squareblack.png', 'correct_response': 'right', 'condition': 'go'}, {'fileName': 'circleblack.png', 'correct_response': 'left', 'condition': 'go'}, {'fileName': 'circleblack.png', 'correct_response': 'left', 'condition': 'go'}, {'fileName': 'squareblack.png', 'correct_response': 'right', 'condition': 'go'}, {'fileName': 'circleblack.png', 'correct_response': 'left', 'condition': 'stop'}, {'fileName': 'circleblack.png', 'correct_response': 'left', 'condition': 'go'}, {'fileName': 'squareblack.png', 'correct_response': 'right', 'condition': 'stop'}, {'fileName': 'circleblack.png', 'correct_response': 'left', 'condition': 'go'}, {'fileName': 'squareblack.png', 'correct_response': 'right', 'condition': 'stop'}, {'fileName': 'circleblack.png', 'correct_response': 'left', 'condition': 'go'}, {'fileName': 'circleblack.png', 'correct_response': 'left', 'condition': 'stop'}, {'fileName': 'circleblack.png', 'correct_response': 'left', 'condition': 'stop'}, {'fileName': 'squareblack.png', 'correct_response': 'right', 'condition': 'go'}, {'fileName': 'squareblack.png', 'correct_response': 'right', 'condition': 'stop'}, {'fileName': 'squareblack.png', 'correct_response': 'right', 'condition': 'go'}, {'fileName': 'circleblack.png', 'correct_response': 'left', 'condition': 'go'}, {'fileName': 'squareblack.png', 'correct_response': 'right', 'condition': 'stop'}, {'fileName': 'circleblack.png', 'correct_response': 'left', 'condition': 'go'}, {'fileName': 'circleblack.png', 'correct_response': 'left', 'condition': 'go'}, {'fileName': 'squareblack.png', 'correct_response': 'right', 'condition': 'go'}, {'fileName': 'squareblack.png', 'correct_response': 'right', 'condition': 'go'}, {'fileName': 'circleblack.png', 'correct_response': 'left', 'condition': 'stop'}, {'fileName': 'squareblack.png', 'correct_response': 'right', 'condition': 'go'}, {'fileName': 'circleblack.png', 'correct_response': 'left', 'condition': 'go'}, {'fileName': 'squareblack.png', 'correct_response': 'right', 'condition': 'stop'}, {'fileName': 'circleblack.png', 'correct_response': 'left', 'condition': 'go'}, {'fileName': 'squareblack.png', 'correct_response': 'right', 'condition': 'go'}, {'fileName': 'circleblack.png', 'correct_response': 'left', 'condition': 'go'}, {'fileName': 'circleblack.png', 'correct_response': 'left', 'condition': 'stop'}, {'fileName': 'squareblack.png', 'correct_response': 'right', 'condition': 'stop'}, {'fileName': 'squareblack.png', 'correct_response': 'right', 'condition': 'go'}, {'fileName': 'circleblack.png', 'correct_response': 'left', 'condition': 'go'}, {'fileName': 'squareblack.png', 'correct_response': 'right', 'condition': 'go'}]",,,,,,,,,,,,,,,,,,,,,,,,,,,,,,,,,,,,,,,,,,,,,,,,,,,,,3455.8360858932137,3455.8360858932137,return,18.99025423079729,,,,,,,s039,001,2024-09-26_13h37.06.129,simplestop_skeleton,2022.2.2,59.71082955325917,
$currentCorrectResponse,$currentGoStim,,,,,,,,,1,0,1,0,0,0,0,0,,,,,,,,,3474.857013233006,go,squareblack.png,right,0.25,,,,,,,,,,,,,,,0.0022132769227027893,0.4890555143356323,,3477.360640734434,test,2,,,,,,,,,,3474.877141110599,3475.3734483867884,3475.3734483867884,3475.3902590721846,3475.6236407086253,3476.1244842782617,3476.3747420832515,3477.385269522667,right,1,0.3212021142244339,0.25,,,,,,,,,,,s039,001,2024-09-26_13h37.06.129,simplestop_skeleton,2022.2.2,59.71082955325917,
None,None,,,,,,,,,1,0,1,0,0,1,1,2,,,,,,,,,3477.361169539392,go,circleblack.png,left,0.25,,,,,,,,,,,,,,,0.007356695830821991,0.48953722417354584,,3479.862642735243,test,2,,,,,,,,,,3477.385269522667,3477.8760893791914,3477.8760893791914,3477.892900325358,3478.1265842169523,3478.6422574967146,3478.8758084848523,3479.8818919584155,left,1,0.3546854332089424,0.25,,,,,,,,,,,s039,001,2024-09-26_13h37.06.129,simplestop_skeleton,2022.2.2,59.71082955325917,
None,None,,,,,,,,,1,0,1,0,0,2,2,2,,,,,,,,,3479.863085538149,stop,squareblack.png,right,0.25,,,,,,,,,,,,,,,0.0016985982656478882,0.4899490028619766,0.7402538433670998,3482.3657253682613,test,2,,,,,,,,,,3479.8818919584155,3480.3789881765842,3480.3789881765842,3480.3957011550665,3480.6291485503316,3481.1296619921923,3481.378429926932,3482.384959630668,right,1,0.3502737656235695,0.2,,,,,,,,,,,s039,001,2024-09-26_13h37.06.129,simplestop_skeleton,2022.2.2,59.71082955325917,
None,None,,,,,,,,,1,0,1,0,0,3,3,1,,,,,,,,,3482.3661698773503,stop,circleblack.png,left,0.2,,,,,,,,,,,,,,,0.001847006380558014,0.48961637169122696,0.6900242194533348,3484.868628837168,test,2,,,,,,,,,,3482.384959630668,3482.881551332772,3482.881551332772,3482.8983982503414,3483.081881709397,3483.5977986603975,3483.8811867311597,3484.8879358917475,left,1,0.31440290808677673,0.15,,,,,,,,,,,s039,001,2024-09-26_13h37.06.129,simplestop_skeleton,2022.2.2,59.71082955325917,
None,None,,,,,,,,,1,0,1,0,1,0,4,1,,,,,,,,,3484.8690528571606,go,squareblack.png,right,0.15,,,,,,,,,,,,,,,0.001726992428302765,0.48949775099754333,,3487.371143490076,test,2,,,,,,,,,,3484.8879358917475,3485.3846504613757,3485.3846504613757,3485.401142321527,3485.5347138792276,3486.0337811112404,3486.3840822055936,3487.390289403498,right,1,0.3443492203950882,0.15,,,,,,,,,,,s039,001,2024-09-26_13h37.06.129,simplestop_skeleton,2022.2.2,59.71082955325917,
None,None,,,,,,,,,1,0,1,0,1,1,5,3,,,,,,,,,3487.3715861439705,stop,circleblack.png,left,0.15,,,,,,,,,,,,,,,0.0017597600817680359,0.48983076959848404,0.6400240212678909,3489.8738378360868,test,2,,,,,,,,,,3487.390289403498,3487.887265242636,3487.887265242636,3487.9038650244474,3488.037411287427,3488.5377684235573,3488.8884260058403,3489.893014110625,None,0,,0.2,,,,,,,,,,,s039,001,2024-09-26_13h37.06.129,simplestop_skeleton,2022.2.2,59.71082955325917,
$currentCorrectResponse,$currentGoStim,,,,,,,,,1,0,1,0,1,2,6,0,,,,,,,,,3489.8742880299687,stop,squareblack.png,right,0.2,,,,,,,,,,,,,,,0.0016140714287757874,0.4898553788661957,0.6900267899036407,3492.3767541125417,test,2,,,,,,,,,,3489.893014110625,3490.3898416161537,3490.3898416161537,3490.4066284298897,3490.590300105512,3491.105902761221,3491.389571301639,3492.3960341513157,right,1,0.3263094872236252,0.15,,,,,,,,,,,s039,001,2024-09-26_13h37.06.129,simplestop_skeleton,2022.2.2,59.71082955325917,
None,None,,,,,,,,,1,0,1,0,1,3,7,3,,,,,,,,,3492.377205580473,go,circleblack.png,left,0.15,,,,,,,,,,,,,,,0.001890227198600769,0.48953044414520264,,3494.8795186281204,test,2,,,,,,,,,,3492.3960341513157,3492.8929049372673,3492.8929049372673,3492.909319087863,3493.042885825038,3493.542089648545,3493.892200253904,3494.8986377492547,left,1,0.35145852714776993,0.15,,,,,,,,,,,s039,001,2024-09-26_13h37.06.129,simplestop_skeleton,2022.2.2,59.71082955325917,
None,None,,,,,,,,,1,0,1,0,2,0,8,3,,,,,,,,,3494.8799441456795,go,squareblack.png,right,0.15,,,,,,,,,,,,,,,0.001722574234008789,0.48962583392858505,,3497.38197208941,test,2,,,,,,,,,,3494.8986377492547,3495.395362995565,3495.395362995565,3495.41219945997,3495.545510560274,3496.04624479264,3496.39500336349,3497.4013871774077,right,1,0.37652821093797684,0.15,,,,,,,,,,,s039,001,2024-09-26_13h37.06.129,simplestop_skeleton,2022.2.2,59.71082955325917,
$currentCorrectResponse,$currentGoStim,,,,,,,,,1,0,1,0,2,1,9,0,,,,,,,,,3497.3824056833982,go,circleblack.png,left,0.15,,,,,,,,,,,,,,,0.0017511695623397827,0.48995231837034225,,3499.8847674950957,test,2,,,,,,,,,,3497.4013871774077,3497.8982101604342,3497.8982101604342,3497.914750471711,3498.048429965973,3498.548963524401,3498.897703446448,3499.904006548226,right,0,0.38453301787376404,0.15,,,,,,,,,,,s039,001,2024-09-26_13h37.06.129,simplestop_skeleton,2022.2.2,59.71082955325917,
None,None,,,,,,,,,1,0,1,0,2,2,10,2,,,,,,,,,3499.8851931393147,go,circleblack.png,left,0.15,,,,,,,,,,,,,,,0.0012557730078697205,0.4896792247891426,,3502.3877059072256,test,2,,,,,,,,,,3499.904006548226,3500.400978349149,3500.400978349149,3500.4177470952272,3500.551163330674,3501.066924698651,3501.400644823909,3502.407015249133,left,1,0.34085455536842346,0.15,,,,,,,,,,,s039,001,2024-09-26_13h37.06.129,simplestop_skeleton,2022.2.2,59.71082955325917,
None,None,,,,,,,,,1,0,1,0,2,3,11,3,,,,,,,,,3502.3881348073483,go,squareblack.png,right,0.15,,,,,,,,,,,,,,,0.0016945824027061462,0.4895889088511467,,3504.890164785087,test,2,,,,,,,,,,3502.407015249133,3502.9035868644714,3502.9035868644714,3502.9203735888004,3503.053925268352,3503.5530544891953,3503.9032464399934,3504.9088960140944,right,1,0.3444613963365555,0.15,,,,,,,,,,,s039,001,2024-09-26_13h37.06.129,simplestop_skeleton,2022.2.2,59.71082955325917,
$currentCorrectResponse,$currentGoStim,,,,,,,,,1,0,1,0,3,0,12,0,,,,,,,,,3504.890589289367,go,squareblack.png,right,0.15,,,,,,,,,,,,,,,0.0011840909719467163,0.4898456260561943,,3507.3930223956704,test,2,,,,,,,,,,3504.9088960140944,3505.406460314989,3505.406460314989,3505.4229747727513,3505.556543081999,3506.0572008267045,3506.40596704185,3507.4119355902076,right,1,0.4135863110423088,0.15,,,,,,,,,,,s039,001,2024-09-26_13h37.06.129,simplestop_skeleton,2022.2.2,59.71082955325917,
None,None,,,,,,,,,1,0,1,0,3,1,13,1,,,,,,,,,3507.3935171216726,go,squareblack.png,right,0.15,,,,,,,,,,,,,,,0.0011834800243377686,0.4897652268409729,,3509.8958420678973,test,2,,,,,,,,,,3507.4119355902076,3507.909165017307,3507.909165017307,3507.9257730543613,3508.05934368819,3508.559972509742,3508.9088404104114,3509.9151763021946,right,1,0.40848103910684586,0.15,,,,,,,,,,,s039,001,2024-09-26_13h37.06.129,simplestop_skeleton,2022.2.2,59.71082955325917,
None,None,,,,,,,,,1,0,1,0,3,2,14,2,,,,,,,,,3509.896270483732,stop,circleblack.png,left,0.15,,,,,,,,,,,,,,,0.0017374008893966675,0.48985060304403305,0.6399457305669785,3512.3985706046224,test,2,,,,,,,,,,3509.9151763021946,3510.411843754351,3510.411843754351,3510.42874032259,3510.5621218532324,3511.0625690296292,3511.413029268384,3512.4182206094265,None,0,,0.2,,,,,,,,,,,s039,001,2024-09-26_13h37.06.129,simplestop_skeleton,2022.2.2,59.71082955325917,
$currentCorrectResponse,$currentGoStim,,,,,,,,,1,0,1,0,3,3,15,0,,,,,,,,,3512.3990024402738,go,squareblack.png,right,0.2,,,,,,,,,,,,,,,0.0016541406512260437,0.4900127500295639,,3514.9015368446708,test,2,,,,,,,,,,3512.4182206094265,3512.9146005809307,3512.9146005809307,3512.9315817058086,3513.115044698119,3513.6307890713215,3513.914317600429,3514.9208045601845,right,1,0.39006687700748444,0.2,,,,,,,,,,,s039,001,2024-09-26_13h37.06.129,simplestop_skeleton,2022.2.2,59.71082955325917,
None,None,,,,,,,,,1,0,1,0,4,0,16,1,,,,,,,,,3514.901979736984,go,circleblack.png,left,0.2,,,,,,,,,,,,,,,0.0017394348978996277,0.48981835693120956,,3517.404114164412,test,2,,,,,,,,,,3514.9208045601845,3515.4173904135823,3515.4173904135823,3515.4342351928353,3515.6177410185337,3516.1182049661875,3516.4170558303595,3517.4230340346694,left,1,0.43842799216508865,0.2,,,,,,,,,,,s039,001,2024-09-26_13h37.06.129,simplestop_skeleton,2022.2.2,59.71082955325917,
None,None,,,,,,,,,1,0,1,0,4,1,17,2,,,,,,,,,3517.4045443832874,go,circleblack.png,left,0.2,,,,,,,,,,,,,,,0.0012785643339157104,0.4898766726255417,,3519.9070028737187,test,2,,,,,,,,,,3517.4230340346694,3517.9201180636883,3517.9201180636883,3517.9369190111756,3518.1203892827034,3518.6209851652384,3518.919930174947,3519.925950810313,left,1,0.4240160658955574,0.2,,,,,,,,,,,s039,001,2024-09-26_13h37.06.129,simplestop_skeleton,2022.2.2,59.71082955325917,
None,None,,,,,,,,,1,0,1,0,4,2,18,2,,,,,,,,,3519.907438635826,go,squareblack.png,right,0.2,,,,,,,,,,,,,,,0.0017206370830535889,0.48981059342622757,,3522.4099021479487,test,2,,,,,,,,,,3519.925950810313,3520.423014834523,3520.423014834523,3520.439552977681,3520.6232688203454,3521.1237665191293,3521.4226233139634,3522.429027289152,right,1,0.46457288414239883,0.2,,,,,,,,,,,s039,001,2024-09-26_13h37.06.129,simplestop_skeleton,2022.2.2,59.71082955325917,
None,None,,,,,,,,,1,0,1,0,4,3,19,3,,,,,,,,,3522.4103325009346,stop,circleblack.png,left,0.2,,,,,,,,,,,,,,,0.00172492116689682,0.48952147364616394,0.6898515820503235,3524.9126979634166,test,2,,,,,,,,,,3522.429027289152,3522.925838544965,3522.925838544965,3522.9423997327685,3523.1258879825473,3523.6250996366143,3523.925507195294,3524.9315836802125,left,1,0.34442800283432007,0.15,,,,,,,,,,,s039,001,2024-09-26_13h37.06.129,simplestop_skeleton,2022.2.2,59.71082955325917,
$currentCorrectResponse,$currentGoStim,,,,,,,,,1,0,1,0,5,0,20,0,,,,,,,,,3524.913142852485,go,circleblack.png,left,0.15,,,,,,,,,,,,,,,0.0014639049768447876,0.48957016319036484,,3527.415325962007,test,2,,,,,,,,,,3524.9315836802125,3525.428532741964,3525.428532741964,3525.4450627863407,3525.5788799598813,3526.07782740891,3526.428196385503,3527.434372380376,left,1,0.3405531346797943,0.15,,,,,,,,,,,s039,001,2024-09-26_13h37.06.129,simplestop_skeleton,2022.2.2,59.71082955325917,
None,None,,,,,,,,,1,0,1,0,5,1,21,1,,,,,,,,,3527.4157696440816,stop,squareblack.png,right,0.15,,,,,,,,,,,,,,,0.0016255974769592285,0.489545501768589,0.6398564055562019,3529.9172259643674,test,2,,,,,,,,,,3527.434372380376,3527.9313068017364,3527.9313068017364,3527.94797898829,3528.0814334601164,3528.581945307553,3528.9324401393533,3529.9350179359317,None,0,,0.2,,,,,,,,,,,s039,001,2024-09-26_13h37.06.129,simplestop_skeleton,2022.2.2,59.71082955325917,
$currentCorrectResponse,$currentGoStim,,,,,,,,,1,0,1,0,5,2,22,0,,,,,,,,,3529.9176732823253,go,circleblack.png,left,0.2,,,,,,,,,,,,,,,0.0017159134149551392,0.48891232907772064,,3532.420767650008,test,2,,,,,,,,,,3529.9350179359317,3530.4327120557427,3530.4327120557427,3530.44933193177,3530.634664438665,3531.134976938367,3531.4352318271995,3532.439853899181,left,1,0.3134439140558243,0.2,,,,,,,,,,,s039,001,2024-09-26_13h37.06.129,simplestop_skeleton,2022.2.2,59.71082955325917,
None,None,,,,,,,,,1,0,1,0,5,3,23,1,,,,,,,,,3532.421205997467,stop,squareblack.png,right,0.2,,,,,,,,,,,,,,,0.001622028648853302,0.4897913783788681,0.6902278140187263,3534.9234522357583,test,2,,,,,,,,,,3532.439853899181,3532.9367917329073,3532.9367917329073,3532.9533640518785,3533.137095630169,3533.6363088712096,3533.9366065487266,3534.942769445479,right,1,0.34684009850025177,0.15,,,,,,,,,,,s039,001,2024-09-26_13h37.06.129,simplestop_skeleton,2022.2.2,59.71082955325917,
None,None,,,,,,,,,1,0,1,0,6,0,24,3,,,,,,,,,3534.9238757267594,go,circleblack.png,left,0.15,,,,,,,,,,,,,,,0.0018044710159301758,0.4898378998041153,,3537.4263748154044,test,2,,,,,,,,,,3534.942769445479,3535.439509227872,3535.439509227872,3535.4563529863954,3535.589633449912,3536.0888757556677,3536.4391791522503,3537.445397026837,left,1,0.3556959927082062,0.15,,,,,,,,,,,s039,001,2024-09-26_13h37.06.129,simplestop_skeleton,2022.2.2,59.71082955325917,
$currentCorrectResponse,$currentGoStim,,,,,,,,,1,0,1,0,6,1,25,0,,,,,,,,,3537.4267986044288,stop,circleblack.png,left,0.15,,,,,,,,,,,,,,,0.0014530345797538757,0.48947741836309433,0.639774352312088,3539.9292369112372,test,2,,,,,,,,,,3537.445397026837,3537.94231852144,3537.94231852144,3537.9591681733727,3538.092606469989,3538.592970840633,3538.9438579306006,3539.9478359743953,None,0,,0.2,,,,,,,,,,,s039,001,2024-09-26_13h37.06.129,simplestop_skeleton,2022.2.2,59.71082955325917,
None,None,,,,,,,,,1,0,1,0,6,2,26,2,,,,,,,,,3539.9296740815043,stop,circleblack.png,left,0.2,,,,,,,,,,,,,,,0.0013197660446166992,0.48966527730226517,0.6899763941764832,3542.4318255633116,test,2,,,,,,,,,,3539.9478359743953,3540.4453014060855,3540.4453014060855,3540.4619458019733,3540.6456681266427,3541.161168411374,3541.4447585120797,3542.456220932305,left,1,0.38438212871551514,0.15,,,,,,,,,,,s039,001,2024-09-26_13h37.06.129,simplestop_skeleton,2022.2.2,59.71082955325917,
None,None,,,,,,,,,1,0,1,0,6,3,27,3,,,,,,,,,3542.4322589859366,go,squareblack.png,right,0.15,,,,,,,,,,,,,,,0.007625408470630646,0.48984260857105255,,3544.9345766827464,test,2,,,,,,,,,,3542.456220932305,3542.9480046331882,3542.9480046331882,3542.964458398521,3543.0982477217913,3543.5986614599824,3543.9475043565035,3544.95238468796,right,1,0.32451242953538895,0.15,,,,,,,,,,,s039,001,2024-09-26_13h37.06.129,simplestop_skeleton,2022.2.2,59.71082955325917,
None,None,,,,,,,,,1,0,1,0,7,0,28,2,,,,,,,,,3544.93501970917,stop,squareblack.png,right,0.15,,,,,,,,,,,,,,,0.0012382715940475464,0.489723838865757,0.6400955691933632,3547.437349230051,test,2,,,,,,,,,,3544.95238468796,3545.4505850076675,3545.4505850076675,3545.4674452990294,3545.6007771342993,3546.101289629936,3546.4519030824304,3547.45480145514,None,0,,0.2,,,,,,,,,,,s039,001,2024-09-26_13h37.06.129,simplestop_skeleton,2022.2.2,59.71082955325917,
$currentCorrectResponse,$currentGoStim,,,,,,,,,1,0,1,0,7,1,29,0,,,,,,,,,3547.4377781301737,go,squareblack.png,right,0.2,,,,,,,,,,,,,,,0.0011850520968437195,0.48987481743097305,,3549.9400875866413,test,2,,,,,,,,,,3547.45480145514,3547.953234523535,3547.953234523535,3547.9700290337205,3548.153529815376,3548.6541119217873,3548.953258037567,3549.9651515707374,right,1,0.5186817273497581,0.2,,,,,,,,,,,s039,001,2024-09-26_13h37.06.129,simplestop_skeleton,2022.2.2,59.71082955325917,
$currentCorrectResponse,$currentGoStim,,,,,,,,,1,0,1,0,7,2,30,0,,,,,,,,,3549.940524764359,go,circleblack.png,left,0.2,,,,,,,,,,,,,,,0.008375056087970734,0.4899562895298004,,3552.442950628698,test,2,,,,,,,,,,3549.9651515707374,3550.4562929347157,3550.4562929347157,3550.4728006124496,3550.65638191998,3551.1557224467397,3551.4558234363794,3552.4621874317527,left,1,0.40082501620054245,0.2,,,,,,,,,,,s039,001,2024-09-26_13h37.06.129,simplestop_skeleton,2022.2.2,59.71082955325917,
None,None,,,,,,,,,1,0,1,0,7,3,31,1,,,,,,,,,3552.443432331085,stop,squareblack.png,right,0.2,,,,,,,,,,,,,,,0.0015884190797805786,0.4896519109606743,0.6897759586572647,3554.9455611631274,test,2,,,,,,,,,,3552.4621874317527,3552.9588293656707,3552.9588293656707,3552.9756726250052,3553.159297376871,3553.6597642451525,3553.960115969181,3554.964829683304,None,0,,0.25,,,,,,,,,,,s039,001,2024-09-26_13h37.06.129,simplestop_skeleton,2022.2.2,59.71082955325917,
None,None,,,,,,,,,1,0,1,0,8,0,32,1,,,,,,,,,3554.9459862187505,go,circleblack.png,left,0.25,,,,,,,,,,,,,,,0.0017658621072769165,0.48983994871377945,,3557.4485136941075,test,2,,,,,,,,,,3554.964829683304,3555.461544804275,3555.461544804275,3555.47821200639,3555.711902409792,3556.211487978697,3556.4614761695266,3557.467133358121,left,1,0.3437858670949936,0.25,,,,,,,,,,,s039,001,2024-09-26_13h37.06.129,simplestop_skeleton,2022.2.2,59.71082955325917,
None,None,,,,,,,,,1,0,1,0,8,1,33,3,,,,,,,,,3557.448941268027,go,circleblack.png,left,0.25,,,,,,,,,,,,,,,0.001236937940120697,0.4898088797926903,,3559.9511307030916,test,2,,,,,,,,,,3557.467133358121,3557.9643204659224,3557.9643204659224,3557.980940543115,3558.215208940208,3558.7304326742887,3558.964111804962,3559.970342338085,left,1,0.45208530873060226,0.25,,,,,,,,,,,s039,001,2024-09-26_13h37.06.129,simplestop_skeleton,2022.2.2,59.71082955325917,
$currentCorrectResponse,$currentGoStim,,,,,,,,,1,0,1,0,8,2,34,0,,,,,,,,,3559.9515702575445,go,squareblack.png,right,0.25,,,,,,,,,,,,,,,0.0016160160303115845,0.4898708611726761,,3562.4539585784078,test,2,,,,,,,,,,3559.970342338085,3560.467157125473,3560.467157125473,3560.4838342368603,3560.7172599062324,3561.216750063002,3561.4668383672833,3562.472702719271,right,1,0.40820395946502686,0.25,,,,,,,,,,,s039,001,2024-09-26_13h37.06.129,simplestop_skeleton,2022.2.2,59.71082955325917,
None,None,,,,,,,,,1,0,1,0,8,3,35,3,,,,,,,,,3562.4543987587094,go,squareblack.png,right,0.25,,,,,,,,,,,,,,,0.0012929365038871765,0.4895309656858444,,3564.9566720426083,test,2,,,,,,,,,,3562.472702719271,3562.9701412022114,3562.9701412022114,3562.986500032246,3563.2205572128296,3563.7208112701774,3563.9695555642247,3564.9757173880935,right,1,0.44981347024440765,0.25,,,,,,,,,,,s039,001,2024-09-26_13h37.06.129,simplestop_skeleton,2022.2.2,59.71082955325917,
None,None,,,,,,,,,1,0,1,0,9,0,36,1,,,,,,,,,3564.9571101143956,stop,circleblack.png,left,0.25,,,,,,,,,,,,,,,0.0017965510487556458,0.489859864115715,0.7401357218623161,3567.459389090538,test,2,,,,,,,,,,3564.9757173880935,3565.472720272839,3565.472720272839,3565.4894220903516,3565.7229141816497,3566.2387880161405,3566.472431384027,3567.4788031876087,left,1,0.3885997086763382,0.2,,,,,,,,,,,s039,001,2024-09-26_13h37.06.129,simplestop_skeleton,2022.2.2,59.71082955325917,
None,None,,,,,,,,,1,0,1,0,9,1,37,2,,,,,,,,,3567.459814310074,go,squareblack.png,right,0.2,,,,,,,,,,,,,,,0.001794956624507904,0.48982252925634384,,3569.9620015993714,test,2,,,,,,,,,,3567.4788031876087,3567.9754841029644,3567.9754841029644,3567.9923641979694,3568.17581384629,3568.691434428096,3568.975139737129,3569.9813160821795,right,1,0.3627094402909279,0.2,,,,,,,,,,,s039,001,2024-09-26_13h37.06.129,simplestop_skeleton,2022.2.2,59.71082955325917,
None,None,,,,,,,,,1,0,1,0,9,2,38,1,,,,,,,,,3569.962442278862,go,circleblack.png,left,0.2,,,,,,,,,,,,,,,0.001703612506389618,0.4898409992456436,,3572.464891202748,test,2,,,,,,,,,,3569.9813160821795,3570.4783477932215,3570.4783477932215,3570.494969509542,3570.6786563396454,3571.1942381113768,3571.4778751581907,3572.484450213611,left,1,0.35785938799381256,0.2,,,,,,,,,,,s039,001,2024-09-26_13h37.06.129,simplestop_skeleton,2022.2.2,59.71082955325917,
None,None,,,,,,,,,1,0,1,0,9,3,39,2,,,,,,,,,3572.465313754976,stop,squareblack.png,right,0.2,,,,,,,,,,,,,,,0.0017914250493049622,0.48965098708868027,0.6900177523493767,3574.967777684331,test,2,,,,,,,,,,3572.484450213611,3572.980904504657,3572.980904504657,3572.9975063875318,3573.181030996144,3573.6819112971425,3573.982182428241,3574.9869807735085,None,0,,0.25,,,,,,,,,,,s039,001,2024-09-26_13h37.06.129,simplestop_skeleton,2022.2.2,59.71082955325917,
None,None,,,,,,,,,1,0,1,0,10,0,40,2,,,,,,,,,3574.968209169805,go,circleblack.png,left,0.25,,,,,,,,,,,,,,,0.001755453646183014,0.4896767660975456,,3577.47085968405,test,2,,,,,,,,,,3574.9869807735085,3575.483908109367,3575.483908109367,3575.50075814873,3575.734182626009,3576.250107780099,3576.483475409448,3577.490198224783,left,1,0.32315754890441895,0.25,,,,,,,,,,,s039,001,2024-09-26_13h37.06.129,simplestop_skeleton,2022.2.2,59.71082955325917,
None,None,,,,,,,,,1,0,1,0,10,1,41,3,,,,,,,,,3577.471294783056,go,squareblack.png,right,0.25,,,,,,,,,,,,,,,0.0018444806337356567,0.4892161265015602,,3579.9731513932347,test,2,,,,,,,,,,3577.490198224783,3577.986725524068,3577.986725524068,3578.0032967031,3578.2371412441134,3578.7374769598246,3578.9863540902734,3579.9925094917417,right,1,0.49066633731126785,0.25,,,,,,,,,,,s039,001,2024-09-26_13h37.06.129,simplestop_skeleton,2022.2.2,59.71082955325917,
None,None,,,,,,,,,1,0,1,0,10,2,42,2,,,,,,,,,3579.973581917584,go,circleblack.png,left,0.25,,,,,,,,,,,,,,,0.0019057989120483398,0.4897003844380379,,3582.476004526019,test,2,,,,,,,,,,3579.9925094917417,3580.489245042205,3580.489245042205,3580.5060094743967,3580.7394087165594,3581.2402459532022,3581.4889213740826,3582.49505790323,left,1,0.4476138800382614,0.25,,,,,,,,,,,s039,001,2024-09-26_13h37.06.129,simplestop_skeleton,2022.2.2,59.71082955325917,
$currentCorrectResponse,$currentGoStim,,,,,,,,,1,0,1,0,10,3,43,0,,,,,,,,,3582.476446710527,stop,circleblack.png,left,0.25,,,,,,,,,,,,,,,0.0013728514313697815,0.48965907096862793,0.7396621033549309,3584.9786281362176,test,2,,,,,,,,,,3582.49505790323,3582.9920872598886,3582.9920872598886,3583.0086464881897,3583.242304906249,3583.742827296257,3583.9929207488894,3584.9978765025735,None,0,,0.3,,,,,,,,,,,s039,001,2024-09-26_13h37.06.129,simplestop_skeleton,2022.2.2,59.71082955325917,
None,None,,,,,,,,,1,0,1,0,11,0,44,1,,,,,,,,,3584.9790662676096,stop,squareblack.png,right,0.3,,,,,,,,,,,,,,,0.0016644671559333801,0.4901205971837044,0.7901535257697105,3587.481540389359,test,2,,,,,,,,,,3584.9978765025735,3585.4949439540505,3585.4949439540505,3585.5114654824138,3585.795133791864,3586.2944293022156,3586.4943263977766,3587.5005236640573,right,1,0.33839499205350876,0.25,,,,,,,,,,,s039,001,2024-09-26_13h37.06.129,simplestop_skeleton,2022.2.2,59.71082955325917,
None,None,,,,,,,,,1,0,1,0,11,1,45,3,,,,,,,,,3587.4819831177592,go,squareblack.png,right,0.25,,,,,,,,,,,,,,,0.0012657344341278076,0.48950299620628357,,3589.9840292409062,test,2,,,,,,,,,,3587.5005236640573,3587.9977589547634,3587.9977589547634,3588.0141775757074,3588.2480395436287,3588.763617694378,3588.9971434772015,3590.0038031563163,left,0,0.3843654543161392,0.25,,,,,,,,,,,s039,001,2024-09-26_13h37.06.129,simplestop_skeleton,2022.2.2,59.71082955325917,
None,None,,,,,,,,,1,0,1,0,11,2,46,3,,,,,,,,,3589.9844534769654,go,circleblack.png,left,0.25,,,,,,,,,,,,,,,0.0019773468375205994,0.48977629840373993,,3592.4871050566435,test,2,,,,,,,,,,3590.0038031563163,3590.500355772674,3590.500355772674,3590.5168060213327,3590.750436335802,3591.249800488353,3591.499925337732,3592.5061783492565,left,1,0.38977064192295074,0.25,,,,,,,,,,,s039,001,2024-09-26_13h37.06.129,simplestop_skeleton,2022.2.2,59.71082955325917,
None,None,,,,,,,,,1,0,1,0,11,3,47,1,,,,,,,,,3592.48754376173,go,squareblack.png,right,0.25,,,,,,,,,,,,,,,0.001742348074913025,0.489632710814476,,3594.989783845842,test,2,,,,,,,,,,3592.5061783492565,3593.0029272437096,3593.0029272437096,3593.0197195485234,3593.253496132791,3593.7538788467646,3594.002659894526,3595.005298949778,right,1,0.3233179599046707,0.25,,,,,,,,,,,s039,001,2024-09-26_13h37.06.129,simplestop_skeleton,2022.2.2,59.71082955325917,
,,,,,,,,,,1,0,1,0,,,,,,,,,,,,,,,,,,,,,,,,,,,,,,,,,,,,,,,,,,,,,,,,,,,,,,,,,,,3595.005298949778,3595.005298949778,return,19.339885778725147,"[{'fileName': 'circleblack.png', 'correct_response': 'left', 'condition': 'go'}, {'fileName': 'circleblack.png', 'correct_response': 'left', 'condition': 'go'}, {'fileName': 'circleblack.png', 'correct_response': 'left', 'condition': 'stop'}, {'fileName': 'squareblack.png', 'correct_response': 'right', 'condition': 'go'}, {'fileName': 'squareblack.png', 'correct_response': 'right', 'condition': 'go'}, {'fileName': 'circleblack.png', 'correct_response': 'left', 'condition': 'stop'}, {'fileName': 'circleblack.png', 'correct_response': 'left', 'condition': 'go'}, {'fileName': 'circleblack.png', 'correct_response': 'left', 'condition': 'go'}, {'fileName': 'squareblack.png', 'correct_response': 'right', 'condition': 'go'}, {'fileName': 'squareblack.png', 'correct_response': 'right', 'condition': 'go'}, {'fileName': 'squareblack.png', 'correct_response': 'right', 'condition': 'stop'}, {'fileName': 'squareblack.png', 'correct_response': 'right', 'condition': 'stop'}, {'fileName': 'circleblack.png', 'correct_response': 'left', 'condition': 'go'}, {'fileName': 'squareblack.png', 'correct_response': 'right', 'condition': 'stop'}, {'fileName': 'circleblack.png', 'correct_response': 'left', 'condition': 'go'}, {'fileName': 'circleblack.png', 'correct_response': 'left', 'condition': 'go'}, {'fileName': 'squareblack.png', 'correct_response': 'right', 'condition': 'go'}, {'fileName': 'circleblack.png', 'correct_response': 'left', 'condition': 'go'}, {'fileName': 'squareblack.png', 'correct_response': 'right', 'condition': 'go'}, {'fileName': 'squareblack.png', 'correct_response': 'right', 'condition': 'go'}, {'fileName': 'circleblack.png', 'correct_response': 'left', 'condition': 'stop'}, {'fileName': 'squareblack.png', 'correct_response': 'right', 'condition': 'stop'}, {'fileName': 'circleblack.png', 'correct_response': 'left', 'condition': 'stop'}, {'fileName': 'squareblack.png', 'correct_response': 'right', 'condition': 'go'}, {'fileName': 'squareblack.png', 'correct_response': 'right', 'condition': 'stop'}, {'fileName': 'squareblack.png', 'correct_response': 'right', 'condition': 'stop'}, {'fileName': 'squareblack.png', 'correct_response': 'right', 'condition': 'go'}, {'fileName': 'squareblack.png', 'correct_response': 'right', 'condition': 'go'}, {'fileName': 'circleblack.png', 'correct_response': 'left', 'condition': 'stop'}, {'fileName': 'circleblack.png', 'correct_response': 'left', 'condition': 'go'}, {'fileName': 'circleblack.png', 'correct_response': 'left', 'condition': 'stop'}, {'fileName': 'circleblack.png', 'correct_response': 'left', 'condition': 'go'}, {'fileName': 'squareblack.png', 'correct_response': 'right', 'condition': 'go'}, {'fileName': 'squareblack.png', 'correct_response': 'right', 'condition': 'go'}, {'fileName': 'circleblack.png', 'correct_response': 'left', 'condition': 'go'}, {'fileName': 'circleblack.png', 'correct_response': 'left', 'condition': 'go'}, {'fileName': 'squareblack.png', 'correct_response': 'right', 'condition': 'stop'}, {'fileName': 'circleblack.png', 'correct_response': 'left', 'condition': 'go'}, {'fileName': 'squareblack.png', 'correct_response': 'right', 'condition': 'go'}, {'fileName': 'circleblack.png', 'correct_response': 'left', 'condition': 'go'}, {'fileName': 'squareblack.png', 'correct_response': 'right', 'condition': 'stop'}, {'fileName': 'squareblack.png', 'correct_response': 'right', 'condition': 'go'}, {'fileName': 'squareblack.png', 'correct_response': 'right', 'condition': 'go'}, {'fileName': 'circleblack.png', 'correct_response': 'left', 'condition': 'stop'}, {'fileName': 'squareblack.png', 'correct_response': 'right', 'condition': 'go'}, {'fileName': 'circleblack.png', 'correct_response': 'left', 'condition': 'stop'}, {'fileName': 'circleblack.png', 'correct_response': 'left', 'condition': 'go'}, {'fileName': 'circleblack.png', 'correct_response': 'left', 'condition': 'go'}]",,,,,,s039,001,2024-09-26_13h37.06.129,simplestop_skeleton,2022.2.2,59.71082955325917,
$currentCorrectResponse,$currentGoStim,,,,,,,,,2,0,2,0,0,0,0,0,,,,,,,,,3614.377210713923,go,circleblack.png,left,0.25,,,,,,,,,,,,,,,0.0018018409609794617,0.4908820390701294,,3616.881027251482,test,3,,,,,,,,,,3614.3958629518747,3614.8938790112734,3614.8938790112734,3614.910578660667,3615.144366979599,3615.645007483661,3615.895149998367,3616.9003368914127,left,1,0.4582819864153862,0.25,,,,,,,,,,,s039,001,2024-09-26_13h37.06.129,simplestop_skeleton,2022.2.2,59.71082955325917,
None,None,,,,,,,,,2,0,2,0,0,1,1,3,,,,,,,,,3616.881563462317,go,circleblack.png,left,0.25,,,,,,,,,,,,,,,0.0014177337288856506,0.48945973813533783,,3619.3833674117923,test,3,,,,,,,,,,3616.9003368914127,3617.3968431577086,3617.3968431577086,3617.413358837366,3617.6469880342484,3618.1461271494627,3618.3963682055473,3619.4025511592627,left,1,0.4052882567048073,0.25,,,,,,,,,,,s039,001,2024-09-26_13h37.06.129,simplestop_skeleton,2022.2.2,59.71082955325917,
None,None,,,,,,,,,2,0,2,0,0,2,2,2,,,,,,,,,3619.3838077634573,stop,circleblack.png,left,0.25,,,,,,,,,,,,,,,0.0013629347085952759,0.49000731110572815,0.7399644926190376,3621.8866990059614,test,3,,,,,,,,,,3619.4025511592627,3619.8996213674545,3619.8996213674545,3619.9162236452103,3620.149878755212,3620.665704898536,3620.8991962373257,3621.906107850373,left,1,0.31839342415332794,0.2,,,,,,,,,,,s039,001,2024-09-26_13h37.06.129,simplestop_skeleton,2022.2.2,59.71082955325917,
None,None,,,,,,,,,2,0,2,0,0,3,3,1,,,,,,,,,3621.887128390372,go,squareblack.png,right,0.2,,,,,,,,,,,,,,,0.0017563998699188232,0.4890870451927185,,3624.389061778784,test,3,,,,,,,,,,3621.906107850373,3622.4021499827504,3622.4021499827504,3622.4190589934587,3622.602483302355,3623.118215404451,3623.402003735304,3624.4083173945546,right,1,0.3142693489789963,0.2,,,,,,,,,,,s039,001,2024-09-26_13h37.06.129,simplestop_skeleton,2022.2.2,59.71082955325917,
$currentCorrectResponse,$currentGoStim,,,,,,,,,2,0,2,0,1,0,4,0,,,,,,,,,3624.3894922956824,go,squareblack.png,right,0.2,,,,,,,,,,,,,,,0.001338377594947815,0.4894079640507698,,3626.8918558359146,test,3,,,,,,,,,,3624.4083173945546,3624.9053177684546,3624.9053177684546,3624.9218621626496,3625.105208531022,3625.6210163533688,3625.904567040503,3626.9113716706634,right,1,0.344695582985878,0.2,,,,,,,,,,,s039,001,2024-09-26_13h37.06.129,simplestop_skeleton,2022.2.2,59.71082955325917,
None,None,,,,,,,,,2,0,2,0,1,1,5,1,,,,,,,,,3626.8922938406467,stop,circleblack.png,left,0.2,,,,,,,,,,,,,,,0.0019594132900238037,0.48958350718021393,0.6896873340010643,3629.394594937563,test,3,,,,,,,,,,3626.9113716706634,3627.4079929441214,3627.4079929441214,3627.4244635999203,3627.6080301851034,3628.1237725391984,3628.407544158399,3629.413599565625,left,1,0.35527361184358597,0.15,,,,,,,,,,,s039,001,2024-09-26_13h37.06.129,simplestop_skeleton,2022.2.2,59.71082955325917,
None,None,,,,,,,,,2,0,2,0,1,2,6,2,,,,,,,,,3629.395030222833,go,circleblack.png,left,0.15,,,,,,,,,,,,,,,0.001377210021018982,0.48983918875455856,,3631.8969315588474,test,3,,,,,,,,,,3629.413599565625,3629.9106157571077,3629.9106157571077,3629.9273697435856,3630.0607957988977,3630.5598323121667,3630.9101489931345,3631.9160402044654,left,1,0.3723927363753319,0.15,,,,,,,,,,,s039,001,2024-09-26_13h37.06.129,simplestop_skeleton,2022.2.2,59.71082955325917,
$currentCorrectResponse,$currentGoStim,,,,,,,,,2,0,2,0,1,3,7,0,,,,,,,,,3631.897359162569,go,circleblack.png,left,0.15,,,,,,,,,,,,,,,0.001301504671573639,0.48987533897161484,,3634.400287926197,test,3,,,,,,,,,,3631.9160402044654,3632.4134529829025,3632.4134529829025,3632.4300564303994,3632.5634676516056,3633.079155191779,3633.4128493070602,3634.419697381556,left,1,0.3380054086446762,0.15,,,,,,,,,,,s039,001,2024-09-26_13h37.06.129,simplestop_skeleton,2022.2.2,59.71082955325917,
$currentCorrectResponse,$currentGoStim,,,,,,,,,2,0,2,0,2,0,8,0,,,,,,,,,3634.4007285684347,go,squareblack.png,right,0.15,,,,,,,,,,,,,,,0.0018199384212493896,0.489756740629673,,3636.9026228934526,test,3,,,,,,,,,,3634.419697381556,3634.9160571694374,3634.9160571694374,3634.9328713342547,3635.066414937377,3635.56679777056,3635.9157251790166,3636.9215770736337,right,1,0.4078879579901695,0.15,,,,,,,,,,,s039,001,2024-09-26_13h37.06.129,simplestop_skeleton,2022.2.2,59.71082955325917,
None,None,,,,,,,,,2,0,2,0,2,1,9,3,,,,,,,,,3636.903052508831,go,squareblack.png,right,0.15,,,,,,,,,,,,,,,0.0012055709958076477,0.4898126646876335,,3639.405596882105,test,3,,,,,,,,,,3636.9215770736337,3637.4189829602838,3637.4189829602838,3637.4355425834656,3637.568980976939,3638.0695778131485,3638.418596893549,3639.42448412627,right,1,0.494005411863327,0.15,,,,,,,,,,,s039,001,2024-09-26_13h37.06.129,simplestop_skeleton,2022.2.2,59.71082955325917,
None,None,,,,,,,,,2,0,2,0,2,2,10,1,,,,,,,,,3639.4060335084796,stop,squareblack.png,right,0.15,,,,,,,,,,,,,,,0.0012483224272727966,0.48961256444454193,0.6398410126566887,3641.9082218557596,test,3,,,,,,,,,,3639.42448412627,3639.921425394714,3639.921425394714,3639.9383347183466,3640.071761198342,3640.572268433869,3640.9227348789573,3641.9259136617184,None,0,,0.2,,,,,,,,,,,s039,001,2024-09-26_13h37.06.129,simplestop_skeleton,2022.2.2,59.71082955325917,
None,None,,,,,,,,,2,0,2,0,2,3,11,3,,,,,,,,,3641.9086637422442,stop,squareblack.png,right,0.2,,,,,,,,,,,,,,,0.0011782050132751465,0.4900291636586189,0.6900961324572563,3644.4113880619407,test,3,,,,,,,,,,3641.9259136617184,3642.4243203103542,3642.4243203103542,3642.4409742876887,3642.624508932233,3643.140258975327,3643.423957206309,3644.436475083232,right,1,0.3558089807629585,0.15,,,,,,,,,,,s039,001,2024-09-26_13h37.06.129,simplestop_skeleton,2022.2.2,59.71082955325917,
$currentCorrectResponse,$currentGoStim,,,,,,,,,2,0,2,0,3,0,12,0,,,,,,,,,3644.4118146523833,go,circleblack.png,left,0.15,,,,,,,,,,,,,,,0.008439704775810242,0.4894184544682503,,3646.914040066302,test,3,,,,,,,,,,3644.436475083232,3644.9273738861084,3644.9273738861084,3644.9437269940972,3645.0773764401674,3645.59298504889,3645.9267614111304,3646.933303721249,left,1,0.26395633071660995,0.15,,,,,,,,,,,s039,001,2024-09-26_13h37.06.129,simplestop_skeleton,2022.2.2,59.71082955325917,
None,None,,,,,,,,,2,0,2,0,3,1,13,2,,,,,,,,,3646.9144725203514,stop,squareblack.png,right,0.15,,,,,,,,,,,,,,,0.0017862096428871155,0.4894834905862808,0.6395814046263695,3649.4165195301175,test,3,,,,,,,,,,3646.933303721249,3647.429896645248,3647.429896645248,3647.4467694163322,3647.580020815134,3648.08056756109,3648.429447352886,3649.43583727628,right,1,0.37954047322273254,0.1,,,,,,,,,,,s039,001,2024-09-26_13h37.06.129,simplestop_skeleton,2022.2.2,59.71082955325917,
$currentCorrectResponse,$currentGoStim,,,,,,,,,2,0,2,0,3,2,14,0,,,,,,,,,3649.4169552773237,go,circleblack.png,left,0.1,,,,,,,,,,,,,,,0.0017369315028190613,0.4897097572684288,,3651.9191717281938,test,3,,,,,,,,,,3649.43583727628,3649.932565458119,3649.932565458119,3649.9491158649325,3650.032572492957,3650.5331271737814,3650.932195544243,3651.938087873161,left,1,0.3218904659152031,0.1,,,,,,,,,,,s039,001,2024-09-26_13h37.06.129,simplestop_skeleton,2022.2.2,59.71082955325917,
$currentCorrectResponse,$currentGoStim,,,,,,,,,2,0,2,0,3,3,15,0,,,,,,,,,3651.919605538249,go,circleblack.png,left,0.1,,,,,,,,,,,,,,,0.0012682005763053894,0.4897211268544197,,3654.422067217529,test,3,,,,,,,,,,3651.938087873161,3652.4352313131094,3652.4352313131094,3652.451774120331,3652.535565815866,3653.0359497740865,3653.434889316559,3654.4414960220456,left,1,0.3394787758588791,0.1,,,,,,,,,,,s039,001,2024-09-26_13h37.06.129,simplestop_skeleton,2022.2.2,59.71082955325917,
None,None,,,,,,,,,2,0,2,0,4,0,16,3,,,,,,,,,3654.4226076826453,go,squareblack.png,right,0.1,,,,,,,,,,,,,,,0.0017171874642372131,0.4895893484354019,,3656.9248495697975,test,3,,,,,,,,,,3654.4414960220456,3654.9379824250937,3654.9379824250937,3654.954854235053,3655.03808747977,3655.5387075915933,3655.9376916363835,3656.944056406617,right,1,0.33453553169965744,0.1,,,,,,,,,,,s039,001,2024-09-26_13h37.06.129,simplestop_skeleton,2022.2.2,59.71082955325917,
