corrGoResp,shape,practiceBlocks.thisRepN,practiceBlocks.thisTrialN,practiceBlocks.thisN,practiceBlocks.thisIndex,practiceTrials.thisRepN,practiceTrials.thisTrialN,practiceTrials.thisN,practiceTrials.thisIndex,stopBlocks.thisRepN,stopBlocks.thisTrialN,stopBlocks.thisN,stopBlocks.thisIndex,testTrials.thisRepN,testTrials.thisTrialN,testTrials.thisN,testTrials.thisIndex,stopPracTrialList,Test Block: 1,welcome.started,start_exp.started,start_exp.keys,start_exp.rt,instrStopText.started,start_prac.started,StartTrialTimeStamp,trialType,goStim,correctResponse,ssd,fixation.started,rules.started,goStim.started,goResp.started,fixation.stopped,stopSignal.started,stopSignal.stopped,goStim.stopped,goResp.stopped,rules.stopped,goResp.keys,goResp.corr,text.started,rules_2.started,fixationOnset,goStimOnset,stopSignalOnset,EndTrialTimeStamp,Phase,Block,goResp.rt,text.stopped,rules_2.stopped,text_5.started,key_resp_3.started,key_resp_3.keys,key_resp_3.rt,key_resp.started,testText.started,test_fixation.started,goStim_test.started,goResp_test.started,test_fixation.stopped,stopSignal_test.started,stopSignal_test.stopped,goStim_test.stopped,goResp_test.stopped,goResp_test.keys,goResp_test.corr,goResp_test.rt,EndingSSD,text_6.started,key_resp_4.started,key_resp_4.keys,key_resp_4.rt,Test Block: 2,Test Block: 3,ending_text.started,end_resp.started,end_resp.keys,end_resp.rt,participant,session,date,expName,psychopyVersion,frameRate,
,,,,,,,,,,,,,,,,,,"[{'fileName': 'squareblack.png', 'correct_response': 'right', 'condition': 'go'}, {'fileName': 'circleblack.png', 'correct_response': 'left', 'condition': 'go'}, {'fileName': 'squareblack.png', 'correct_response': 'right', 'condition': 'go'}, {'fileName': 'circleblack.png', 'correct_response': 'left', 'condition': 'go'}, {'fileName': 'squareblack.png', 'correct_response': 'right', 'condition': 'go'}, {'fileName': 'circleblack.png', 'correct_response': 'left', 'condition': 'stop'}, {'fileName': 'circleblack.png', 'correct_response': 'left', 'condition': 'go'}, {'fileName': 'circleblack.png', 'correct_response': 'left', 'condition': 'go'}, {'fileName': 'squareblack.png', 'correct_response': 'right', 'condition': 'stop'}, {'fileName': 'squareblack.png', 'correct_response': 'right', 'condition': 'stop'}, {'fileName': 'squareblack.png', 'correct_response': 'right', 'condition': 'go'}, {'fileName': 'circleblack.png', 'correct_response': 'left', 'condition': 'stop'}, {'fileName': 'circleblack.png', 'correct_response': 'left', 'condition': 'go'}, {'fileName': 'squareblack.png', 'correct_response': 'right', 'condition': 'go'}, {'fileName': 'squareblack.png', 'correct_response': 'right', 'condition': 'go'}, {'fileName': 'squareblack.png', 'correct_response': 'right', 'condition': 'stop'}, {'fileName': 'circleblack.png', 'correct_response': 'left', 'condition': 'stop'}, {'fileName': 'squareblack.png', 'correct_response': 'right', 'condition': 'go'}, {'fileName': 'circleblack.png', 'correct_response': 'left', 'condition': 'go'}, {'fileName': 'squareblack.png', 'correct_response': 'right', 'condition': 'stop'}, {'fileName': 'circleblack.png', 'correct_response': 'left', 'condition': 'stop'}, {'fileName': 'circleblack.png', 'correct_response': 'left', 'condition': 'go'}, {'fileName': 'circleblack.png', 'correct_response': 'left', 'condition': 'go'}, {'fileName': 'squareblack.png', 'correct_response': 'right', 'condition': 'go'}]","[{'fileName': 'squareblack.png', 'correct_response': 'right', 'condition': 'go'}, {'fileName': 'squareblack.png', 'correct_response': 'right', 'condition': 'go'}, {'fileName': 'circleblack.png', 'correct_response': 'left', 'condition': 'stop'}, {'fileName': 'circleblack.png', 'correct_response': 'left', 'condition': 'stop'}, {'fileName': 'circleblack.png', 'correct_response': 'left', 'condition': 'go'}, {'fileName': 'circleblack.png', 'correct_response': 'left', 'condition': 'go'}, {'fileName': 'squareblack.png', 'correct_response': 'right', 'condition': 'go'}, {'fileName': 'circleblack.png', 'correct_response': 'left', 'condition': 'go'}, {'fileName': 'squareblack.png', 'correct_response': 'right', 'condition': 'stop'}, {'fileName': 'squareblack.png', 'correct_response': 'right', 'condition': 'stop'}, {'fileName': 'squareblack.png', 'correct_response': 'right', 'condition': 'go'}, {'fileName': 'circleblack.png', 'correct_response': 'left', 'condition': 'go'}, {'fileName': 'circleblack.png', 'correct_response': 'left', 'condition': 'go'}, {'fileName': 'squareblack.png', 'correct_response': 'right', 'condition': 'stop'}, {'fileName': 'circleblack.png', 'correct_response': 'left', 'condition': 'stop'}, {'fileName': 'circleblack.png', 'correct_response': 'left', 'condition': 'go'}, {'fileName': 'circleblack.png', 'correct_response': 'left', 'condition': 'go'}, {'fileName': 'squareblack.png', 'correct_response': 'right', 'condition': 'go'}, {'fileName': 'squareblack.png', 'correct_response': 'right', 'condition': 'stop'}, {'fileName': 'squareblack.png', 'correct_response': 'right', 'condition': 'go'}, {'fileName': 'circleblack.png', 'correct_response': 'left', 'condition': 'stop'}, {'fileName': 'circleblack.png', 'correct_response': 'left', 'condition': 'go'}, {'fileName': 'squareblack.png', 'correct_response': 'right', 'condition': 'go'}, {'fileName': 'squareblack.png', 'correct_response': 'right', 'condition': 'go'}, {'fileName': 'squareblack.png', 'correct_response': 'right', 'condition': 'stop'}, {'fileName': 'circleblack.png', 'correct_response': 'left', 'condition': 'stop'}, {'fileName': 'circleblack.png', 'correct_response': 'left', 'condition': 'go'}, {'fileName': 'squareblack.png', 'correct_response': 'right', 'condition': 'go'}, {'fileName': 'circleblack.png', 'correct_response': 'left', 'condition': 'stop'}, {'fileName': 'circleblack.png', 'correct_response': 'left', 'condition': 'go'}, {'fileName': 'circleblack.png', 'correct_response': 'left', 'condition': 'go'}, {'fileName': 'squareblack.png', 'correct_response': 'right', 'condition': 'go'}, {'fileName': 'circleblack.png', 'correct_response': 'left', 'condition': 'go'}, {'fileName': 'squareblack.png', 'correct_response': 'right', 'condition': 'go'}, {'fileName': 'squareblack.png', 'correct_response': 'right', 'condition': 'go'}, {'fileName': 'squareblack.png', 'correct_response': 'right', 'condition': 'stop'}, {'fileName': 'squareblack.png', 'correct_response': 'right', 'condition': 'go'}, {'fileName': 'squareblack.png', 'correct_response': 'right', 'condition': 'stop'}, {'fileName': 'circleblack.png', 'correct_response': 'left', 'condition': 'go'}, {'fileName': 'squareblack.png', 'correct_response': 'right', 'condition': 'go'}, {'fileName': 'squareblack.png', 'correct_response': 'right', 'condition': 'go'}, {'fileName': 'circleblack.png', 'correct_response': 'left', 'condition': 'go'}, {'fileName': 'circleblack.png', 'correct_response': 'left', 'condition': 'go'}, {'fileName': 'circleblack.png', 'correct_response': 'left', 'condition': 'stop'}, {'fileName': 'squareblack.png', 'correct_response': 'right', 'condition': 'stop'}, {'fileName': 'circleblack.png', 'correct_response': 'left', 'condition': 'stop'}, {'fileName': 'squareblack.png', 'correct_response': 'right', 'condition': 'go'}, {'fileName': 'circleblack.png', 'correct_response': 'left', 'condition': 'go'}]",154.95654663816094,154.95654663816094,return,83.09432795271277,,,,,,,,,,,,,,,,,,,,,,,,,,,,,,,,,,,,,,,,,,,,,,,,,,,,,,,,,,,s004,001,2024-06-19_14h58.56.166,simplestop_skeleton,2022.2.2,60.20695538024777,
None,None,0,0,0,0,0,0,0,1,,,,,,,,,,,,,,,238.10222470015287,238.10222470015287,328.91941395029426,go,squareblack.png,right,0.35,328.9406671114266,328.9406671114266,329.43410141021013,329.43410141021013,329.45105953142047,329.7843388430774,330.28512512892485,330.4351194873452,331.43615640327334,331.4551146887243,None,0,331.4551146887243,331.4551146887243,0.002861037850379944,0.4880936034023762,0.8388592787086964,331.93796331062913,practice,1,,,,,,,,,,,,,,,,,,,,,,,,,,,,,,,,s004,001,2024-06-19_14h58.56.166,simplestop_skeleton,2022.2.2,60.20695538024777,
None,None,0,0,0,0,0,1,1,3,,,,,,,,,,,,,,,,,331.93850293383,go,circleblack.png,left,0.35,331.9642198495567,331.9642198495567,332.45430010929704,332.45430010929704,332.4707284681499,332.8049537278712,333.3223058395088,333.45475049316883,334.45610386505723,334.4729349575937,right,0,334.4729349575937,334.4729349575937,0.007901187986135483,0.4891141392290592,0.8401174135506153,334.95760839805007,practice,1,0.22669551521539688,334.97751750797033,334.97751750797033,,,,,,,,,,,,,,,,,,,,,,,,,,,,,s004,001,2024-06-19_14h58.56.166,simplestop_skeleton,2022.2.2,60.20695538024777,
None,None,0,0,0,0,0,2,2,3,,,,,,,,,,,,,,,,,334.95804688706994,go,squareblack.png,right,0.35,334.97751750797033,334.97751750797033,335.47404239326715,335.47404239326715,335.49071203544736,335.8242409862578,336.3236570470035,336.4737702123821,337.4760459922254,337.49312415346503,right,1,337.49312415346503,337.49312415346503,0.0017326399683952332,0.49010932072997093,0.8405323550105095,337.97754997015,practice,1,0.41867831349372864,,,,,,,,,,,,,,,,,,,,,,,,,,,,,,,s004,001,2024-06-19_14h58.56.166,simplestop_skeleton,2022.2.2,60.20695538024777,
None,None,0,0,0,0,0,3,3,3,,,,,,,,,,,,,,,,,337.97797644510865,go,circleblack.png,left,0.35,337.99786016717553,337.99786016717553,338.4940871335566,338.4940871335566,338.5106193162501,338.8443790562451,339.34375028684735,339.49478632211685,340.4961016178131,340.5129893347621,left,1,340.5129893347621,340.5129893347621,0.001785777509212494,0.4901128150522709,0.840623028576374,340.9976727589965,practice,1,0.3343227356672287,,,,,,,,,,,,,,,,,,,,,,,,,,,,,,,s004,001,2024-06-19_14h58.56.166,simplestop_skeleton,2022.2.2,60.20695538024777,
None,None,0,0,0,0,1,0,4,3,,,,,,,,,,,,,,,,,340.9981023147702,go,squareblack.png,right,0.35,341.01757287606597,341.01757287606597,341.51407699659467,341.51407699659467,341.5308638699353,341.8630558773875,342.36507887765765,342.51526714861393,343.51615804061294,343.51615804061294,right,1,343.51615804061294,343.51615804061294,0.0017646923661231995,0.49054237827658653,0.8389926739037037,344.0018142722547,practice,1,0.35188060998916626,344.02493205294013,344.02493205294013,,,,,,,,,,,,,,,,,,,,,,,,,,,,,s004,001,2024-06-19_14h58.56.166,simplestop_skeleton,2022.2.2,60.20695538024777,
None,None,0,0,0,0,1,1,5,2,,,,,,,,,,,,,,,,,344.0024136081338,stop,circleblack.png,left,0.35,344.02493205294013,344.02493205294013,344.51744287088513,344.51744287088513,344.53412874788046,344.8679899945855,345.38356659188867,345.51957085356116,346.519728500396,346.5364932157099,left,1,346.5364932157099,346.5364932157099,0.0025968216359615326,0.48720505461096764,0.8379611037671566,347.02114310115576,practice,1,0.37399405613541603,347.0416113361716,347.0416113361716,,,,,,,,,,,,,,,,,,,,,,,,,,,,,s004,001,2024-06-19_14h58.56.166,simplestop_skeleton,2022.2.2,60.20695538024777,
None,None,0,0,0,0,1,2,6,1,,,,,,,,,,,,,,,,,347.0215579383075,go,circleblack.png,left,0.3,347.0416113361716,347.0416113361716,347.5372973717749,347.5372973717749,347.55406073108315,347.8378307335079,348.35357101634145,348.5378141216934,349.53963182866573,349.55632074177265,left,1,349.55632074177265,349.55632074177265,0.001445431262254715,0.48972145840525627,0.7898990288376808,350.04124234616756,practice,1,0.47570691257715225,350.06121488660574,350.06121488660574,,,,,,,,,,,,,,,,,,,,,,,,,,,,,s004,001,2024-06-19_14h58.56.166,simplestop_skeleton,2022.2.2,60.20695538024777,
None,None,0,0,0,0,1,3,7,2,,,,,,,,,,,,,,,,,350.04166628047824,go,circleblack.png,left,0.3,350.06121488660574,350.06121488660574,350.5576242469251,350.5576242469251,350.57429110631347,350.8580585606396,351.35835498943925,351.5571258738637,352.55982941389084,352.5764355547726,left,1,352.5764355547726,352.5764355547726,0.001494675874710083,0.48980117216706276,0.7901192493736744,353.0612938515842,practice,1,0.5643739365041256,353.081303358078,353.081303358078,,,,,,,,,,,,,,,,,,,,,,,,,,,,,s004,001,2024-06-19_14h58.56.166,simplestop_skeleton,2022.2.2,60.20695538024777,
$currentCorrectResponse,$currentGoStim,0,0,0,0,2,0,8,0,,,,,,,,,,,,,,,,,353.06172950938344,stop,squareblack.png,right,0.3,353.081303358078,353.081303358078,353.5773434638977,353.5773434638977,353.5941338278353,353.8779670074582,354.37838565930724,354.5786225646734,355.57981468737125,355.59655510634184,None,0,355.59655510634184,355.59655510634184,0.001661255955696106,0.4897947199642658,0.789873868227005,356.0812118835747,practice,1,,356.1008678600192,356.1008678600192,,,,,,,,,,,,,,,,,,,,,,,,,,,,,s004,001,2024-06-19_14h58.56.166,simplestop_skeleton,2022.2.2,60.20695538024777,
None,None,0,0,0,0,2,1,9,2,,,,,,,,,,,,,,,,,356.0816371515393,stop,squareblack.png,right,0.35,356.1008678600192,356.1008678600192,356.5972884707153,356.5972884707153,356.6141683012247,356.94781517237425,357.4469088129699,357.5976029597223,358.59983967617154,358.6162018664181,right,1,358.6162018664181,358.6162018664181,0.0012719891965389252,0.48959797993302345,0.8401175513863564,359.1011901423335,practice,1,0.45736531913280487,359.1209964454174,359.1209964454174,,,,,,,,,,,,,,,,,,,,,,,,,,,,,s004,001,2024-06-19_14h58.56.166,simplestop_skeleton,2022.2.2,60.20695538024777,
None,None,0,0,0,0,2,2,10,3,,,,,,,,,,,,,,,,,359.1016199104488,go,squareblack.png,right,0.3,359.1209964454174,359.1209964454174,359.6174738742411,359.6174738742411,359.6340041644871,359.91803515329957,360.418215110898,360.61706851795316,361.6198996193707,361.63606545329094,right,1,361.63606545329094,361.63606545329094,0.0012991391122341156,0.4898950383067131,0.7902946509420872,362.12109307572246,practice,1,0.6367233134806156,362.1411229260266,362.1411229260266,,,,,,,,,,,,,,,,,,,,,,,,,,,,,s004,001,2024-06-19_14h58.56.166,simplestop_skeleton,2022.2.2,60.20695538024777,
$currentCorrectResponse,$currentGoStim,0,0,0,0,2,3,11,0,,,,,,,,,,,,,,,,,362.12152951955795,stop,circleblack.png,left,0.3,362.1411229260266,362.1411229260266,362.6374010331929,362.6374010331929,362.65428580343723,362.9364407323301,363.4381413832307,363.63859551399946,364.6396282501519,364.6563022918999,left,1,364.6563022918999,364.6563022918999,0.0019225701689720154,0.4904347062110901,0.7889351360499859,365.14112263172865,practice,1,0.3381066583096981,,,,,,,,,,,,,,,,,,,,,,,,,,,,,,,s004,001,2024-06-19_14h58.56.166,simplestop_skeleton,2022.2.2,60.20695538024777,
None,None,0,0,0,0,3,0,12,2,,,,,,,,,,,,,,,,,365.1415417417884,go,circleblack.png,left,0.25,365.16088462620974,365.16088462620974,365.6577107794583,365.6577107794583,365.6742387264967,365.90778682753444,366.4081644155085,366.6569915190339,367.6597756408155,367.6762533336878,left,1,367.6762533336878,367.6762533336878,0.0014372430741786957,0.48994001746177673,0.7402387112379074,368.16101862862706,practice,1,0.723774466663599,368.18078546598554,368.18078546598554,,,,,,,,,,,,,,,,,,,,,,,,,,,,,s004,001,2024-06-19_14h58.56.166,simplestop_skeleton,2022.2.2,60.20695538024777,
None,None,0,0,0,0,3,1,13,3,,,,,,,,,,,,,,,,,368.1614670678973,go,squareblack.png,right,0.25,368.18078546598554,368.18078546598554,368.67763382941484,368.67763382941484,368.69417463615537,368.92766258120537,369.426841981709,369.6775973364711,370.6793490052223,370.69600305333734,right,1,370.69600305333734,370.69600305333734,0.0016975738108158112,0.48984691873192787,0.7404169738292694,371.18077079206705,practice,1,0.33275892585515976,,,,,,,,,,,,,,,,,,,,,,,,,,,,,,,s004,001,2024-06-19_14h58.56.166,simplestop_skeleton,2022.2.2,60.20695538024777,
$currentCorrectResponse,$currentGoStim,0,0,0,0,3,2,14,0,,,,,,,,,,,,,,,,,371.18121119588614,go,squareblack.png,right,0.25,371.20013866201043,371.20013866201043,371.6975025050342,371.6975025050342,371.71390303969383,371.94763285294175,372.46341321244836,372.69932946562767,373.6994545944035,373.6994545944035,right,1,373.6994545944035,373.6994545944035,0.001186959445476532,0.49024248495697975,0.740333691239357,374.1842690370977,practice,1,0.36597417294979095,374.2041259407997,374.2041259407997,,,,,,,,,,,,,,,,,,,,,,,,,,,,,s004,001,2024-06-19_14h58.56.166,simplestop_skeleton,2022.2.2,60.20695538024777,
$currentCorrectResponse,$currentGoStim,0,0,0,0,3,3,15,0,,,,,,,,,,,,,,,,,374.1846849657595,stop,squareblack.png,right,0.25,374.2041259407997,374.2041259407997,374.70087591931224,374.70087591931224,374.7174964658916,374.9513145722449,375.4513684734702,375.70155414938927,376.70272928103805,376.7199175693095,None,0,376.7199175693095,376.7199175693095,0.0012634992599487305,0.49019448459148407,0.7405561730265617,377.2041472867131,practice,1,,,,,,,,,,,,,,,,,,,,,,,,,,,,,,,,s004,001,2024-06-19_14h58.56.166,simplestop_skeleton,2022.2.2,60.20695538024777,
None,None,0,0,0,0,4,0,16,1,,,,,,,,,,,,,,,,,377.2045762166381,stop,circleblack.png,left,0.3,377.2243067137897,377.2243067137897,377.72104646638036,377.72104646638036,377.737676538527,378.01964170113206,378.52125557139516,378.721991173923,379.7227415814996,379.73986429721117,None,0,379.73986429721117,379.73986429721117,0.001904509961605072,0.4904482737183571,0.7891263477504253,380.22427324205637,practice,1,,,,,,,,,,,,,,,,,,,,,,,,,,,,,,,,s004,001,2024-06-19_14h58.56.166,simplestop_skeleton,2022.2.2,60.20695538024777,
None,None,0,0,0,0,4,1,17,1,,,,,,,,,,,,,,,,,380.2246968857944,go,squareblack.png,right,0.35,380.2442023381591,380.2442023381591,380.7406171411276,380.7406171411276,380.7578391060233,381.09124756231904,381.5901742056012,381.7404279150069,382.7430873773992,382.75968919321895,right,1,382.75968919321895,382.75968919321895,0.0016387999057769775,0.49010908231139183,0.8401736728847027,383.24452124908566,practice,1,0.4650915451347828,383.26470763608813,383.26470763608813,,,,,,,,,,,,,,,,,,,,,,,,,,,,,s004,001,2024-06-19_14h58.56.166,simplestop_skeleton,2022.2.2,60.20695538024777,
None,None,0,0,0,0,4,2,18,2,,,,,,,,,,,,,,,,,383.24493493139744,go,circleblack.png,left,0.35,383.26470763608813,383.26470763608813,383.7608059979975,383.7608059979975,383.777178645134,384.11138251423836,384.6115164645016,384.76024666428566,385.7629990912974,385.77933618426323,left,1,385.77933618426323,385.77933618426323,0.0017896145582199097,0.49009957537055016,0.8401461318135262,386.2642634436488,practice,1,0.6300424002110958,386.2840559594333,386.2840559594333,,,,,,,,,,,,,,,,,,,,,,,,,,,,,s004,001,2024-06-19_14h58.56.166,simplestop_skeleton,2022.2.2,60.20695538024777,
$currentCorrectResponse,$currentGoStim,0,0,0,0,4,3,19,0,,,,,,,,,,,,,,,,,386.26471346244216,stop,squareblack.png,right,0.35,386.2840559594333,386.2840559594333,386.78067453950644,386.78067453950644,386.7973390445113,387.1310762912035,387.6314730271697,387.78157475590706,388.78200617060065,388.7989147529006,None,0,388.7989147529006,388.7989147529006,0.0017179101705551147,0.4903276599943638,0.8402682580053806,389.2832875214517,practice,1,,389.3014515787363,389.3014515787363,,,,,,,,,,,,,,,,,,,,,,,,,,,,,s004,001,2024-06-19_14h58.56.166,simplestop_skeleton,2022.2.2,60.20695538024777,
None,None,0,0,0,0,5,0,20,1,,,,,,,,,,,,,,,,,389.2837106063962,stop,circleblack.png,left,0.4,389.3014515787363,389.3014515787363,389.80055372044444,389.80055372044444,389.80055372044444,390.201064132154,390.70174860209227,390.80170564353466,391.8030199483037,391.8030199483037,None,0,391.8030199483037,391.8030199483037,0.001867249608039856,0.4914466366171837,0.8917709179222584,392.2876330539584,practice,1,,392.30714916065335,392.30714916065335,,,,,,,,,,,,,,,,,,,,,,,,,,,,,s004,001,2024-06-19_14h58.56.166,simplestop_skeleton,2022.2.2,60.20695538024777,
None,None,0,0,0,0,5,1,21,2,,,,,,,,,,,,,,,,,392.28811855986714,go,circleblack.png,left,0.45,392.30714916065335,392.30714916065335,392.8041161559522,392.8041161559522,392.82083086669445,393.25471472740173,393.77022257074714,393.8035760782659,394.8062403872609,394.8062403872609,left,1,394.8062403872609,394.8062403872609,0.0012589022517204285,0.49009381607174873,0.9405835084617138,395.2912155278027,practice,1,0.5590278580784798,,,,,,,,,,,,,,,,,,,,,,,,,,,,,,,s004,001,2024-06-19_14h58.56.166,simplestop_skeleton,2022.2.2,60.20695538024777,
$currentCorrectResponse,$currentGoStim,0,0,0,0,5,2,22,0,,,,,,,,,,,,,,,,,395.2916498146951,go,circleblack.png,left,0.45,395.31087205559015,395.31087205559015,395.80745296925306,395.80745296925306,395.8239941485226,396.25821836292744,396.7584360577166,396.8085643835366,397.8096152432263,397.82622196897864,left,1,397.82622196897864,397.82622196897864,0.0013022944331169128,0.49019357562065125,0.9405756965279579,398.3111416697502,practice,1,0.7470183148980141,398.331141281873,398.331141281873,,,,,,,,,,,,,,,,,,,,,,,,,,,,,s004,001,2024-06-19_14h58.56.166,simplestop_skeleton,2022.2.2,60.20695538024777,
None,None,0,0,0,0,5,3,23,1,,,,,,,,,,,,,,,,,398.3115664422512,go,squareblack.png,right,0.45,398.331141281873,398.331141281873,398.8272386081517,398.8272386081517,398.84410770609975,399.2782136686146,399.7784171998501,399.8268752209842,400.82955541834235,400.84613072127104,right,1,400.84613072127104,400.84613072127104,0.001733347773551941,0.49000007286667824,0.9403181485831738,401.33094231039286,practice,1,0.684398028999567,401.3487761132419,401.3487761132419,,,,,,,,,,,,,,,,,,,,,,,,,,,,,s004,001,2024-06-19_14h58.56.166,simplestop_skeleton,2022.2.2,60.20695538024777,
,,0,0,0,0,,,,,,,,,,,,,"[{'fileName': 'circleblack.png', 'correct_response': 'left', 'condition': 'go'}, {'fileName': 'squareblack.png', 'correct_response': 'right', 'condition': 'go'}, {'fileName': 'circleblack.png', 'correct_response': 'left', 'condition': 'go'}, {'fileName': 'squareblack.png', 'correct_response': 'right', 'condition': 'go'}, {'fileName': 'squareblack.png', 'correct_response': 'right', 'condition': 'go'}, {'fileName': 'squareblack.png', 'correct_response': 'right', 'condition': 'go'}, {'fileName': 'circleblack.png', 'correct_response': 'left', 'condition': 'go'}, {'fileName': 'circleblack.png', 'correct_response': 'left', 'condition': 'stop'}, {'fileName': 'squareblack.png', 'correct_response': 'right', 'condition': 'stop'}, {'fileName': 'squareblack.png', 'correct_response': 'right', 'condition': 'stop'}, {'fileName': 'circleblack.png', 'correct_response': 'left', 'condition': 'stop'}, {'fileName': 'circleblack.png', 'correct_response': 'left', 'condition': 'go'}, {'fileName': 'squareblack.png', 'correct_response': 'right', 'condition': 'go'}, {'fileName': 'circleblack.png', 'correct_response': 'left', 'condition': 'go'}, {'fileName': 'squareblack.png', 'correct_response': 'right', 'condition': 'go'}, {'fileName': 'squareblack.png', 'correct_response': 'right', 'condition': 'go'}, {'fileName': 'circleblack.png', 'correct_response': 'left', 'condition': 'go'}, {'fileName': 'squareblack.png', 'correct_response': 'right', 'condition': 'stop'}, {'fileName': 'squareblack.png', 'correct_response': 'right', 'condition': 'go'}, {'fileName': 'squareblack.png', 'correct_response': 'right', 'condition': 'stop'}, {'fileName': 'circleblack.png', 'correct_response': 'left', 'condition': 'go'}, {'fileName': 'circleblack.png', 'correct_response': 'left', 'condition': 'go'}, {'fileName': 'circleblack.png', 'correct_response': 'left', 'condition': 'stop'}, {'fileName': 'circleblack.png', 'correct_response': 'left', 'condition': 'stop'}]",,,,,,,,,,,,,,,,,,,,,,,,,,,,,,,,,,,,401.3487761132419,401.3487761132419,return,2.008049104362726,,,,,,,,,,,,,,,,,,,,,,,,,s004,001,2024-06-19_14h58.56.166,simplestop_skeleton,2022.2.2,60.20695538024777,
None,None,,,,,,,,,0,0,0,0,0,0,0,1,,,,,,,,,433.1497738920152,go,squareblack.png,right,0.45,,,,,,,,,,,,,,,0.0025667771697044373,0.4887450076639652,,435.6527154035866,test,1,,,,,,,,403.3825165145099,403.3825165145099,433.1702329106629,433.6656800545752,433.6656800545752,433.682271566242,434.1161735840142,434.6169852204621,434.66707208007574,435.67186116054654,right,1,0.5864521935582161,0.45,,,,,,,,,,,s004,001,2024-06-19_14h58.56.166,simplestop_skeleton,2022.2.2,60.20695538024777,
None,None,,,,,,,,,0,0,0,0,0,1,1,1,,,,,,,,,435.65325700491667,go,squareblack.png,right,0.45,,,,,,,,,,,,,,,0.0013966672122478485,0.4893971085548401,,438.155222017318,test,1,,,,,,,,,,435.67186116054654,436.16831155121326,436.16831155121326,436.1855093613267,436.6188558638096,437.11813060566783,437.16824071109295,438.1804493777454,right,1,0.5575131177902222,0.45,,,,,,,,,,,s004,001,2024-06-19_14h58.56.166,simplestop_skeleton,2022.2.2,60.20695538024777,
None,None,,,,,,,,,0,0,0,0,0,2,2,3,,,,,,,,,438.15567084774375,stop,circleblack.png,left,0.45,,,,,,,,,,,,,,,0.00829298049211502,0.48971181735396385,0.9397276490926743,440.658025406301,test,1,,,,,,,,,,438.1804493777454,438.6700174100697,438.6700174100697,438.6864544376731,439.12099353969097,439.6224035471678,439.6721984781325,440.6770164966583,left,1,0.6070012040436268,0.4,,,,,,,,,,,s004,001,2024-06-19_14h58.56.166,simplestop_skeleton,2022.2.2,60.20695538024777,
$currentCorrectResponse,$currentGoStim,,,,,,,,,0,0,0,0,0,3,3,0,,,,,,,,,440.6584641560912,stop,circleblack.png,left,0.4,,,,,,,,,,,,,,,0.0013893619179725647,0.48952702432870865,0.8899557404220104,443.16120021417737,test,1,,,,,,,,,,440.6770164966583,441.17401813715696,441.17401813715696,441.1906564645469,441.57432053238153,442.07487580925226,442.1752364449203,443.1825558617711,None,0,,0.45,,,,,,,,,,,s004,001,2024-06-19_14h58.56.166,simplestop_skeleton,2022.2.2,60.20695538024777,
None,None,,,,,,,,,0,0,0,0,1,0,4,3,,,,,,,,,443.1616548933089,go,circleblack.png,left,0.45,,,,,,,,,,,,,,,0.0025699399411678314,0.48615679144859314,,445.66401332244277,test,1,,,,,,,,,,443.1825558617711,443.67521269991994,443.67521269991994,443.6920466348529,444.1266613230109,444.6264833845198,444.67715196684003,445.68297028914094,left,1,0.5914342850446701,0.45,,,,,,,,,,,s004,001,2024-06-19_14h58.56.166,simplestop_skeleton,2022.2.2,60.20695538024777,
None,None,,,,,,,,,0,0,0,0,1,1,5,2,,,,,,,,,445.6644537076354,go,circleblack.png,left,0.45,,,,,,,,,,,,,,,0.001497425138950348,0.4893123358488083,,448.1661458015442,test,1,,,,,,,,,,445.68297028914094,446.179372318089,446.179372318089,446.19639990851283,446.6300492659211,447.14573646336794,447.17926175519824,448.1902523897588,left,1,0.5893892347812653,0.45,,,,,,,,,,,s004,001,2024-06-19_14h58.56.166,simplestop_skeleton,2022.2.2,60.20695538024777,
None,None,,,,,,,,,0,0,0,0,1,2,6,2,,,,,,,,,448.1665765121579,go,squareblack.png,right,0.45,,,,,,,,,,,,,,,0.007234096527099609,0.48954497650265694,,450.66915403306484,test,1,,,,,,,,,,448.1902523897588,448.6821170039475,448.6821170039475,448.6990313194692,449.1327933445573,449.63341671973467,449.68183183670044,450.68897223100066,right,1,0.6685100868344307,0.45,,,,,,,,,,,s004,001,2024-06-19_14h58.56.166,simplestop_skeleton,2022.2.2,60.20695538024777,
None,None,,,,,,,,,0,0,0,0,1,3,7,2,,,,,,,,,450.6696007847786,go,circleblack.png,left,0.45,,,,,,,,,,,,,,,0.0021688006818294525,0.48925676196813583,,453.17170406877995,test,1,,,,,,,,,,450.68897223100066,451.1851006448269,451.1851006448269,451.2018451280892,451.6355893239379,452.15138810127974,452.18467424437404,453.19076661393046,left,1,0.5870435833930969,0.45,,,,,,,,,,,s004,001,2024-06-19_14h58.56.166,simplestop_skeleton,2022.2.2,60.20695538024777,
None,None,,,,,,,,,0,0,0,0,2,0,8,1,,,,,,,,,453.172147218138,stop,squareblack.png,right,0.45,,,,,,,,,,,,,,,0.0015705451369285583,0.489566907286644,0.9406135715544224,455.67452597618103,test,1,,,,,,,,,,453.19076661393046,453.68767977133393,453.68767977133393,453.70423682406545,454.13831359520555,454.63732850179076,454.6879912279546,455.6934268474579,right,1,0.3015202470123768,0.4,,,,,,,,,,,s004,001,2024-06-19_14h58.56.166,simplestop_skeleton,2022.2.2,60.20695538024777,
None,None,,,,,,,,,0,0,0,0,2,1,9,1,,,,,,,,,455.67496756464243,stop,squareblack.png,right,0.4,,,,,,,,,,,,,,,0.0013192296028137207,0.48943207412958145,0.8901000283658504,458.17655319720507,test,1,,,,,,,,,,455.6934268474579,456.1905407086015,456.1905407086015,456.2071849256754,456.59105149656534,457.09144303947687,457.19162525236607,458.1928077824414,None,0,,0.45,,,,,,,,,,,s004,001,2024-06-19_14h58.56.166,simplestop_skeleton,2022.2.2,60.20695538024777,
None,None,,,,,,,,,0,0,0,0,2,2,10,3,,,,,,,,,458.17704878002405,go,squareblack.png,right,0.45,,,,,,,,,,,,,,,0.0012241043150424957,0.490144744515419,,460.68004857748747,test,1,,,,,,,,,,458.1928077824414,458.6932595483959,458.6932595483959,458.6932595483959,459.1436792053282,459.6428122036159,459.69289967790246,460.6994696520269,right,1,0.5384353026747704,0.45,,,,,,,,,,,s004,001,2024-06-19_14h58.56.166,simplestop_skeleton,2022.2.2,60.20695538024777,
$currentCorrectResponse,$currentGoStim,,,,,,,,,0,0,0,0,2,3,11,0,,,,,,,,,460.6804757937789,go,circleblack.png,left,0.45,,,,,,,,,,,,,,,0.0020061731338500977,0.4896283447742462,,463.1825851909816,test,1,,,,,,,,,,460.6994696520269,461.1959628909826,461.1959628909826,461.2126681469381,461.6464634947479,462.1622514873743,462.19571809098125,463.2018034271896,left,1,0.5868992730975151,0.45,,,,,,,,,,,s004,001,2024-06-19_14h58.56.166,simplestop_skeleton,2022.2.2,60.20695538024777,
None,None,,,,,,,,,0,0,0,0,3,0,12,3,,,,,,,,,463.18302746117115,go,circleblack.png,left,0.45,,,,,,,,,,,,,,,0.0013553835451602936,0.48956649005413055,,465.68586914241314,test,1,,,,,,,,,,463.2018034271896,463.6990922950208,463.6990922950208,463.7160376906395,464.1477500498295,464.6499036476016,464.70023475959897,465.70523693040013,left,1,0.6578041575849056,0.45,,,,,,,,,,,s004,001,2024-06-19_14h58.56.166,simplestop_skeleton,2022.2.2,60.20695538024777,
None,None,,,,,,,,,0,0,0,0,3,1,13,3,,,,,,,,,465.68631191551685,stop,squareblack.png,right,0.45,,,,,,,,,,,,,,,0.0017648041248321533,0.48949895426630974,0.9399205856025219,468.1884117163718,test,1,,,,,,,,,,465.70523693040013,466.20169549807906,466.20169549807906,466.2183016613126,466.65217539295554,467.1514019332826,467.2014032229781,468.2078469879925,right,1,0.6151733696460724,0.4,,,,,,,,,,,s004,001,2024-06-19_14h58.56.166,simplestop_skeleton,2022.2.2,60.20695538024777,
None,None,,,,,,,,,0,0,0,0,3,2,14,1,,,,,,,,,468.1888465322554,stop,circleblack.png,left,0.4,,,,,,,,,,,,,,,0.0017947778105735779,0.48956142365932465,0.8902086243033409,470.69091722369194,test,1,,,,,,,,,,468.2078469879925,468.70433500781655,468.70433500781655,468.7211699336767,469.105012960732,469.6053640656173,469.7054814249277,470.7104183472693,None,0,,0.45,,,,,,,,,,,s004,001,2024-06-19_14h58.56.166,simplestop_skeleton,2022.2.2,60.20695538024777,
None,None,,,,,,,,,0,0,0,0,3,3,15,3,,,,,,,,,470.691351108253,go,circleblack.png,left,0.45,,,,,,,,,,,,,,,0.0014020316302776337,0.4897897057235241,,473.1939857378602,test,1,,,,,,,,,,470.7104183472693,471.20716719701886,471.20716719701886,471.2240521200001,471.65762462094426,472.15663823112845,472.206820204854,473.2129842750728,left,1,0.60746655985713,0.45,,,,,,,,,,,s004,001,2024-06-19_14h58.56.166,simplestop_skeleton,2022.2.2,60.20695538024777,
$currentCorrectResponse,$currentGoStim,,,,,,,,,0,0,0,0,4,0,16,0,,,,,,,,,473.1944143809378,go,circleblack.png,left,0.45,,,,,,,,,,,,,,,0.0013684257864952087,0.48936739563941956,,475.6966062039137,test,1,,,,,,,,,,473.2129842750728,473.71026934683323,473.71026934683323,473.7263967692852,474.1609126627445,474.6761659793556,474.7094902470708,475.7157694324851,left,1,0.46661733463406563,0.45,,,,,,,,,,,s004,001,2024-06-19_14h58.56.166,simplestop_skeleton,2022.2.2,60.20695538024777,
None,None,,,,,,,,,0,0,0,0,4,1,17,2,,,,,,,,,475.697045981884,go,squareblack.png,right,0.45,,,,,,,,,,,,,,,0.0016035065054893494,0.4894559122622013,,478.1993426568806,test,1,,,,,,,,,,475.7157694324851,476.2125466167927,476.2125466167927,476.2291674539447,476.66295966506004,477.1621425524354,477.21217823401093,478.21827998384833,right,1,0.6382512226700783,0.45,,,,,,,,,,,s004,001,2024-06-19_14h58.56.166,simplestop_skeleton,2022.2.2,60.20695538024777,
$currentCorrectResponse,$currentGoStim,,,,,,,,,0,0,0,0,4,2,18,0,,,,,,,,,478.19978964701295,stop,squareblack.png,right,0.45,,,,,,,,,,,,,,,0.0013401731848716736,0.4895041063427925,0.9401218332350254,480.7020634561777,test,1,,,,,,,,,,478.21827998384833,478.71521174535155,478.71521174535155,478.7320095412433,479.1658099256456,479.66675264015794,479.7165841087699,480.72080121189356,None,0,,0.5,,,,,,,,,,,s004,001,2024-06-19_14h58.56.166,simplestop_skeleton,2022.2.2,60.20695538024777,
None,None,,,,,,,,,0,0,0,0,4,3,19,3,,,,,,,,,480.7025009840727,go,squareblack.png,right,0.5,,,,,,,,,,,,,,,0.0013432689011096954,0.48981473222374916,,483.2052824534476,test,1,,,,,,,,,,480.72080121189356,481.21817441657186,481.21817441657186,481.2346982397139,481.71933495625854,482.2344853915274,482.21781512722373,483.22499119862914,right,1,0.49114225432276726,0.5,,,,,,,,,,,s004,001,2024-06-19_14h58.56.166,simplestop_skeleton,2022.2.2,60.20695538024777,
$currentCorrectResponse,$currentGoStim,,,,,,,,,0,0,0,0,5,0,20,0,,,,,,,,,483.2057290561497,stop,circleblack.png,left,0.5,,,,,,,,,,,,,,,0.0026513375341892242,0.4890044666826725,0.9893065169453621,485.70754348114133,test,1,,,,,,,,,,483.22499119862914,483.72124026715755,483.72124026715755,483.7375987805426,484.22182647511363,484.73745803162456,484.72058782354,485.72675627842546,left,1,0.5259624347090721,0.45,,,,,,,,,,,s004,001,2024-06-19_14h58.56.166,simplestop_skeleton,2022.2.2,60.20695538024777,
None,None,,,,,,,,,0,0,0,0,5,1,21,3,,,,,,,,,485.7080128788948,go,circleblack.png,left,0.45,,,,,,,,,,,,,,,0.0013779550790786743,0.4895654767751694,,488.21030304580927,test,1,,,,,,,,,,485.72675627842546,486.22351044788957,486.22351044788957,486.2405070886016,486.6740850992501,487.17460951954126,487.22479075193405,488.2294651269913,left,1,0.7373899705708027,0.45,,,,,,,,,,,s004,001,2024-06-19_14h58.56.166,simplestop_skeleton,2022.2.2,60.20695538024777,
$currentCorrectResponse,$currentGoStim,,,,,,,,,0,0,0,0,5,2,22,0,,,,,,,,,488.2107368223369,go,squareblack.png,right,0.45,,,,,,,,,,,,,,,0.0016304440796375275,0.48962340503931046,,490.71341717243195,test,1,,,,,,,,,,488.2294651269913,488.7265471816063,488.7265471816063,488.74301283434033,489.1768105253577,489.676912561059,489.72711842134595,490.73245584592223,right,1,0.7081319950520992,0.45,,,,,,,,,,,s004,001,2024-06-19_14h58.56.166,simplestop_skeleton,2022.2.2,60.20695538024777,
None,None,,,,,,,,,0,0,0,0,5,3,23,2,,,,,,,,,490.71386501565576,go,squareblack.png,right,0.45,,,,,,,,,,,,,,,0.0012884140014648438,0.48939770460128784,,493.21599012985826,test,1,,,,,,,,,,490.73245584592223,491.22941156849265,491.22941156849265,491.24592205509543,491.6798994913697,492.1955158151686,492.22882951050997,493.23501935601234,right,1,0.590291041880846,0.45,,,,,,,,,,,s004,001,2024-06-19_14h58.56.166,simplestop_skeleton,2022.2.2,60.20695538024777,
None,None,,,,,,,,,0,0,0,0,6,0,24,1,,,,,,,,,493.216424010694,stop,squareblack.png,right,0.45,,,,,,,,,,,,,,,0.0013546794652938843,0.4900537058711052,0.9399116449058056,495.7193241082132,test,1,,,,,,,,,,493.23501935601234,493.73195995017886,493.73195995017886,493.74875808507204,494.18244495242834,494.68155885860324,494.73158983141184,495.73889468610287,right,1,0.64083456620574,0.4,,,,,,,,,,,s004,001,2024-06-19_14h58.56.166,simplestop_skeleton,2022.2.2,60.20695538024777,
None,None,,,,,,,,,0,0,0,0,6,1,25,2,,,,,,,,,495.7197676002979,stop,circleblack.png,left,0.4,,,,,,,,,,,,,,,0.002637755125761032,0.48877400532364845,0.888966765254736,498.2201208360493,test,1,,,,,,,,,,495.73889468610287,496.23473704978824,496.23473704978824,496.25125101208687,496.63509990647435,497.13561756536365,497.2360152080655,498.2516976892948,None,0,,0.45,,,,,,,,,,,s004,001,2024-06-19_14h58.56.166,simplestop_skeleton,2022.2.2,60.20695538024777,
None,None,,,,,,,,,0,0,0,0,6,2,26,1,,,,,,,,,498.22056363523006,go,circleblack.png,left,0.45,,,,,,,,,,,,,,,0.0012302808463573456,0.4894304722547531,,500.7247568257153,test,1,,,,,,,,,,498.2516976892948,498.736002497375,498.736002497375,498.75265607610345,499.1880400069058,499.68869561329484,499.7387126535177,500.74428053572774,left,1,0.47932153940200806,0.45,,,,,,,,,,,s004,001,2024-06-19_14h58.56.166,simplestop_skeleton,2022.2.2,60.20695538024777,
None,None,,,,,,,,,0,0,0,0,6,3,27,1,,,,,,,,,500.7251907251775,go,squareblack.png,right,0.45,,,,,,,,,,,,,,,0.002165723592042923,0.48918233811855316,,503.2268449217081,test,1,,,,,,,,,,500.74428053572774,501.2403239607811,501.2403239607811,501.2571801505983,501.69071508198977,502.1898295395076,502.23985190317035,503.24613098427653,right,1,0.574527520686388,0.45,,,,,,,,,,,s004,001,2024-06-19_14h58.56.166,simplestop_skeleton,2022.2.2,60.20695538024777,
None,None,,,,,,,,,0,0,0,0,7,0,28,3,,,,,,,,,503.2272779121995,stop,circleblack.png,left,0.45,,,,,,,,,,,,,,,0.0016842000186443329,0.48985226824879646,0.9410707578063011,505.729926597327,test,1,,,,,,,,,,503.24613098427653,503.7430018372834,503.7430018372834,503.75979625433683,504.1940148472786,504.7125744894147,504.742681376636,505.7488909289241,left,1,0.3561655580997467,0.4,,,,,,,,,,,s004,001,2024-06-19_14h58.56.166,simplestop_skeleton,2022.2.2,60.20695538024777,
None,None,,,,,,,,,0,0,0,0,7,1,29,2,,,,,,,,,505.7303727120161,go,circleblack.png,left,0.4,,,,,,,,,,,,,,,0.0013873353600502014,0.48944397643208504,,508.23228246718645,test,1,,,,,,,,,,505.7488909289241,506.2458224520087,506.2458224520087,506.26241291314363,506.64614217728376,507.1452188231051,507.2454012706876,508.2513405755162,left,1,0.5110354907810688,0.4,,,,,,,,,,,s004,001,2024-06-19_14h58.56.166,simplestop_skeleton,2022.2.2,60.20695538024777,
None,None,,,,,,,,,0,0,0,0,7,2,30,2,,,,,,,,,508.2327195852995,go,circleblack.png,left,0.4,,,,,,,,,,,,,,,0.0013749338686466217,0.48999741673469543,,510.735214702785,test,1,,,,,,,,,,508.2513405755162,508.7486327961087,508.7486327961087,508.76505048573017,509.1492264382541,509.6647167876363,509.74882289394736,510.75441905111074,left,1,0.39389776438474655,0.4,,,,,,,,,,,s004,001,2024-06-19_14h58.56.166,simplestop_skeleton,2022.2.2,60.20695538024777,
None,None,,,,,,,,,0,0,0,0,7,3,31,3,,,,,,,,,510.73566552996635,go,squareblack.png,right,0.4,,,,,,,,,,,,,,,0.0016935057938098907,0.48952559009194374,,513.2378639392555,test,1,,,,,,,,,,510.75441905111074,511.25142112001777,511.25142112001777,511.2678533345461,511.6515234783292,512.1507631279528,512.2514572329819,513.2572520822287,right,1,0.4048979617655277,0.4,,,,,,,,,,,s004,001,2024-06-19_14h58.56.166,simplestop_skeleton,2022.2.2,60.20695538024777,
None,None,,,,,,,,,0,0,0,0,8,0,32,1,,,,,,,,,513.2383079715073,go,circleblack.png,left,0.4,,,,,,,,,,,,,,,0.0017984136939048767,0.48971597105264664,,515.7408516965806,test,1,,,,,,,,,,513.2572520822287,513.7541634887457,513.7541634887457,513.7706415764987,514.154436275363,514.6534984745085,514.7536156773567,515.7583550177515,left,1,0.49247072637081146,0.4,,,,,,,,,,,s004,001,2024-06-19_14h58.56.166,simplestop_skeleton,2022.2.2,60.20695538024777,
$currentCorrectResponse,$currentGoStim,,,,,,,,,0,0,0,0,8,1,33,0,,,,,,,,,515.7412961535156,go,squareblack.png,right,0.4,,,,,,,,,,,,,,,0.001611609011888504,0.48886677995324135,,518.2433630414307,test,1,,,,,,,,,,515.7583550177515,516.256811067462,516.256811067462,516.2734026499093,516.6574545949697,517.1584120579064,517.2580656521022,518.2621875777841,right,1,0.7169870585203171,0.4,,,,,,,,,,,s004,001,2024-06-19_14h58.56.166,simplestop_skeleton,2022.2.2,60.20695538024777,
None,None,,,,,,,,,0,0,0,0,8,2,34,2,,,,,,,,,518.243801176548,go,squareblack.png,right,0.4,,,,,,,,,,,,,,,0.001283690333366394,0.48968439921736717,,520.7463775612414,test,1,,,,,,,,,,518.2621875777841,518.759521394968,518.759521394968,518.7761083692312,519.160015925765,519.675700083375,519.7591177411377,520.765306584537,right,1,0.5386264622211456,0.4,,,,,,,,,,,s004,001,2024-06-19_14h58.56.166,simplestop_skeleton,2022.2.2,60.20695538024777,
$currentCorrectResponse,$currentGoStim,,,,,,,,,0,0,0,0,8,3,35,0,,,,,,,,,520.7468202970922,stop,squareblack.png,right,0.4,,,,,,,,,,,,,,,0.0013435408473014832,0.4897131100296974,0.8899555280804634,523.2488174773753,test,1,,,,,,,,,,520.765306584537,521.2630500756204,521.2630500756204,521.278914809227,521.66255351156,522.1632692590356,522.2633524909616,523.2677828632295,None,0,,0.45,,,,,,,,,,,s004,001,2024-06-19_14h58.56.166,simplestop_skeleton,2022.2.2,60.20695538024777,
None,None,,,,,,,,,0,0,0,0,9,0,36,2,,,,,,,,,523.2494119629264,go,squareblack.png,right,0.45,,,,,,,,,,,,,,,0.0012524984776973724,0.4896501712501049,,525.7516354955733,test,1,,,,,,,,,,523.2677828632295,523.7649431452155,523.7649431452155,523.781656563282,524.215384464711,524.7147108949721,524.7646513730288,525.7702927961946,right,1,0.5991818197071552,0.45,,,,,,,,,,,s004,001,2024-06-19_14h58.56.166,simplestop_skeleton,2022.2.2,60.20695538024777,
$currentCorrectResponse,$currentGoStim,,,,,,,,,0,0,0,0,9,1,37,0,,,,,,,,,525.7520700842142,stop,squareblack.png,right,0.45,,,,,,,,,,,,,,,0.0012119226157665253,0.4887348748743534,0.9395618475973606,528.25465676561,test,1,,,,,,,,,,525.7702927961946,526.2662809789181,526.2662809789181,526.2830013036728,526.7178788557649,527.2190169245005,527.2690104618669,528.2804949209094,right,1,0.5656910352408886,0.4,,,,,,,,,,,s004,001,2024-06-19_14h58.56.166,simplestop_skeleton,2022.2.2,60.20695538024777,
None,None,,,,,,,,,0,0,0,0,9,2,38,3,,,,,,,,,528.255106523633,go,circleblack.png,left,0.4,,,,,,,,,,,,,,,0.008929893374443054,0.4893811494112015,,530.7572947368026,test,1,,,,,,,,,,528.2804949209094,528.7704894132912,528.7704894132912,528.7871881723404,529.1710618287325,529.6715733148158,529.7701703645289,530.7766582146287,left,1,0.6131182871758938,0.4,,,,,,,,,,,s004,001,2024-06-19_14h58.56.166,simplestop_skeleton,2022.2.2,60.20695538024777,
None,None,,,,,,,,,0,0,0,0,9,3,39,3,,,,,,,,,530.7577425539494,go,squareblack.png,right,0.4,,,,,,,,,,,,,,,0.0017135553061962128,0.48962053656578064,,533.2601332627237,test,1,,,,,,,,,,530.7766582146287,531.2732975929976,531.2732975929976,531.2900007255375,531.6738669760525,532.1742339394987,532.2730122581124,533.2791168875992,right,1,0.6556349731981754,0.4,,,,,,,,,,,s004,001,2024-06-19_14h58.56.166,simplestop_skeleton,2022.2.2,60.20695538024777,
$currentCorrectResponse,$currentGoStim,,,,,,,,,0,0,0,0,10,0,40,0,,,,,,,,,533.2605879344046,go,squareblack.png,right,0.4,,,,,,,,,,,,,,,0.0013154000043869019,0.48933327198028564,,535.7627645991743,test,1,,,,,,,,,,533.2791168875992,533.7759674377739,533.7759674377739,533.792763620615,534.1767142117023,534.6774682551622,534.7771422080696,535.7874629944563,right,1,0.7646555826067924,0.4,,,,,,,,,,,s004,001,2024-06-19_14h58.56.166,simplestop_skeleton,2022.2.2,60.20695538024777,
None,None,,,,,,,,,0,0,0,0,10,1,41,2,,,,,,,,,535.7632021345198,go,circleblack.png,left,0.4,,,,,,,,,,,,,,,0.00787268951535225,0.4898410178720951,,538.2654627002776,test,1,,,,,,,,,,535.7874629944563,536.2789778932929,536.2789778932929,536.2953816764057,536.6790743768215,537.1783879362047,537.2786705642939,538.284505520016,left,1,0.41808581352233887,0.4,,,,,,,,,,,s004,001,2024-06-19_14h58.56.166,simplestop_skeleton,2022.2.2,60.20695538024777,
None,None,,,,,,,,,0,0,0,0,10,2,42,1,,,,,,,,,538.2659025490284,go,circleblack.png,left,0.4,,,,,,,,,,,,,,,0.0013391412794589996,0.4896010234951973,,540.768261924386,test,1,,,,,,,,,,538.284505520016,538.7815549559891,538.7815549559891,538.7982303053141,539.1820000074804,539.681132864207,539.7811947651207,540.7875860594213,left,1,0.46774526685476303,0.4,,,,,,,,,,,s004,001,2024-06-19_14h58.56.166,simplestop_skeleton,2022.2.2,60.20695538024777,
$currentCorrectResponse,$currentGoStim,,,,,,,,,0,0,0,0,10,3,43,0,,,,,,,,,540.7687206231058,stop,circleblack.png,left,0.4,,,,,,,,,,,,,,,0.0015225335955619812,0.48946773260831833,0.8899646028876305,543.2713615186512,test,1,,,,,,,,,,540.7875860594213,541.2843103706837,541.2843103706837,541.3011828400195,541.6847044043243,542.1839255653322,542.2839865237474,543.291088026017,left,1,0.4638329856097698,0.35,,,,,,,,,,,s004,001,2024-06-19_14h58.56.166,simplestop_skeleton,2022.2.2,60.20695538024777,
$currentCorrectResponse,$currentGoStim,,,,,,,,,0,0,0,0,11,0,44,0,,,,,,,,,543.2717962414026,stop,squareblack.png,right,0.35,,,,,,,,,,,,,,,0.002398371696472168,0.4889189153909683,0.8390559889376163,545.7737595774233,test,1,,,,,,,,,,543.291088026017,543.7869092896581,543.7869092896581,543.8039643131196,544.1375731676817,544.6380018182099,544.7886995747685,545.7933894656599,None,0,,0.4,,,,,,,,,,,s004,001,2024-06-19_14h58.56.166,simplestop_skeleton,2022.2.2,60.20695538024777,
None,None,,,,,,,,,0,0,0,0,11,1,45,1,,,,,,,,,545.774192545563,stop,circleblack.png,left,0.4,,,,,,,,,,,,,,,0.0018695741891860962,0.4882889948785305,0.8898934163153172,548.277276955545,test,1,,,,,,,,,,545.7933894656599,546.2884876132011,546.2884876132011,546.3052116781473,546.6897912062705,547.1916250549257,547.2912025861442,548.2964198254049,left,1,0.5482197292149067,0.35,,,,,,,,,,,s004,001,2024-06-19_14h58.56.166,simplestop_skeleton,2022.2.2,60.20695538024777,
None,None,,,,,,,,,0,0,0,0,11,2,46,2,,,,,,,,,548.2777130417526,go,squareblack.png,right,0.35,,,,,,,,,,,,,,,0.0024699196219444275,0.48909351974725723,,550.7795971147716,test,1,,,,,,,,,,548.2964198254049,548.7926468141377,548.7926468141377,548.8096781522036,549.1435077153146,549.6435120366514,549.7923664748669,550.7990099601448,right,1,0.5796163864433765,0.35,,,,,,,,,,,s004,001,2024-06-19_14h58.56.166,simplestop_skeleton,2022.2.2,60.20695538024777,
None,None,,,,,,,,,0,0,0,0,11,3,47,1,,,,,,,,,550.7800255231559,go,circleblack.png,left,0.35,,,,,,,,,,,,,,,0.0018400438129901886,0.48966943100094795,,553.2822937071323,test,1,,,,,,,,,,550.7990099601448,551.2953438088298,551.2953438088298,551.3119556903839,551.6456557027996,552.146455090493,552.2964579388499,553.3032524995506,left,1,0.7971748448908329,0.35,,,,,,,,,,,s004,001,2024-06-19_14h58.56.166,simplestop_skeleton,2022.2.2,60.20695538024777,
,,,,,,,,,,0,0,0,0,,,,,,"[{'fileName': 'squareblack.png', 'correct_response': 'right', 'condition': 'stop'}, {'fileName': 'squareblack.png', 'correct_response': 'right', 'condition': 'go'}, {'fileName': 'circleblack.png', 'correct_response': 'left', 'condition': 'stop'}, {'fileName': 'squareblack.png', 'correct_response': 'right', 'condition': 'go'}, {'fileName': 'squareblack.png', 'correct_response': 'right', 'condition': 'go'}, {'fileName': 'squareblack.png', 'correct_response': 'right', 'condition': 'go'}, {'fileName': 'circleblack.png', 'correct_response': 'left', 'condition': 'go'}, {'fileName': 'squareblack.png', 'correct_response': 'right', 'condition': 'stop'}, {'fileName': 'circleblack.png', 'correct_response': 'left', 'condition': 'stop'}, {'fileName': 'circleblack.png', 'correct_response': 'left', 'condition': 'go'}, {'fileName': 'circleblack.png', 'correct_response': 'left', 'condition': 'go'}, {'fileName': 'circleblack.png', 'correct_response': 'left', 'condition': 'go'}, {'fileName': 'squareblack.png', 'correct_response': 'right', 'condition': 'go'}, {'fileName': 'squareblack.png', 'correct_response': 'right', 'condition': 'go'}, {'fileName': 'circleblack.png', 'correct_response': 'left', 'condition': 'go'}, {'fileName': 'squareblack.png', 'correct_response': 'right', 'condition': 'go'}, {'fileName': 'circleblack.png', 'correct_response': 'left', 'condition': 'go'}, {'fileName': 'squareblack.png', 'correct_response': 'right', 'condition': 'go'}, {'fileName': 'circleblack.png', 'correct_response': 'left', 'condition': 'stop'}, {'fileName': 'circleblack.png', 'correct_response': 'left', 'condition': 'go'}, {'fileName': 'squareblack.png', 'correct_response': 'right', 'condition': 'stop'}, {'fileName': 'circleblack.png', 'correct_response': 'left', 'condition': 'go'}, {'fileName': 'circleblack.png', 'correct_response': 'left', 'condition': 'stop'}, {'fileName': 'squareblack.png', 'correct_response': 'right', 'condition': 'stop'}, {'fileName': 'circleblack.png', 'correct_response': 'left', 'condition': 'go'}, {'fileName': 'circleblack.png', 'correct_response': 'left', 'condition': 'go'}, {'fileName': 'circleblack.png', 'correct_response': 'left', 'condition': 'go'}, {'fileName': 'squareblack.png', 'correct_response': 'right', 'condition': 'go'}, {'fileName': 'squareblack.png', 'correct_response': 'right', 'condition': 'stop'}, {'fileName': 'squareblack.png', 'correct_response': 'right', 'condition': 'go'}, {'fileName': 'squareblack.png', 'correct_response': 'right', 'condition': 'go'}, {'fileName': 'squareblack.png', 'correct_response': 'right', 'condition': 'go'}, {'fileName': 'circleblack.png', 'correct_response': 'left', 'condition': 'go'}, {'fileName': 'circleblack.png', 'correct_response': 'left', 'condition': 'stop'}, {'fileName': 'squareblack.png', 'correct_response': 'right', 'condition': 'stop'}, {'fileName': 'circleblack.png', 'correct_response': 'left', 'condition': 'stop'}, {'fileName': 'squareblack.png', 'correct_response': 'right', 'condition': 'go'}, {'fileName': 'circleblack.png', 'correct_response': 'left', 'condition': 'stop'}, {'fileName': 'squareblack.png', 'correct_response': 'right', 'condition': 'stop'}, {'fileName': 'squareblack.png', 'correct_response': 'right', 'condition': 'go'}, {'fileName': 'circleblack.png', 'correct_response': 'left', 'condition': 'go'}, {'fileName': 'circleblack.png', 'correct_response': 'left', 'condition': 'go'}, {'fileName': 'squareblack.png', 'correct_response': 'right', 'condition': 'stop'}, {'fileName': 'squareblack.png', 'correct_response': 'right', 'condition': 'go'}, {'fileName': 'squareblack.png', 'correct_response': 'right', 'condition': 'go'}, {'fileName': 'circleblack.png', 'correct_response': 'left', 'condition': 'go'}, {'fileName': 'circleblack.png', 'correct_response': 'left', 'condition': 'stop'}, {'fileName': 'circleblack.png', 'correct_response': 'left', 'condition': 'go'}]",,,,,,,,,,,,,,,,,,,,,,,,,,,,,,,,,,,,,,,,,,,,,,,,,,,,,553.3032524995506,553.3032524995506,return,4.51733436062932,,,,,,,s004,001,2024-06-19_14h58.56.166,simplestop_skeleton,2022.2.2,60.20695538024777,
$currentCorrectResponse,$currentGoStim,,,,,,,,,1,0,1,0,0,0,0,0,,,,,,,,,557.8480542339385,stop,squareblack.png,right,0.35,,,,,,,,,,,,,,,0.0035476647317409515,0.49171309918165207,0.8430376313626766,560.3569322414696,test,2,,,,,,,,,,557.871550720185,558.3685252480209,558.3685252480209,558.3856061771512,558.7205587737262,559.2207920216024,559.3709424622357,560.3761919662356,right,1,0.479575764387846,0.3,,,,,,,,,,,s004,001,2024-06-19_14h58.56.166,simplestop_skeleton,2022.2.2,60.20695538024777,
None,None,,,,,,,,,1,0,1,0,0,1,1,3,,,,,,,,,560.3574771732092,go,squareblack.png,right,0.3,,,,,,,,,,,,,,,0.001350492238998413,0.4896222651004791,,562.8594589941204,test,2,,,,,,,,,,560.3761919662356,560.8729913420975,560.8729913420975,560.8893096260726,561.1733532622457,561.6888710930943,561.8762122541666,562.8857837207615,right,1,0.34561850130558014,0.3,,,,,,,,,,,s004,001,2024-06-19_14h58.56.166,simplestop_skeleton,2022.2.2,60.20695538024777,
$currentCorrectResponse,$currentGoStim,,,,,,,,,1,0,1,0,0,2,2,0,,,,,,,,,562.8598979301751,stop,circleblack.png,left,0.3,,,,,,,,,,,,,,,0.009351469576358795,0.4896102137863636,0.7898908592760563,565.3623291887343,test,2,,,,,,,,,,562.8857837207615,563.375494658947,563.375494658947,563.3921119347215,563.6757819727063,564.1750689037144,564.3774214722216,565.3814462609589,left,1,0.3343399874866009,0.25,,,,,,,,,,,s004,001,2024-06-19_14h58.56.166,simplestop_skeleton,2022.2.2,60.20695538024777,
$currentCorrectResponse,$currentGoStim,,,,,,,,,1,0,1,0,0,3,3,0,,,,,,,,,565.3627601601183,go,squareblack.png,right,0.25,,,,,,,,,,,,,,,0.0016676373779773712,0.4896436557173729,,567.8648159429431,test,2,,,,,,,,,,565.3814462609589,565.8786878325045,565.8786878325045,565.8947924934328,566.1283696219325,566.6283547244966,566.8797348067164,567.8849544115365,right,1,0.6650737002491951,0.25,,,,,,,,,,,s004,001,2024-06-19_14h58.56.166,simplestop_skeleton,2022.2.2,60.20695538024777,
None,None,,,,,,,,,1,0,1,0,1,0,4,1,,,,,,,,,567.865246489644,go,squareblack.png,right,0.25,,,,,,,,,,,,,,,0.0015793442726135254,0.48913488909602165,,570.3677584305406,test,2,,,,,,,,,,567.8849544115365,568.3808622471988,568.3808622471988,568.3975249193609,568.6314281448722,569.1316729784012,569.3805775493383,570.3865900412202,right,1,0.47937745600938797,0.25,,,,,,,,,,,s004,001,2024-06-19_14h58.56.166,simplestop_skeleton,2022.2.2,60.20695538024777,
None,None,,,,,,,,,1,0,1,0,1,1,5,2,,,,,,,,,570.3682833723724,go,squareblack.png,right,0.25,,,,,,,,,,,,,,,0.0013356171548366547,0.49009446054697037,,572.870710324496,test,2,,,,,,,,,,570.3865900412202,570.8836073428392,570.8836073428392,570.9006979875267,571.1337932050228,571.635206963867,571.8834665678442,572.8953329958022,right,1,0.672646775841713,0.25,,,,,,,,,,,s004,001,2024-06-19_14h58.56.166,simplestop_skeleton,2022.2.2,60.20695538024777,
None,None,,,,,,,,,1,0,1,0,1,2,6,2,,,,,,,,,572.8711579889059,go,circleblack.png,left,0.25,,,,,,,,,,,,,,,0.007952902466058731,0.490051694214344,,575.3736621513963,test,2,,,,,,,,,,572.8953329958022,573.3870054632425,573.3870054632425,573.4037151932716,573.6353688687086,574.1367293819785,574.3877518288791,575.3929059542716,left,1,0.6073311604559422,0.25,,,,,,,,,,,s004,001,2024-06-19_14h58.56.166,simplestop_skeleton,2022.2.2,60.20695538024777,
None,None,,,,,,,,,1,0,1,0,1,3,7,3,,,,,,,,,575.3740993104875,stop,squareblack.png,right,0.25,,,,,,,,,,,,,,,0.0017408356070518494,0.48948677629232407,0.7395796217024326,577.8747878409922,test,2,,,,,,,,,,575.3929059542716,575.8893208019435,575.8893208019435,575.9058241508901,576.1394922919571,576.6400785930455,576.890715867281,577.8920623101294,None,0,,0.3,,,,,,,,,,,s004,001,2024-06-19_14h58.56.166,simplestop_skeleton,2022.2.2,60.20695538024777,
None,None,,,,,,,,,1,0,1,0,2,0,8,3,,,,,,,,,577.8752423413098,stop,circleblack.png,left,0.3,,,,,,,,,,,,,,,0.0017487257719039917,0.49011538177728653,0.7896430119872093,580.3787911646068,test,2,,,,,,,,,,577.8920623101294,578.3921205066144,578.3921205066144,578.3921205066144,578.6908931061625,579.1932082213461,579.393134560436,580.3980240188539,None,0,,0.35,,,,,,,,,,,s004,001,2024-06-19_14h58.56.166,simplestop_skeleton,2022.2.2,60.20695538024777,
None,None,,,,,,,,,1,0,1,0,2,1,9,3,,,,,,,,,580.3792205005884,go,circleblack.png,left,0.35,,,,,,,,,,,,,,,0.001388590782880783,0.48949385061860085,,582.8813624605536,test,2,,,,,,,,,,580.3980240188539,580.894922170788,580.894922170788,580.9116011224687,581.2456863299012,581.7610123157501,581.8947262018919,582.90072632581,left,1,0.339047122746706,0.35,,,,,,,,,,,s004,001,2024-06-19_14h58.56.166,simplestop_skeleton,2022.2.2,60.20695538024777,
None,None,,,,,,,,,1,0,1,0,2,2,10,2,,,,,,,,,582.881787262857,go,circleblack.png,left,0.35,,,,,,,,,,,,,,,0.0014574863016605377,0.48972516506910324,,585.3841850757599,test,2,,,,,,,,,,582.90072632581,583.3979649282992,583.3979649282992,583.4142265729606,583.7483123801649,584.2637670002878,584.3971947394311,585.403035979718,left,1,0.40078524500131607,0.35,,,,,,,,,,,s004,001,2024-06-19_14h58.56.166,simplestop_skeleton,2022.2.2,60.20695538024777,
None,None,,,,,,,,,1,0,1,0,2,3,11,3,,,,,,,,,585.3846133202314,go,circleblack.png,left,0.35,,,,,,,,,,,,,,,0.0012520551681518555,0.48993296176195145,,587.8869592137635,test,2,,,,,,,,,,585.403035979718,585.9002740085125,585.9002740085125,585.9171035662293,586.2493338398635,586.7504722103477,586.9014016389847,587.910947907716,left,1,0.6498365513980389,0.35,,,,,,,,,,,s004,001,2024-06-19_14h58.56.166,simplestop_skeleton,2022.2.2,60.20695538024777,
None,None,,,,,,,,,1,0,1,0,3,0,12,1,,,,,,,,,587.8873847424984,go,squareblack.png,right,0.35,,,,,,,,,,,,,,,0.007250998169183731,0.48956873267889023,,590.3899849765003,test,2,,,,,,,,,,587.910947907716,588.4030311144888,588.4030311144888,588.4195501692593,588.7531832829118,589.2524891458452,589.4027169682086,590.4088277295232,right,1,0.4085732363164425,0.35,,,,,,,,,,,s004,001,2024-06-19_14h58.56.166,simplestop_skeleton,2022.2.2,60.20695538024777,
None,None,,,,,,,,,1,0,1,0,3,1,13,1,,,,,,,,,590.3904102891684,go,squareblack.png,right,0.35,,,,,,,,,,,,,,,0.0013268664479255676,0.489701721817255,,592.8925116285682,test,2,,,,,,,,,,590.4088277295232,590.9060853943229,590.9060853943229,590.92247454077,591.2560919448733,591.7552926465869,591.9055172950029,592.9119280017912,right,1,0.5125096589326859,0.35,,,,,,,,,,,s004,001,2024-06-19_14h58.56.166,simplestop_skeleton,2022.2.2,60.20695538024777,
None,None,,,,,,,,,1,0,1,0,3,2,14,2,,,,,,,,,592.8929390423,go,circleblack.png,left,0.35,,,,,,,,,,,,,,,0.0019545890390872955,0.48994340747594833,,595.3951851390302,test,2,,,,,,,,,,592.9119280017912,593.408701762557,593.408701762557,593.4254596866667,593.759631652385,594.2748689725995,594.4089576490223,595.4142700023949,left,1,0.34940582513809204,0.35,,,,,,,,,,,s004,001,2024-06-19_14h58.56.166,simplestop_skeleton,2022.2.2,60.20695538024777,
$currentCorrectResponse,$currentGoStim,,,,,,,,,1,0,1,0,3,3,15,0,,,,,,,,,595.3956197872758,go,squareblack.png,right,0.35,,,,,,,,,,,,,,,0.0016404986381530762,0.4897334761917591,,597.898005772382,test,2,,,,,,,,,,595.4142700023949,595.9111667275429,595.9111667275429,595.9280661009252,596.2626563049853,596.7774632833898,596.9113073535264,597.9175123944879,right,1,0.3002246841788292,0.35,,,,,,,,,,,s004,001,2024-06-19_14h58.56.166,simplestop_skeleton,2022.2.2,60.20695538024777,
None,None,,,,,,,,,1,0,1,0,4,0,16,3,,,,,,,,,597.8984339870512,go,circleblack.png,left,0.35,,,,,,,,,,,,,,,0.0019550658762454987,0.4896598309278488,,600.4007886201143,test,2,,,,,,,,,,597.9175123944879,598.4142420440912,598.4142420440912,598.4307614080608,598.7644235379994,599.2635568603873,599.4142322801054,600.4201028048992,left,1,0.37149476632475853,0.35,,,,,,,,,,,s004,001,2024-06-19_14h58.56.166,simplestop_skeleton,2022.2.2,60.20695538024777,
None,None,,,,,,,,,1,0,1,0,4,1,17,3,,,,,,,,,600.4012297578156,go,squareblack.png,right,0.35,,,,,,,,,,,,,,,0.0016332566738128662,0.48951657116413116,,602.9038163609803,test,2,,,,,,,,,,600.4201028048992,600.9170740060508,600.9170740060508,600.9334850981832,601.267129752785,601.7663800083101,601.9166902303696,602.9232812412083,right,1,0.31404494121670723,0.35,,,,,,,,,,,s004,001,2024-06-19_14h58.56.166,simplestop_skeleton,2022.2.2,60.20695538024777,
None,None,,,,,,,,,1,0,1,0,4,2,18,1,,,,,,,,,602.904339633882,stop,circleblack.png,left,0.35,,,,,,,,,,,,,,,0.0018426626920700073,0.48932044208049774,0.8397648446261883,605.406491689384,test,2,,,,,,,,,,602.9232812412083,603.4200161583722,603.4200161583722,603.4363675191998,603.7698958031833,604.2703298404813,604.4205251000822,605.4254282191396,left,1,0.2855808660387993,0.3,,,,,,,,,,,s004,001,2024-06-19_14h58.56.166,simplestop_skeleton,2022.2.2,60.20695538024777,
None,None,,,,,,,,,1,0,1,0,4,3,19,2,,,,,,,,,605.4069255329669,go,circleblack.png,left,0.3,,,,,,,,,,,,,,,0.001395590603351593,0.48935969173908234,,607.9088931530714,test,2,,,,,,,,,,605.4254282191396,605.922335781157,605.922335781157,605.9391452148557,606.2226365059614,606.7384714856744,606.9219905175269,607.9305681847036,left,1,0.46755703166127205,0.3,,,,,,,,,,,s004,001,2024-06-19_14h58.56.166,simplestop_skeleton,2022.2.2,60.20695538024777,
$currentCorrectResponse,$currentGoStim,,,,,,,,,1,0,1,0,5,0,20,0,,,,,,,,,607.9093259237707,stop,squareblack.png,right,0.3,,,,,,,,,,,,,,,0.002524659037590027,0.4878753162920475,0.7881225012242794,610.4120604023337,test,2,,,,,,,,,,607.9305681847036,608.4254170618951,608.4254170618951,608.4417328797281,608.7254510261118,609.2245100773871,609.4269844591618,610.4314958155155,right,1,0.3331178165972233,0.25,,,,,,,,,,,s004,001,2024-06-19_14h58.56.166,simplestop_skeleton,2022.2.2,60.20695538024777,
$currentCorrectResponse,$currentGoStim,,,,,,,,,1,0,1,0,5,1,21,0,,,,,,,,,610.4124877080321,go,circleblack.png,left,0.25,,,,,,,,,,,,,,,0.0018437206745147705,0.4893529340624809,,612.9144675210118,test,2,,,,,,,,,,610.4314958155155,610.9279434494674,610.9279434494674,610.9448519274592,611.1784864775836,611.6940090171993,611.9275553673506,612.9334044978023,left,1,0.3894324079155922,0.25,,,,,,,,,,,s004,001,2024-06-19_14h58.56.166,simplestop_skeleton,2022.2.2,60.20695538024777,
None,None,,,,,,,,,1,0,1,0,5,2,22,1,,,,,,,,,612.9148960411549,stop,circleblack.png,left,0.25,,,,,,,,,,,,,,,0.0014424659311771393,0.48990926146507263,0.7402607761323452,615.4175508506596,test,2,,,,,,,,,,612.9334044978023,613.4306067675352,613.4306067675352,613.447221621871,613.6808851137757,614.1816224455833,614.4317609071732,615.4378639124334,None,0,,0.3,,,,,,,,,,,s004,001,2024-06-19_14h58.56.166,simplestop_skeleton,2022.2.2,60.20695538024777,
None,None,,,,,,,,,1,0,1,0,5,3,23,2,,,,,,,,,615.4179840087891,stop,squareblack.png,right,0.3,,,,,,,,,,,,,,,0.001980103552341461,0.4879627414047718,0.7894623167812824,617.920553997159,test,2,,,,,,,,,,615.4378639124334,615.9319786913693,615.9319786913693,615.9486699961126,616.2334114424884,616.7348616793752,616.9346316121519,617.9403210878372,right,1,0.4372339993715286,0.25,,,,,,,,,,,s004,001,2024-06-19_14h58.56.166,simplestop_skeleton,2022.2.2,60.20695538024777,
None,None,,,,,,,,,1,0,1,0,6,0,24,2,,,,,,,,,617.9210301712155,go,circleblack.png,left,0.25,,,,,,,,,,,,,,,0.0026766695082187653,0.4892202466726303,,620.4232867434621,test,2,,,,,,,,,,617.9403210878372,618.4363155066967,618.4363155066967,618.4528169296682,618.6864955127239,619.1855613403022,619.4367683716118,620.4421001262963,left,1,0.45632536336779594,0.25,,,,,,,,,,,s004,001,2024-06-19_14h58.56.166,simplestop_skeleton,2022.2.2,60.20695538024777,
None,None,,,,,,,,,1,0,1,0,6,1,25,1,,,,,,,,,620.4237156361341,go,circleblack.png,left,0.25,,,,,,,,,,,,,,,0.001393694430589676,0.48923009261488914,,622.9256442375481,test,2,,,,,,,,,,620.4421001262963,620.9394377656281,620.9394377656281,620.955604121089,621.1892270594835,621.690356541425,621.9385648481548,622.9448163770139,left,1,0.5574077926576138,0.25,,,,,,,,,,,s004,001,2024-06-19_14h58.56.166,simplestop_skeleton,2022.2.2,60.20695538024777,
None,None,,,,,,,,,1,0,1,0,6,2,26,1,,,,,,,,,622.9260748885572,go,circleblack.png,left,0.25,,,,,,,,,,,,,,,0.0013331733644008636,0.48966454714536667,,625.4283488206565,test,2,,,,,,,,,,622.9448163770139,623.4421319104731,623.4421319104731,623.458546500653,623.6920904256403,624.1932702288032,624.4413991123438,625.448012650013,left,1,0.6548266150057316,0.25,,,,,,,,,,,s004,001,2024-06-19_14h58.56.166,simplestop_skeleton,2022.2.2,60.20695538024777,
$currentCorrectResponse,$currentGoStim,,,,,,,,,1,0,1,0,6,3,27,0,,,,,,,,,625.4287871010602,go,squareblack.png,right,0.25,,,,,,,,,,,,,,,0.0017781257629394531,0.4896509014070034,,627.9314716011286,test,2,,,,,,,,,,625.448012650013,625.9444770812988,625.9444770812988,625.9613217525184,626.1948885135353,626.7106243632734,626.9443894959986,627.9503132663667,right,1,0.3073992282152176,0.25,,,,,,,,,,,s004,001,2024-06-19_14h58.56.166,simplestop_skeleton,2022.2.2,60.20695538024777,
$currentCorrectResponse,$currentGoStim,,,,,,,,,1,0,1,0,7,0,28,0,,,,,,,,,627.9318988956511,stop,squareblack.png,right,0.25,,,,,,,,,,,,,,,0.0013538748025894165,0.48949260264635086,0.739920474588871,630.433789934963,test,2,,,,,,,,,,627.9503132663667,628.4475362114608,628.4475362114608,628.4639268182218,628.6977799646556,629.1984861530364,629.4483744315803,630.4526888281107,right,1,0.7381281778216362,0.2,,,,,,,,,,,s004,001,2024-06-19_14h58.56.166,simplestop_skeleton,2022.2.2,60.20695538024777,
None,None,,,,,,,,,1,0,1,0,7,1,29,1,,,,,,,,,630.4343639351428,go,squareblack.png,right,0.2,,,,,,,,,,,,,,,0.0012852884829044342,0.4894942604005337,,632.9363786838949,test,2,,,,,,,,,,630.4526888281107,630.9499067589641,630.9499067589641,630.966599855572,631.1500330157578,631.6492515206337,631.9502610899508,632.9547672905028,right,1,0.361150648444891,0.2,,,,,,,,,,,s004,001,2024-06-19_14h58.56.166,simplestop_skeleton,2022.2.2,60.20695538024777,
None,None,,,,,,,,,1,0,1,0,7,2,30,2,,,,,,,,,632.9368085488677,go,squareblack.png,right,0.2,,,,,,,,,,,,,,,0.0011962465941905975,0.4902155175805092,,635.4396841041744,test,2,,,,,,,,,,632.9547672905028,633.452713187784,633.452713187784,633.4693296551704,633.6528847664595,634.1519426330924,634.4523126333952,635.4588425904512,right,1,0.37918927520513535,0.2,,,,,,,,,,,s004,001,2024-06-19_14h58.56.166,simplestop_skeleton,2022.2.2,60.20695538024777,
None,None,,,,,,,,,1,0,1,0,7,3,31,2,,,,,,,,,635.4401910193264,go,squareblack.png,right,0.2,,,,,,,,,,,,,,,0.001372210681438446,0.48934944346547127,,637.9421731717885,test,2,,,,,,,,,,635.4588425904512,635.9557788297534,635.9557788297534,635.9722330756485,636.1559695601463,636.6568545550108,636.9551784321666,637.9671260640025,right,1,0.4998839795589447,0.2,,,,,,,,,,,s004,001,2024-06-19_14h58.56.166,simplestop_skeleton,2022.2.2,60.20695538024777,
$currentCorrectResponse,$currentGoStim,,,,,,,,,1,0,1,0,8,0,32,0,,,,,,,,,637.9426139555871,go,circleblack.png,left,0.2,,,,,,,,,,,,,,,0.008522193878889084,0.48974455147981644,,640.445065934211,test,2,,,,,,,,,,637.9671260640025,638.4585230946541,638.4585230946541,638.4752598926425,638.6589688137174,639.1576607041061,639.4592867605388,640.4643532000482,left,1,0.6555545516312122,0.2,,,,,,,,,,,s004,001,2024-06-19_14h58.56.166,simplestop_skeleton,2022.2.2,60.20695538024777,
None,None,,,,,,,,,1,0,1,0,8,1,33,3,,,,,,,,,640.4455206170678,stop,circleblack.png,left,0.2,,,,,,,,,,,,,,,0.0014188960194587708,0.48958567902445793,0.6884195655584335,642.9478444606066,test,2,,,,,,,,,,640.4643532000482,640.9610857218504,640.9610857218504,640.9776979722083,641.1598792634904,641.661482103169,641.962273992598,642.9675023779273,left,1,0.27169205620884895,0.15,,,,,,,,,,,s004,001,2024-06-19_14h58.56.166,simplestop_skeleton,2022.2.2,60.20695538024777,
None,None,,,,,,,,,1,0,1,0,8,2,34,2,,,,,,,,,642.9482750557363,stop,squareblack.png,right,0.15,,,,,,,,,,,,,,,0.0017506517469882965,0.4894855171442032,0.6398473791778088,645.4503012597561,test,2,,,,,,,,,,642.9675023779273,643.4639137387276,643.4639137387276,643.4808391444385,643.6142388321459,644.1297088675201,644.4637009091675,645.4695979654789,right,1,0.31295109540224075,0.1,,,,,,,,,,,s004,001,2024-06-19_14h58.56.166,simplestop_skeleton,2022.2.2,60.20695538024777,
None,None,,,,,,,,,1,0,1,0,8,3,35,1,,,,,,,,,645.4507227800786,stop,circleblack.png,left,0.1,,,,,,,,,,,,,,,0.001727517694234848,0.49017588794231415,0.5899705626070499,647.953005887568,test,2,,,,,,,,,,645.4695979654789,645.9664599373937,645.9664599373937,645.9832212589681,646.0666007213295,646.5656508542597,646.9666769430041,647.9722481407225,None,0,,0.15,,,,,,,,,,,s004,001,2024-06-19_14h58.56.166,simplestop_skeleton,2022.2.2,60.20695538024777,
None,None,,,,,,,,,1,0,1,0,9,0,36,2,,,,,,,,,647.9534438215196,go,squareblack.png,right,0.15,,,,,,,,,,,,,,,0.0016550682485103607,0.4900362119078636,,650.4562228098512,test,2,,,,,,,,,,647.9722481407225,648.4691862501204,648.4691862501204,648.4860240370035,648.6193332411349,649.1209192983806,649.4689481258392,650.4754236601293,right,1,0.4215516522526741,0.15,,,,,,,,,,,s004,001,2024-06-19_14h58.56.166,simplestop_skeleton,2022.2.2,60.20695538024777,
None,None,,,,,,,,,1,0,1,0,9,1,37,1,,,,,,,,,650.4566599726677,stop,circleblack.png,left,0.15,,,,,,,,,,,,,,,0.001902800053358078,0.4895377717912197,0.6398675292730331,652.9591847248375,test,2,,,,,,,,,,650.4754236601293,650.9719195328653,650.9719195328653,650.9887136295438,651.1223684512079,651.6213123723865,651.9725517071784,652.9789110608399,None,0,,0.2,,,,,,,,,,,s004,001,2024-06-19_14h58.56.166,simplestop_skeleton,2022.2.2,60.20695538024777,
None,None,,,,,,,,,1,0,1,0,9,2,38,3,,,,,,,,,652.95963158831,stop,squareblack.png,right,0.2,,,,,,,,,,,,,,,0.0023510530591011047,0.4891142100095749,0.6892093196511269,655.4616319164634,test,2,,,,,,,,,,652.9789110608399,653.4748573563993,653.4748573563993,653.4913592785597,653.675161447376,654.1754943020642,654.4760346971452,655.4805842600763,None,0,,0.25,,,,,,,,,,,s004,001,2024-06-19_14h58.56.166,simplestop_skeleton,2022.2.2,60.20695538024777,
None,None,,,,,,,,,1,0,1,0,9,3,39,3,,,,,,,,,655.4620747938752,go,squareblack.png,right,0.25,,,,,,,,,,,,,,,0.0013417266309261322,0.4896278344094753,,657.9642446935177,test,2,,,,,,,,,,655.4805842600763,655.9775252230465,655.9775252230465,655.9940744712949,656.2279430143535,656.7282447107136,656.9771512784064,657.9838176108897,right,1,0.48528679087758064,0.25,,,,,,,,,,,s004,001,2024-06-19_14h58.56.166,simplestop_skeleton,2022.2.2,60.20695538024777,
None,None,,,,,,,,,1,0,1,0,10,0,40,1,,,,,,,,,657.9647476673126,go,circleblack.png,left,0.25,,,,,,,,,,,,,,,0.0019158422946929932,0.48951176181435585,,660.4670209474862,test,2,,,,,,,,,,657.9838176108897,658.4802931286395,658.4802931286395,658.49697503075,658.7304797396064,659.2314552441239,659.4798517934978,660.4863883852959,left,1,0.6195132546126842,0.25,,,,,,,,,,,s004,001,2024-06-19_14h58.56.166,simplestop_skeleton,2022.2.2,60.20695538024777,
None,None,,,,,,,,,1,0,1,0,10,1,41,2,,,,,,,,,660.4674509391189,go,circleblack.png,left,0.25,,,,,,,,,,,,,,,0.0013809576630592346,0.4894665703177452,,662.9697088375688,test,2,,,,,,,,,,660.4863883852959,660.9831601455808,660.9831601455808,660.9997165985405,661.2335174009204,661.7490642219782,661.9827291630208,662.9889522977173,left,1,0.4238629676401615,0.25,,,,,,,,,,,s004,001,2024-06-19_14h58.56.166,simplestop_skeleton,2022.2.2,60.20695538024777,
None,None,,,,,,,,,1,0,1,0,10,2,42,3,,,,,,,,,662.9701475054026,stop,squareblack.png,right,0.25,,,,,,,,,,,,,,,0.0016362108290195465,0.4897085726261139,0.739860650151968,665.4728565998375,test,2,,,,,,,,,,662.9889522977173,663.4857605174184,663.4857605174184,663.5024614594877,663.7359883375466,664.2366977110505,664.4870119988918,665.4917443357408,None,0,,0.3,,,,,,,,,,,s004,001,2024-06-19_14h58.56.166,simplestop_skeleton,2022.2.2,60.20695538024777,
$currentCorrectResponse,$currentGoStim,,,,,,,,,1,0,1,0,10,3,43,0,,,,,,,,,665.4732951186597,go,squareblack.png,right,0.3,,,,,,,,,,,,,,,0.0012787021696567535,0.48970798030495644,,667.9753175452352,test,2,,,,,,,,,,665.4917443357408,665.9887975342572,665.9887975342572,666.0054987259209,666.2892589569092,666.7929575331509,666.9898582100868,667.9943876452744,right,1,0.5491512306034565,0.3,,,,,,,,,,,s004,001,2024-06-19_14h58.56.166,simplestop_skeleton,2022.2.2,60.20695538024777,
None,None,,,,,,,,,1,0,1,0,11,0,44,1,,,,,,,,,667.9757418893278,go,squareblack.png,right,0.3,,,,,,,,,,,,,,,0.0013189055025577545,0.48951613157987595,,670.478220321238,test,2,,,,,,,,,,667.9943876452744,668.4913208223879,668.4913208223879,668.5079474970698,668.7919314540923,669.3076352514327,669.4911209903657,670.4977744668722,right,1,0.6432215347886086,0.3,,,,,,,,,,,s004,001,2024-06-19_14h58.56.166,simplestop_skeleton,2022.2.2,60.20695538024777,
None,None,,,,,,,,,1,0,1,0,11,1,45,3,,,,,,,,,670.4786615371704,go,circleblack.png,left,0.3,,,,,,,,,,,,,,,0.0020293183624744415,0.48992445692420006,,672.9808953888714,test,2,,,,,,,,,,670.4977744668722,670.9942898079753,670.9942898079753,671.010691203177,671.2945256344974,671.7936192117631,671.99378663674,673.0002932287753,left,1,0.41785765439271927,0.3,,,,,,,,,,,s004,001,2024-06-19_14h58.56.166,simplestop_skeleton,2022.2.2,60.20695538024777,
$currentCorrectResponse,$currentGoStim,,,,,,,,,1,0,1,0,11,2,46,0,,,,,,,,,672.9814045913517,stop,circleblack.png,left,0.3,,,,,,,,,,,,,,,0.001346677541732788,0.4894006922841072,0.7897100448608398,675.4839255362749,test,2,,,,,,,,,,673.0002932287753,673.4968741573393,673.4968741573393,673.5137928985059,673.7973409928381,674.2964904047549,674.4966390132904,675.5028278976679,left,1,0.42406247556209564,0.25,,,,,,,,,,,s004,001,2024-06-19_14h58.56.166,simplestop_skeleton,2022.2.2,60.20695538024777,
$currentCorrectResponse,$currentGoStim,,,,,,,,,1,0,1,0,11,3,47,0,,,,,,,,,675.4843586310744,go,circleblack.png,left,0.25,,,,,,,,,,,,,,,0.0013471655547618866,0.4894692935049534,,677.9864357076585,test,2,,,,,,,,,,675.5028278976679,675.9998579621315,675.9998579621315,676.0166196525097,676.2500871531665,676.7504686154425,676.999492097646,678.0021345205605,left,1,0.43460148200392723,0.25,,,,,,,,,,,s004,001,2024-06-19_14h58.56.166,simplestop_skeleton,2022.2.2,60.20695538024777,
,,,,,,,,,,1,0,1,0,,,,,,,,,,,,,,,,,,,,,,,,,,,,,,,,,,,,,,,,,,,,,,,,,,,,,,,,,,,678.0021345205605,678.0021345205605,return,2.5028868317604065,"[{'fileName': 'squareblack.png', 'correct_response': 'right', 'condition': 'stop'}, {'fileName': 'squareblack.png', 'correct_response': 'right', 'condition': 'stop'}, {'fileName': 'circleblack.png', 'correct_response': 'left', 'condition': 'go'}, {'fileName': 'circleblack.png', 'correct_response': 'left', 'condition': 'go'}, {'fileName': 'squareblack.png', 'correct_response': 'right', 'condition': 'go'}, {'fileName': 'squareblack.png', 'correct_response': 'right', 'condition': 'go'}, {'fileName': 'squareblack.png', 'correct_response': 'right', 'condition': 'go'}, {'fileName': 'circleblack.png', 'correct_response': 'left', 'condition': 'go'}, {'fileName': 'circleblack.png', 'correct_response': 'left', 'condition': 'go'}, {'fileName': 'circleblack.png', 'correct_response': 'left', 'condition': 'stop'}, {'fileName': 'squareblack.png', 'correct_response': 'right', 'condition': 'go'}, {'fileName': 'circleblack.png', 'correct_response': 'left', 'condition': 'stop'}, {'fileName': 'circleblack.png', 'correct_response': 'left', 'condition': 'go'}, {'fileName': 'circleblack.png', 'correct_response': 'left', 'condition': 'go'}, {'fileName': 'squareblack.png', 'correct_response': 'right', 'condition': 'go'}, {'fileName': 'circleblack.png', 'correct_response': 'left', 'condition': 'go'}, {'fileName': 'squareblack.png', 'correct_response': 'right', 'condition': 'go'}, {'fileName': 'circleblack.png', 'correct_response': 'left', 'condition': 'stop'}, {'fileName': 'circleblack.png', 'correct_response': 'left', 'condition': 'stop'}, {'fileName': 'squareblack.png', 'correct_response': 'right', 'condition': 'stop'}, {'fileName': 'squareblack.png', 'correct_response': 'right', 'condition': 'stop'}, {'fileName': 'squareblack.png', 'correct_response': 'right', 'condition': 'go'}, {'fileName': 'circleblack.png', 'correct_response': 'left', 'condition': 'go'}, {'fileName': 'squareblack.png', 'correct_response': 'right', 'condition': 'go'}, {'fileName': 'circleblack.png', 'correct_response': 'left', 'condition': 'go'}, {'fileName': 'circleblack.png', 'correct_response': 'left', 'condition': 'stop'}, {'fileName': 'squareblack.png', 'correct_response': 'right', 'condition': 'go'}, {'fileName': 'squareblack.png', 'correct_response': 'right', 'condition': 'go'}, {'fileName': 'circleblack.png', 'correct_response': 'left', 'condition': 'go'}, {'fileName': 'circleblack.png', 'correct_response': 'left', 'condition': 'go'}, {'fileName': 'squareblack.png', 'correct_response': 'right', 'condition': 'stop'}, {'fileName': 'squareblack.png', 'correct_response': 'right', 'condition': 'stop'}, {'fileName': 'circleblack.png', 'correct_response': 'left', 'condition': 'go'}, {'fileName': 'squareblack.png', 'correct_response': 'right', 'condition': 'go'}, {'fileName': 'circleblack.png', 'correct_response': 'left', 'condition': 'stop'}, {'fileName': 'squareblack.png', 'correct_response': 'right', 'condition': 'go'}, {'fileName': 'circleblack.png', 'correct_response': 'left', 'condition': 'stop'}, {'fileName': 'squareblack.png', 'correct_response': 'right', 'condition': 'stop'}, {'fileName': 'squareblack.png', 'correct_response': 'right', 'condition': 'go'}, {'fileName': 'squareblack.png', 'correct_response': 'right', 'condition': 'go'}, {'fileName': 'squareblack.png', 'correct_response': 'right', 'condition': 'go'}, {'fileName': 'circleblack.png', 'correct_response': 'left', 'condition': 'go'}, {'fileName': 'circleblack.png', 'correct_response': 'left', 'condition': 'go'}, {'fileName': 'squareblack.png', 'correct_response': 'right', 'condition': 'go'}, {'fileName': 'circleblack.png', 'correct_response': 'left', 'condition': 'go'}, {'fileName': 'circleblack.png', 'correct_response': 'left', 'condition': 'go'}, {'fileName': 'squareblack.png', 'correct_response': 'right', 'condition': 'stop'}, {'fileName': 'circleblack.png', 'correct_response': 'left', 'condition': 'stop'}]",,,,,,s004,001,2024-06-19_14h58.56.166,simplestop_skeleton,2022.2.2,60.20695538024777,
$currentCorrectResponse,$currentGoStim,,,,,,,,,2,0,2,0,0,0,0,0,,,,,,,,,680.5252931416035,stop,squareblack.png,right,0.25,,,,,,,,,,,,,,,0.001706968992948532,0.4851207919418812,0.7393701486289501,683.0254946015775,test,3,,,,,,,,,,680.5449437350035,681.0373099297285,681.0373099297285,681.053896613419,681.2877264395356,681.7893137931824,682.0399176888168,683.0445117913187,None,0,,0.3,,,,,,,,,,,s004,001,2024-06-19_14h58.56.166,simplestop_skeleton,2022.2.2,60.20695538024777,
None,None,,,,,,,,,2,0,2,0,0,1,1,2,,,,,,,,,683.026045050472,stop,squareblack.png,right,0.3,,,,,,,,,,,,,,,0.0013048648834228516,0.4893568567931652,0.7897820249199867,685.5288148708642,test,3,,,,,,,,,,683.0445117913187,683.5414698347449,683.5414698347449,683.5580164082348,683.8416206277907,684.3407336771488,684.5410180576146,685.5481921173632,right,1,0.4061061628162861,0.25,,,,,,,,,,,s004,001,2024-06-19_14h58.56.166,simplestop_skeleton,2022.2.2,60.20695538024777,
None,None,,,,,,,,,2,0,2,0,0,2,2,3,,,,,,,,,685.529250703752,go,circleblack.png,left,0.25,,,,,,,,,,,,,,,0.0026766322553157806,0.4890442080795765,,688.0298793204129,test,3,,,,,,,,,,685.5481921173632,686.0443563871086,686.0443563871086,686.0610101521015,686.2945723421872,686.810158919543,687.0439527891576,688.0464495569468,left,1,0.3558782637119293,0.25,,,,,,,,,,,s004,001,2024-06-19_14h58.56.166,simplestop_skeleton,2022.2.2,60.20695538024777,
None,None,,,,,,,,,2,0,2,0,0,3,3,1,,,,,,,,,688.0303110294044,go,circleblack.png,left,0.25,,,,,,,,,,,,,,,0.0012011080980300903,0.49075305461883545,,690.5334495976567,test,3,,,,,,,,,,688.0464495569468,688.5468082539737,688.5468082539737,688.5468082539737,688.7970287278295,689.2963841482997,689.5471518225968,690.5527496114373,left,1,0.5059641264379025,0.25,,,,,,,,,,,s004,001,2024-06-19_14h58.56.166,simplestop_skeleton,2022.2.2,60.20695538024777,
None,None,,,,,,,,,2,0,2,0,1,0,4,2,,,,,,,,,690.5338777638972,go,squareblack.png,right,0.25,,,,,,,,,,,,,,,0.001730106770992279,0.4900076128542423,,693.0360348969698,test,3,,,,,,,,,,690.5527496114373,691.0495912320912,691.0495912320912,691.0661450214684,691.2999546527863,691.8156524002552,692.0503241196275,693.0556658767164,right,1,0.6620423570275307,0.25,,,,,,,,,,,s004,001,2024-06-19_14h58.56.166,simplestop_skeleton,2022.2.2,60.20695538024777,
$currentCorrectResponse,$currentGoStim,,,,,,,,,2,0,2,0,1,1,5,0,,,,,,,,,693.036462765187,go,squareblack.png,right,0.25,,,,,,,,,,,,,,,0.0011927448213100433,0.48973987996578217,,695.5393414385617,test,3,,,,,,,,,,693.0556658767164,693.5523915961385,693.5523915961385,693.5691846162081,693.8026735410094,694.3018461428583,694.5530303530395,695.558595020324,right,1,0.5504256784915924,0.25,,,,,,,,,,,s004,001,2024-06-19_14h58.56.166,simplestop_skeleton,2022.2.2,60.20695538024777,
None,None,,,,,,,,,2,0,2,0,1,2,6,3,,,,,,,,,695.5397820994258,go,squareblack.png,right,0.25,,,,,,,,,,,,,,,0.0014049448072910309,0.4894354119896889,,698.041776381433,test,3,,,,,,,,,,695.558595020324,696.0551004298031,696.0551004298031,696.0719501115382,696.3057669177651,696.8214110471308,697.0547476895154,698.0672454833984,right,1,0.3725665211677551,0.25,,,,,,,,,,,s004,001,2024-06-19_14h58.56.166,simplestop_skeleton,2022.2.2,60.20695538024777,
None,None,,,,,,,,,2,0,2,0,1,3,7,1,,,,,,,,,698.0422044023871,go,circleblack.png,left,0.25,,,,,,,,,,,,,,,0.008215900510549545,0.48931441828608513,,700.5447114594281,test,3,,,,,,,,,,698.0672454833984,698.5578306652606,698.5578306652606,698.5745024718344,698.8081730678678,699.3090731017292,699.5575147233903,700.5637870058417,left,1,0.4154159538447857,0.25,,,,,,,,,,,s004,001,2024-06-19_14h58.56.166,simplestop_skeleton,2022.2.2,60.20695538024777,
None,None,,,,,,,,,2,0,2,0,2,0,8,2,,,,,,,,,700.5451411865652,go,circleblack.png,left,0.25,,,,,,,,,,,,,,,0.0014498941600322723,0.48988090455532074,,703.0472963862121,test,3,,,,,,,,,,700.5637870058417,701.0607349351048,701.0607349351048,701.0772954821587,701.3110546693206,701.810042142868,702.060350574553,703.0664897896349,left,1,0.43512220680713654,0.25,,,,,,,,,,,s004,001,2024-06-19_14h58.56.166,simplestop_skeleton,2022.2.2,60.20695538024777,
$currentCorrectResponse,$currentGoStim,,,,,,,,,2,0,2,0,2,1,9,0,,,,,,,,,703.0477262660861,stop,circleblack.png,left,0.25,,,,,,,,,,,,,,,0.0013959035277366638,0.48961041867733,0.7398977018892765,705.550384696573,test,3,,,,,,,,,,703.0664897896349,703.5636622942984,703.5636622942984,703.5800348930061,703.8136169426143,704.3130156844854,704.5630795545876,705.5699259750545,left,1,0.39232416078448296,0.2,,,,,,,,,,,s004,001,2024-06-19_14h58.56.166,simplestop_skeleton,2022.2.2,60.20695538024777,
None,None,,,,,,,,,2,0,2,0,2,2,10,3,,,,,,,,,705.5508165359497,go,squareblack.png,right,0.2,,,,,,,,,,,,,,,0.0017570070922374725,0.48942938819527626,,708.0530337765813,test,3,,,,,,,,,,705.5699259750545,706.0661768428981,706.0661768428981,706.0829160362482,706.2670437581837,706.7822761684656,707.066878311336,708.0727080069482,right,1,0.5479163005948067,0.2,,,,,,,,,,,s004,001,2024-06-19_14h58.56.166,simplestop_skeleton,2022.2.2,60.20695538024777,
None,None,,,,,,,,,2,0,2,0,2,3,11,2,,,,,,,,,708.0534623973072,stop,circleblack.png,left,0.2,,,,,,,,,,,,,,,0.0019222870469093323,0.4893394261598587,0.6894992403686047,710.5560236163437,test,3,,,,,,,,,,708.0727080069482,708.5691101066768,708.5691101066768,708.58558120206,708.7689415924251,709.2702970393002,709.5686265304685,710.5753110200167,None,0,,0.25,,,,,,,,,,,s004,001,2024-06-19_14h58.56.166,simplestop_skeleton,2022.2.2,60.20695538024777,
$currentCorrectResponse,$currentGoStim,,,,,,,,,2,0,2,0,3,0,12,0,,,,,,,,,710.5564681813121,go,circleblack.png,left,0.25,,,,,,,,,,,,,,,0.0014081746339797974,0.4895477332174778,,713.0587387569249,test,3,,,,,,,,,,710.5753110200167,711.0718253478408,711.0718253478408,711.0884516090155,711.3226738423109,711.8226554952562,712.0714971721172,713.0782238058746,left,1,0.4343617185950279,0.25,,,,,,,,,,,s004,001,2024-06-19_14h58.56.166,simplestop_skeleton,2022.2.2,60.20695538024777,
None,None,,,,,,,,,2,0,2,0,3,1,13,3,,,,,,,,,713.0592546276748,go,circleblack.png,left,0.25,,,,,,,,,,,,,,,0.0014695972204208374,0.48946261405944824,,715.5613518245518,test,3,,,,,,,,,,713.0782238058746,713.5745179131627,713.5745179131627,713.5914675556123,713.8246407173574,714.3243218027055,714.5743207260966,715.5809084400535,left,1,0.468217208981514,0.25,,,,,,,,,,,s004,001,2024-06-19_14h58.56.166,simplestop_skeleton,2022.2.2,60.20695538024777,
None,None,,,,,,,,,2,0,2,0,3,2,14,3,,,,,,,,,715.5617807433009,go,squareblack.png,right,0.25,,,,,,,,,,,,,,,0.001737017184495926,0.48963864147663116,,718.0639667548239,test,3,,,,,,,,,,715.5809084400535,716.0773193761706,716.0773193761706,716.0938900373876,716.3277983628213,716.828458532691,717.0769055895507,718.0837303511798,right,1,0.49756811931729317,0.25,,,,,,,,,,,s004,001,2024-06-19_14h58.56.166,simplestop_skeleton,2022.2.2,60.20695538024777,
None,None,,,,,,,,,2,0,2,0,3,3,15,3,,,,,,,,,718.0643928050995,go,circleblack.png,left,0.25,,,,,,,,,,,,,,,0.0018771961331367493,0.4895366318523884,,720.5667013972998,test,3,,,,,,,,,,718.0837303511798,718.5799431689084,718.5799431689084,718.5966240204871,718.8303389288485,719.3461281731725,719.5796766988933,720.5863188542426,left,1,0.4251796007156372,0.25,,,,,,,,,,,s004,001,2024-06-19_14h58.56.166,simplestop_skeleton,2022.2.2,60.20695538024777,
$currentCorrectResponse,$currentGoStim,,,,,,,,,2,0,2,0,4,0,16,0,,,,,,,,,720.5671483874321,go,squareblack.png,right,0.25,,,,,,,,,,,,,,,0.0017312206327915192,0.48923860490322113,,723.0696964897215,test,3,,,,,,,,,,720.5863188542426,721.0828479975462,721.0828479975462,721.0994516983628,721.333047028631,721.8486728146672,722.0823831297457,723.0893286503851,right,1,0.39785655587911606,0.25,,,,,,,,,,,s004,001,2024-06-19_14h58.56.166,simplestop_skeleton,2022.2.2,60.20695538024777,
$currentCorrectResponse,$currentGoStim,,,,,,,,,2,0,2,0,4,1,17,0,,,,,,,,,723.0701492466033,stop,circleblack.png,left,0.25,,,,,,,,,,,,,,,0.0019124634563922882,0.4892386607825756,0.7398619912564754,725.5726284757257,test,3,,,,,,,,,,723.0893286503851,723.5856596678495,723.5856596678495,723.6024598032236,723.8357727825642,724.3349680863321,724.5852585285902,725.5918419398367,left,1,0.372104000300169,0.2,,,,,,,,,,,s004,001,2024-06-19_14h58.56.166,simplestop_skeleton,2022.2.2,60.20695538024777,
None,None,,,,,,,,,2,0,2,0,4,2,18,1,,,,,,,,,725.5730963498354,stop,circleblack.png,left,0.2,,,,,,,,,,,,,,,0.0014246292412281036,0.48953863605856895,0.6893896162509918,728.0752816088498,test,3,,,,,,,,,,725.5918419398367,726.088149715215,726.088149715215,726.1052248850465,726.2885402143002,726.7894342802465,727.0879656299949,728.0945672467351,left,1,0.5061456114053726,0.15,,,,,,,,,,,s004,001,2024-06-19_14h58.56.166,simplestop_skeleton,2022.2.2,60.20695538024777,
None,None,,,,,,,,,2,0,2,0,4,3,19,3,,,,,,,,,728.0757342837751,stop,squareblack.png,right,0.15,,,,,,,,,,,,,,,0.0018226392567157745,0.4895322807133198,0.6396064534783363,730.5779259540141,test,3,,,,,,,,,,728.0945672467351,728.5910433903337,728.5910433903337,728.6078943200409,728.7414188832045,729.2423481009901,729.5907372012734,730.5969255901873,right,1,0.41004060581326485,0.1,,,,,,,,,,,s004,001,2024-06-19_14h58.56.166,simplestop_skeleton,2022.2.2,60.20695538024777,
None,None,,,,,,,,,2,0,2,0,5,0,20,3,,,,,,,,,730.5785053856671,stop,squareblack.png,right,0.1,,,,,,,,,,,,,,,0.001286480575799942,0.4894479401409626,0.5897158496081829,733.0804369784892,test,3,,,,,,,,,,730.5969255901873,731.0938707999885,731.0938707999885,731.1103390604258,731.1942832916975,731.6944946460426,732.095118753612,733.0992951206863,None,0,,0.15,,,,,,,,,,,s004,001,2024-06-19_14h58.56.166,simplestop_skeleton,2022.2.2,60.20695538024777,
$currentCorrectResponse,$currentGoStim,,,,,,,,,2,0,2,0,5,1,21,0,,,,,,,,,733.0808649025857,go,squareblack.png,right,0.15,,,,,,,,,,,,,,,0.0013540983200073242,0.48999684303998947,,735.583598908037,test,3,,,,,,,,,,733.0992951206863,733.5967627353966,733.5967627353966,733.6131542548537,733.7467690184712,734.2478594146669,734.5962160304189,735.6033873669803,right,1,0.5480059385299683,0.15,,,,,,,,,,,s004,001,2024-06-19_14h58.56.166,simplestop_skeleton,2022.2.2,60.20695538024777,
None,None,,,,,,,,,2,0,2,0,5,2,22,2,,,,,,,,,735.5840349271894,go,circleblack.png,left,0.15,,,,,,,,,,,,,,,0.002277206629514694,0.48933251202106476,,738.0862248055637,test,3,,,,,,,,,,735.6033873669803,736.0992012917995,736.0992012917995,736.116242479533,736.2494552731514,736.7503009401262,737.0989464819431,738.105457637459,left,1,0.5512174777686596,0.15,,,,,,,,,,,s004,001,2024-06-19_14h58.56.166,simplestop_skeleton,2022.2.2,60.20695538024777,
None,None,,,,,,,,,2,0,2,0,5,3,23,1,,,,,,,,,738.0866656117141,go,squareblack.png,right,0.15,,,,,,,,,,,,,,,0.0018126703798770905,0.48953964561223984,,740.5948593206704,test,3,,,,,,,,,,738.105457637459,738.6022320203483,738.6022320203483,738.6186759397388,738.7521492950618,739.2520481199026,739.6024339646101,740.620508030057,right,1,0.4247843772172928,0.15,,,,,,,,,,,s004,001,2024-06-19_14h58.56.166,simplestop_skeleton,2022.2.2,60.20695538024777,
None,None,,,,,,,,,2,0,2,0,6,0,24,2,,,,,,,,,740.5955954939127,go,circleblack.png,left,0.15,,,,,,,,,,,,,,,0.0023775584995746613,0.49486955627799034,,743.1082544177771,test,3,,,,,,,,,,740.620508030057,741.1201270148158,741.1201270148158,741.1201270148158,741.2702629007399,741.7715302668512,742.1226416043937,743.1276453845203,left,1,0.4073500372469425,0.15,,,,,,,,,,,s004,001,2024-06-19_14h58.56.166,simplestop_skeleton,2022.2.2,60.20695538024777,
None,None,,,,,,,,,2,0,2,0,6,1,25,1,,,,,,,,,743.1086983643472,stop,circleblack.png,left,0.15,,,,,,,,,,,,,,,0.001432761549949646,0.4895949438214302,0.6401903107762337,745.6113194413483,test,3,,,,,,,,,,743.1276453845203,743.6243261471391,743.6243261471391,743.640975471586,743.7744977585971,744.2749361842871,744.6252785399556,745.630851380527,None,0,,0.2,,,,,,,,,,,s004,001,2024-06-19_14h58.56.166,simplestop_skeleton,2022.2.2,60.20695538024777,
None,None,,,,,,,,,2,0,2,0,6,2,26,3,,,,,,,,,745.6117530427873,go,squareblack.png,right,0.2,,,,,,,,,,,,,,,0.001802157610654831,0.4891917146742344,,748.1136085130274,test,3,,,,,,,,,,745.630851380527,746.1270419284701,746.1270419284701,746.144235689193,746.327467020601,746.8277944475412,747.126819897443,748.1329079866409,right,1,0.4127553477883339,0.2,,,,,,,,,,,s004,001,2024-06-19_14h58.56.166,simplestop_skeleton,2022.2.2,60.20695538024777,
None,None,,,,,,,,,2,0,2,0,6,3,27,2,,,,,,,,,748.11403285712,go,squareblack.png,right,0.2,,,,,,,,,,,,,,,0.0012565553188323975,0.4899914115667343,,750.6162940338254,test,3,,,,,,,,,,748.1329079866409,748.6298931762576,748.6298931762576,748.6464232169092,748.8303695805371,749.345821198076,749.6295686773956,750.6358279958367,right,1,0.340823408216238,0.2,,,,,,,,,,,s004,001,2024-06-19_14h58.56.166,simplestop_skeleton,2022.2.2,60.20695538024777,
None,None,,,,,,,,,2,0,2,0,7,0,28,3,,,,,,,,,750.6167308539152,go,circleblack.png,left,0.2,,,,,,,,,,,,,,,0.0018999651074409485,0.4897196665406227,,753.1189949065447,test,3,,,,,,,,,,750.6358279958367,751.1324475966394,751.1324475966394,751.1492497362196,751.3325910978019,751.8332416377962,752.1321692243218,753.1381933018565,left,1,0.4122045859694481,0.2,,,,,,,,,,,s004,001,2024-06-19_14h58.56.166,simplestop_skeleton,2022.2.2,60.20695538024777,
None,None,,,,,,,,,2,0,2,0,7,1,29,2,,,,,,,,,753.1194244809449,go,circleblack.png,left,0.2,,,,,,,,,,,,,,,0.0014340579509735107,0.48982660844922066,,755.6227070167661,test,3,,,,,,,,,,753.1381933018565,753.6353324130177,753.6353324130177,753.65193124488,753.8353235684335,754.3359607793391,754.6348975375295,755.6421619653702,left,1,0.6513908542692661,0.2,,,,,,,,,,,s004,001,2024-06-19_14h58.56.166,simplestop_skeleton,2022.2.2,60.20695538024777,
None,None,,,,,,,,,2,0,2,0,7,2,30,2,,,,,,,,,755.62314786762,stop,squareblack.png,right,0.2,,,,,,,,,,,,,,,0.0023946240544319153,0.4889712482690811,0.6894243881106377,758.1233380362391,test,3,,,,,,,,,,755.6421619653702,756.1382010988891,756.1382010988891,756.1545035392046,756.3383718244731,756.838901322335,757.1392232961953,758.1402674429119,None,0,,0.25,,,,,,,,,,,s004,001,2024-06-19_14h58.56.166,simplestop_skeleton,2022.2.2,60.20695538024777,
$currentCorrectResponse,$currentGoStim,,,,,,,,,2,0,2,0,7,3,31,0,,,,,,,,,758.1237662471831,stop,squareblack.png,right,0.25,,,,,,,,,,,,,,,0.0013788416981697083,0.4910969138145447,0.7398982681334019,760.6277612783015,test,3,,,,,,,,,,758.1402674429119,758.6407328471541,758.6407328471541,758.6407328471541,758.8896729312837,759.3917887024581,759.6421731226146,760.6471069790423,right,1,0.35522789508104324,0.2,,,,,,,,,,,s004,001,2024-06-19_14h58.56.166,simplestop_skeleton,2022.2.2,60.20695538024777,
None,None,,,,,,,,,2,0,2,0,8,0,32,1,,,,,,,,,760.6281987950206,go,circleblack.png,left,0.2,,,,,,,,,,,,,,,0.0018620528280735016,0.489277970045805,,763.1302503086627,test,3,,,,,,,,,,760.6471069790423,761.1438508592546,761.1438508592546,761.1604488827288,761.3440903536975,761.8448128774762,762.1432717218995,763.1495727151632,left,1,0.4718855433166027,0.2,,,,,,,,,,,s004,001,2024-06-19_14h58.56.166,simplestop_skeleton,2022.2.2,60.20695538024777,
None,None,,,,,,,,,2,0,2,0,8,1,33,1,,,,,,,,,763.1306786872447,go,squareblack.png,right,0.2,,,,,,,,,,,,,,,0.0016292296350002289,0.4898848570883274,,765.6334473341703,test,3,,,,,,,,,,763.1495727151632,763.6464469470084,763.6464469470084,763.6631251163781,763.8468565270305,764.3624133951962,764.6460393592715,765.6528127081692,right,1,0.40800974518060684,0.2,,,,,,,,,,,s004,001,2024-06-19_14h58.56.166,simplestop_skeleton,2022.2.2,60.20695538024777,
None,None,,,,,,,,,2,0,2,0,8,2,34,1,,,,,,,,,765.6338836811483,stop,circleblack.png,left,0.2,,,,,,,,,,,,,,,0.0019803978502750397,0.48975710570812225,0.6897110603749752,768.1351296044886,test,3,,,,,,,,,,765.6528127081692,766.1494083739817,766.1494083739817,766.1660531535745,766.3493388444185,766.8501863144338,767.1503144428134,768.1527255289257,None,0,,0.25,,,,,,,,,,,s004,001,2024-06-19_14h58.56.166,simplestop_skeleton,2022.2.2,60.20695538024777,
None,None,,,,,,,,,2,0,2,0,8,3,35,2,,,,,,,,,768.1355614252388,go,squareblack.png,right,0.25,,,,,,,,,,,,,,,0.0016656741499900818,0.4902571327984333,,770.6386327892542,test,3,,,,,,,,,,768.1527255289257,768.6519427336752,768.6519427336752,768.6684835702181,768.9021547473967,769.4028475210071,769.6515076048672,770.657825242728,right,1,0.41716786101460457,0.25,,,,,,,,,,,s004,001,2024-06-19_14h58.56.166,simplestop_skeleton,2022.2.2,60.20695538024777,
None,None,,,,,,,,,2,0,2,0,9,0,36,1,,,,,,,,,770.6390688382089,stop,circleblack.png,left,0.25,,,,,,,,,,,,,,,0.0017224699258804321,0.4894920624792576,0.7401921562850475,773.1414499804378,test,3,,,,,,,,,,770.657825242728,771.1550536565483,771.1550536565483,771.1715906858444,771.4052697569132,771.9207122176886,772.1543591022491,773.160715226084,left,1,0.4340732656419277,0.2,,,,,,,,,,,s004,001,2024-06-19_14h58.56.166,simplestop_skeleton,2022.2.2,60.20695538024777,
$currentCorrectResponse,$currentGoStim,,,,,,,,,2,0,2,0,9,1,37,0,,,,,,,,,773.1418946906924,stop,squareblack.png,right,0.2,,,,,,,,,,,,,,,0.0016529634594917297,0.4897608831524849,0.6897461973130703,775.6442325152457,test,3,,,,,,,,,,773.160715226084,773.6575900241733,773.6575900241733,773.674405824393,773.8562877289951,774.3577406108379,774.6587265357375,775.6632179580629,right,1,0.3537481129169464,0.15,,,,,,,,,,,s004,001,2024-06-19_14h58.56.166,simplestop_skeleton,2022.2.2,60.20695538024777,
None,None,,,,,,,,,2,0,2,0,9,2,38,2,,,,,,,,,775.644663002342,go,squareblack.png,right,0.15,,,,,,,,,,,,,,,0.0012877173721790314,0.4892914853990078,,778.1469679251313,test,3,,,,,,,,,,775.6632179580629,776.159978762269,776.159978762269,776.1768821142614,776.3103246539831,776.8111704550683,777.159765291959,778.1659227386117,right,1,0.4891837574541569,0.15,,,,,,,,,,,s004,001,2024-06-19_14h58.56.166,simplestop_skeleton,2022.2.2,60.20695538024777,
None,None,,,,,,,,,2,0,2,0,9,3,39,1,,,,,,,,,778.1473980210721,go,squareblack.png,right,0.15,,,,,,,,,,,,,,,0.0013387538492679596,0.48959561437368393,,780.6498640440404,test,3,,,,,,,,,,778.1659227386117,778.6630147472024,778.6630147472024,778.6794613227248,778.8129850104451,779.3139945678413,779.6624532304704,780.6685896776617,right,1,0.46165965497493744,0.15,,,,,,,,,,,s004,001,2024-06-19_14h58.56.166,simplestop_skeleton,2022.2.2,60.20695538024777,
None,None,,,,,,,,,2,0,2,0,10,0,40,3,,,,,,,,,780.6503032520413,go,squareblack.png,right,0.15,,,,,,,,,,,,,,,0.0013487525284290314,0.48993487283587456,,783.1522775664926,test,3,,,,,,,,,,780.6685896776617,781.1655455715954,781.1655455715954,781.1825565733016,781.3158819489181,781.8168752752244,782.165494479239,783.1737418919802,right,1,0.4681641384959221,0.15,,,,,,,,,,,s004,001,2024-06-19_14h58.56.166,simplestop_skeleton,2022.2.2,60.20695538024777,
None,None,,,,,,,,,2,0,2,0,10,1,41,3,,,,,,,,,783.152725726366,go,circleblack.png,left,0.15,,,,,,,,,,,,,,,0.004124794155359268,0.48989028483629227,,785.655306506902,test,3,,,,,,,,,,783.1737418919802,783.6684171371162,783.6684171371162,783.6850918196142,783.8188503719866,784.3196365050972,784.6681168079376,785.6743787787855,left,1,0.5393543392419815,0.15,,,,,,,,,,,s004,001,2024-06-19_14h58.56.166,simplestop_skeleton,2022.2.2,60.20695538024777,
None,None,,,,,,,,,2,0,2,0,10,2,42,2,,,,,,,,,785.65573881194,go,circleblack.png,left,0.15,,,,,,,,,,,,,,,0.001392081379890442,0.48836201056838036,,788.1578248329461,test,3,,,,,,,,,,785.6743787787855,786.1706585548818,786.1706585548818,786.1866839788854,786.3202732540667,786.8215604573488,787.1724542304873,788.1771741174161,left,1,0.5051412805914879,0.15,,,,,,,,,,,s004,001,2024-06-19_14h58.56.166,simplestop_skeleton,2022.2.2,60.20695538024777,
$currentCorrectResponse,$currentGoStim,,,,,,,,,2,0,2,0,10,3,43,0,,,,,,,,,788.1582738794386,go,squareblack.png,right,0.15,,,,,,,,,,,,,,,0.0016590021550655365,0.48958760872483253,,790.6607240512967,test,3,,,,,,,,,,788.1771741174161,788.6739978715777,788.6739978715777,788.6907593719661,788.8245793431997,789.3251006230712,789.6737060323358,790.6802925728261,right,1,0.4243437424302101,0.15,,,,,,,,,,,s004,001,2024-06-19_14h58.56.166,simplestop_skeleton,2022.2.2,60.20695538024777,
$currentCorrectResponse,$currentGoStim,,,,,,,,,2,0,2,0,11,0,44,0,,,,,,,,,790.6611626297235,go,circleblack.png,left,0.15,,,,,,,,,,,,,,,0.0019114874303340912,0.48931727185845375,,793.163485892117,test,3,,,,,,,,,,790.6802925728261,791.1768156774342,791.1768156774342,791.1935471072793,791.3268116526306,791.8278747797012,792.1763743162155,793.1827461980283,left,1,0.412977147847414,0.15,,,,,,,,,,,s004,001,2024-06-19_14h58.56.166,simplestop_skeleton,2022.2.2,60.20695538024777,
None,None,,,,,,,,,2,0,2,0,11,1,45,1,,,,,,,,,793.1640261486173,go,circleblack.png,left,0.15,,,,,,,,,,,,,,,0.001445971429347992,0.4895717017352581,,795.6661475859582,test,3,,,,,,,,,,793.1827461980283,793.6793822459877,793.6793822459877,793.6961947008967,793.8295727111399,794.3289483487606,794.6790882796049,795.6850161291659,left,1,0.46212220564484596,0.15,,,,,,,,,,,s004,001,2024-06-19_14h58.56.166,simplestop_skeleton,2022.2.2,60.20695538024777,
$currentCorrectResponse,$currentGoStim,,,,,,,,,2,0,2,0,11,2,46,0,,,,,,,,,795.6665798462927,stop,squareblack.png,right,0.15,,,,,,,,,,,,,,,0.0017063803970813751,0.48991598561406136,0.640177670866251,798.1698561571538,test,3,,,,,,,,,,795.6850161291659,796.1825518161058,796.1825518161058,796.1991636715829,796.3325459435582,796.8329927921295,797.1833162009716,798.1895692273974,None,0,,0.2,,,,,,,,,,,s004,001,2024-06-19_14h58.56.166,simplestop_skeleton,2022.2.2,60.20695538024777,
None,None,,,,,,,,,2,0,2,0,11,3,47,1,,,,,,,,,798.1702856719494,stop,circleblack.png,left,0.2,,,,,,,,,,,,,,,0.0025781728327274323,0.48860571905970573,0.688715685158968,800.6720937527716,test,3,,,,,,,,,,798.1895692273974,798.6849741488695,798.6849741488695,798.7018849775195,798.8857091926038,799.385773986578,799.6862763650715,800.6874404549599,None,0,,0.25,,,,,,,,,,,s004,001,2024-06-19_14h58.56.166,simplestop_skeleton,2022.2.2,60.20695538024777,
