corrGoResp,shape,practiceBlocks.thisRepN,practiceBlocks.thisTrialN,practiceBlocks.thisN,practiceBlocks.thisIndex,practiceTrials.thisRepN,practiceTrials.thisTrialN,practiceTrials.thisN,practiceTrials.thisIndex,stopBlocks.thisRepN,stopBlocks.thisTrialN,stopBlocks.thisN,stopBlocks.thisIndex,testTrials.thisRepN,testTrials.thisTrialN,testTrials.thisN,testTrials.thisIndex,stopPracTrialList,Test Block: 1,welcome.started,start_exp.started,start_exp.keys,start_exp.rt,instrStopText.started,start_prac.started,StartTrialTimeStamp,trialType,goStim,correctResponse,ssd,fixation.started,rules.started,fixation.stopped,goStim.started,goResp.started,stopSignal.started,stopSignal.stopped,goStim.stopped,goResp.stopped,rules.stopped,goResp.keys,goResp.corr,goResp.rt,text.started,rules_2.started,text.stopped,rules_2.stopped,fixationOnset,goStimOnset,stopSignalOnset,EndTrialTimeStamp,Phase,Block,text_5.started,key_resp_3.started,key_resp_3.keys,key_resp_3.rt,key_resp.started,testText.started,test_fixation.started,test_fixation.stopped,goStim_test.started,goResp_test.started,stopSignal_test.started,stopSignal_test.stopped,goStim_test.stopped,goResp_test.stopped,goResp_test.keys,goResp_test.corr,goResp_test.rt,EndingSSD,text_6.started,key_resp_4.started,key_resp_4.keys,key_resp_4.rt,Test Block: 2,Test Block: 3,ending_text.started,end_resp.started,end_resp.keys,end_resp.rt,participant,session,date,expName,psychopyVersion,frameRate,
,,,,,,,,,,,,,,,,,,"[{'fileName': 'circleblack.png', 'correct_response': 'left', 'condition': 'go'}, {'fileName': 'circleblack.png', 'correct_response': 'left', 'condition': 'go'}, {'fileName': 'squareblack.png', 'correct_response': 'right', 'condition': 'go'}, {'fileName': 'squareblack.png', 'correct_response': 'right', 'condition': 'go'}, {'fileName': 'squareblack.png', 'correct_response': 'right', 'condition': 'stop'}, {'fileName': 'squareblack.png', 'correct_response': 'right', 'condition': 'go'}, {'fileName': 'squareblack.png', 'correct_response': 'right', 'condition': 'stop'}, {'fileName': 'circleblack.png', 'correct_response': 'left', 'condition': 'go'}, {'fileName': 'circleblack.png', 'correct_response': 'left', 'condition': 'stop'}, {'fileName': 'squareblack.png', 'correct_response': 'right', 'condition': 'go'}, {'fileName': 'circleblack.png', 'correct_response': 'left', 'condition': 'stop'}, {'fileName': 'circleblack.png', 'correct_response': 'left', 'condition': 'go'}, {'fileName': 'squareblack.png', 'correct_response': 'right', 'condition': 'go'}, {'fileName': 'squareblack.png', 'correct_response': 'right', 'condition': 'stop'}, {'fileName': 'circleblack.png', 'correct_response': 'left', 'condition': 'stop'}, {'fileName': 'circleblack.png', 'correct_response': 'left', 'condition': 'go'}, {'fileName': 'squareblack.png', 'correct_response': 'right', 'condition': 'stop'}, {'fileName': 'circleblack.png', 'correct_response': 'left', 'condition': 'stop'}, {'fileName': 'squareblack.png', 'correct_response': 'right', 'condition': 'go'}, {'fileName': 'squareblack.png', 'correct_response': 'right', 'condition': 'go'}, {'fileName': 'circleblack.png', 'correct_response': 'left', 'condition': 'go'}, {'fileName': 'squareblack.png', 'correct_response': 'right', 'condition': 'go'}, {'fileName': 'circleblack.png', 'correct_response': 'left', 'condition': 'go'}, {'fileName': 'circleblack.png', 'correct_response': 'left', 'condition': 'go'}]","[{'fileName': 'circleblack.png', 'correct_response': 'left', 'condition': 'stop'}, {'fileName': 'squareblack.png', 'correct_response': 'right', 'condition': 'stop'}, {'fileName': 'circleblack.png', 'correct_response': 'left', 'condition': 'go'}, {'fileName': 'circleblack.png', 'correct_response': 'left', 'condition': 'stop'}, {'fileName': 'squareblack.png', 'correct_response': 'right', 'condition': 'go'}, {'fileName': 'circleblack.png', 'correct_response': 'left', 'condition': 'go'}, {'fileName': 'squareblack.png', 'correct_response': 'right', 'condition': 'go'}, {'fileName': 'circleblack.png', 'correct_response': 'left', 'condition': 'go'}, {'fileName': 'squareblack.png', 'correct_response': 'right', 'condition': 'stop'}, {'fileName': 'squareblack.png', 'correct_response': 'right', 'condition': 'go'}, {'fileName': 'circleblack.png', 'correct_response': 'left', 'condition': 'go'}, {'fileName': 'squareblack.png', 'correct_response': 'right', 'condition': 'go'}, {'fileName': 'squareblack.png', 'correct_response': 'right', 'condition': 'go'}, {'fileName': 'squareblack.png', 'correct_response': 'right', 'condition': 'go'}, {'fileName': 'circleblack.png', 'correct_response': 'left', 'condition': 'go'}, {'fileName': 'squareblack.png', 'correct_response': 'right', 'condition': 'stop'}, {'fileName': 'circleblack.png', 'correct_response': 'left', 'condition': 'stop'}, {'fileName': 'squareblack.png', 'correct_response': 'right', 'condition': 'stop'}, {'fileName': 'squareblack.png', 'correct_response': 'right', 'condition': 'go'}, {'fileName': 'squareblack.png', 'correct_response': 'right', 'condition': 'go'}, {'fileName': 'circleblack.png', 'correct_response': 'left', 'condition': 'go'}, {'fileName': 'circleblack.png', 'correct_response': 'left', 'condition': 'go'}, {'fileName': 'circleblack.png', 'correct_response': 'left', 'condition': 'stop'}, {'fileName': 'circleblack.png', 'correct_response': 'left', 'condition': 'go'}, {'fileName': 'circleblack.png', 'correct_response': 'left', 'condition': 'stop'}, {'fileName': 'circleblack.png', 'correct_response': 'left', 'condition': 'go'}, {'fileName': 'circleblack.png', 'correct_response': 'left', 'condition': 'go'}, {'fileName': 'squareblack.png', 'correct_response': 'right', 'condition': 'stop'}, {'fileName': 'squareblack.png', 'correct_response': 'right', 'condition': 'go'}, {'fileName': 'circleblack.png', 'correct_response': 'left', 'condition': 'go'}, {'fileName': 'squareblack.png', 'correct_response': 'right', 'condition': 'go'}, {'fileName': 'squareblack.png', 'correct_response': 'right', 'condition': 'go'}, {'fileName': 'squareblack.png', 'correct_response': 'right', 'condition': 'stop'}, {'fileName': 'squareblack.png', 'correct_response': 'right', 'condition': 'go'}, {'fileName': 'circleblack.png', 'correct_response': 'left', 'condition': 'go'}, {'fileName': 'circleblack.png', 'correct_response': 'left', 'condition': 'stop'}, {'fileName': 'circleblack.png', 'correct_response': 'left', 'condition': 'go'}, {'fileName': 'squareblack.png', 'correct_response': 'right', 'condition': 'go'}, {'fileName': 'squareblack.png', 'correct_response': 'right', 'condition': 'go'}, {'fileName': 'circleblack.png', 'correct_response': 'left', 'condition': 'stop'}, {'fileName': 'squareblack.png', 'correct_response': 'right', 'condition': 'stop'}, {'fileName': 'squareblack.png', 'correct_response': 'right', 'condition': 'go'}, {'fileName': 'circleblack.png', 'correct_response': 'left', 'condition': 'go'}, {'fileName': 'circleblack.png', 'correct_response': 'left', 'condition': 'go'}, {'fileName': 'circleblack.png', 'correct_response': 'left', 'condition': 'go'}, {'fileName': 'squareblack.png', 'correct_response': 'right', 'condition': 'stop'}, {'fileName': 'squareblack.png', 'correct_response': 'right', 'condition': 'go'}, {'fileName': 'circleblack.png', 'correct_response': 'left', 'condition': 'stop'}]",6901.030521936715,6901.030521936715,return,1.5365870743989944,,,,,,,,,,,,,,,,,,,,,,,,,,,,,,,,,,,,,,,,,,,,,,,,,,,,,,,,,,,s027,001,2024-08-12_16h11.34.137,simplestop_skeleton,2022.2.2,60.143088484563435,
None,None,0,0,0,0,0,0,0,1,,,,,,,,,,,,,,,6902.609247021377,6902.609247021377,6957.083841904998,go,circleblack.png,left,0.35,6957.1069800034165,6957.1069800034165,6957.606535710394,6957.606535710394,6957.606535710394,6957.956894338131,6958.457463644445,6958.607525281608,6959.608697876334,6959.608697876334,left,1,0.9140576720237732,6959.608697876334,6959.608697876334,6960.11352878809,6960.11352878809,0.0022833645343780518,0.4957812428474426,0.8459752351045609,6960.093736939132,practice,1,,,,,,,,,,,,,,,,,,,,,,,,,,,,,s027,001,2024-08-12_16h11.34.137,simplestop_skeleton,2022.2.2,60.143088484563435,
None,None,0,0,0,0,0,1,1,3,,,,,,,,,,,,,,,,,6960.094269871712,go,circleblack.png,left,0.35,6960.11352878809,6960.11352878809,6960.6265488266945,6960.6099210605025,6960.6099210605025,6960.960286833346,6961.4609508141875,6961.610779583454,6962.612173452973,6962.628792516887,left,1,0.6263493299484253,6962.628792516887,6962.628792516887,6963.13371360302,6963.13371360302,0.0013353899121284485,0.48975592106580734,0.8401482850313187,6963.113529145718,practice,1,,,,,,,,,,,,,,,,,,,,,,,,,,,,,s027,001,2024-08-12_16h11.34.137,simplestop_skeleton,2022.2.2,60.143088484563435,
None,None,0,0,0,0,0,2,2,3,,,,,,,,,,,,,,,,,6963.113962203264,go,squareblack.png,right,0.35,6963.13371360302,6963.13371360302,6963.646571792662,6963.629740789533,6963.629740789533,6963.9803652614355,6964.480859421194,6964.631113037467,6965.632027253509,6965.6485500484705,right,1,0.42678622901439667,6965.6485500484705,6965.6485500484705,6966.15282009542,6966.15282009542,0.001850917935371399,0.49015768617391586,0.8405739963054657,6966.133404314518,practice,1,,,,,,,,,,,,,,,,,,,,,,,,,,,,,s027,001,2024-08-12_16h11.34.137,simplestop_skeleton,2022.2.2,60.143088484563435,
$currentCorrectResponse,$currentGoStim,0,0,0,0,0,3,3,0,,,,,,,,,,,,,,,,,6966.1338263601065,go,squareblack.png,right,0.35,6966.15282009542,6966.15282009542,6966.666285783052,6966.649787694216,6966.649787694216,6967.000055179,6967.500232748687,6967.650745205581,6968.652011103928,6968.652011103928,right,1,0.38699258118867874,6968.652011103928,6968.652011103928,,,0.0011827796697616577,0.49021751433610916,0.8406996428966522,6969.136651694775,practice,1,,,,,,,,,,,,,,,,,,,,,,,,,,,,,s027,001,2024-08-12_16h11.34.137,simplestop_skeleton,2022.2.2,60.143088484563435,
$currentCorrectResponse,$currentGoStim,0,0,0,0,1,0,4,0,,,,,,,,,,,,,,,,,6969.137088224292,stop,squareblack.png,right,0.35,6969.156122907996,6969.156122907996,6969.669810891151,6969.653250589967,6969.653250589967,6970.003453999758,6970.503916889429,6970.654148451984,6971.6553938016295,6971.6553938016295,left,0,0.41633548587560654,6971.6553938016295,6971.6553938016295,6972.159203663468,6972.159203663468,0.0012162774801254272,0.4903949201107025,0.8407126888632774,6972.139968253672,practice,1,,,,,,,,,,,,,,,,,,,,,,,,,,,,,s027,001,2024-08-12_16h11.34.137,simplestop_skeleton,2022.2.2,60.143088484563435,
None,None,0,0,0,0,1,1,5,2,,,,,,,,,,,,,,,,,6972.140397414565,go,squareblack.png,right,0.3,6972.159203663468,6972.159203663468,6972.673034995794,6972.656679429114,6972.656679429114,6972.956670969725,6973.457567259669,6973.6576016023755,6974.65837328136,6974.65837328136,right,1,0.6275803744792938,6974.65837328136,6974.65837328136,6975.163030937314,6975.163030937314,0.0011846870183944702,0.49020808935165405,0.7908093556761742,6975.143431991339,practice,1,,,,,,,,,,,,,,,,,,,,,,,,,,,,,s027,001,2024-08-12_16h11.34.137,simplestop_skeleton,2022.2.2,60.143088484563435,
None,None,0,0,0,0,1,2,6,2,,,,,,,,,,,,,,,,,6975.143881559372,stop,squareblack.png,right,0.3,6975.163030937314,6975.163030937314,6975.676242902875,6975.659645721316,6975.659645721316,6975.9599045440555,6976.460408739746,6976.660584643483,6977.661959186196,6977.6785873919725,right,1,0.45289234817028046,6977.6785873919725,6977.6785873919725,6978.183577053249,6978.183577053249,0.0012023001909255981,0.4900474324822426,0.7900989577174187,6978.16330755502,practice,1,,,,,,,,,,,,,,,,,,,,,,,,,,,,,s027,001,2024-08-12_16h11.34.137,simplestop_skeleton,2022.2.2,60.143088484563435,
None,None,0,0,0,0,1,3,7,3,,,,,,,,,,,,,,,,,6978.16373243928,go,circleblack.png,left,0.25,6978.183577053249,6978.183577053249,6978.696214824915,6978.679446838796,6978.679446838796,6978.929974474013,6979.43040560931,6979.680602870882,6980.6819600611925,6980.698427192867,left,1,0.4272667020559311,6980.698427192867,6980.698427192867,6981.202745564282,6981.202745564282,0.001964762806892395,0.4900699108839035,0.7403600886464119,6981.183251731098,practice,1,,,,,,,,,,,,,,,,,,,,,,,,,,,,,s027,001,2024-08-12_16h11.34.137,simplestop_skeleton,2022.2.2,60.143088484563435,
None,None,0,0,0,0,2,0,8,3,,,,,,,,,,,,,,,,,6981.183678843081,stop,circleblack.png,left,0.25,6981.202745564282,6981.202745564282,6981.716312289238,6981.699484236538,6981.699484236538,6981.950045309961,6982.450595214963,6982.700668267906,6983.70164616406,6983.70164616406,None,0,,6983.70164616406,6983.70164616406,6984.206323817372,6984.206323817372,0.0012463033199310303,0.490200474858284,0.7404386699199677,6984.186516582966,practice,1,,,,,,,,,,,,,,,,,,,,,,,,,,,,,s027,001,2024-08-12_16h11.34.137,simplestop_skeleton,2022.2.2,60.143088484563435,
None,None,0,0,0,0,2,1,9,1,,,,,,,,,,,,,,,,,6984.186976745725,go,squareblack.png,right,0.3,6984.206323817372,6984.206323817372,6984.719462424517,6984.702953435481,6984.702953435481,6985.003176368773,6985.502428285778,6985.703722894192,6986.705076731741,6986.721881188452,right,1,0.4392920210957527,6986.721881188452,6986.721881188452,,,0.0016519799828529358,0.490287683904171,0.7904553487896919,6987.2066145688295,practice,1,,,,,,,,,,,,,,,,,,,,,,,,,,,,,s027,001,2024-08-12_16h11.34.137,simplestop_skeleton,2022.2.2,60.143088484563435,
None,None,0,0,0,0,2,2,10,1,,,,,,,,,,,,,,,,,6987.2070327326655,stop,circleblack.png,left,0.3,6987.226381577551,6987.226381577551,6987.739557750523,6987.723187834024,6987.723187834024,6988.023247905076,6988.5236612558365,6988.7240715920925,6989.7252066880465,6989.7252066880465,None,0,,6989.7252066880465,6989.7252066880465,6990.229392960668,6990.229392960668,0.001759059727191925,0.49036336690187454,0.7906705513596535,6990.209895938635,practice,1,,,,,,,,,,,,,,,,,,,,,,,,,,,,,s027,001,2024-08-12_16h11.34.137,simplestop_skeleton,2022.2.2,60.143088484563435,
None,None,0,0,0,0,2,3,11,3,,,,,,,,,,,,,,,,,6990.210314542055,go,circleblack.png,left,0.35,6990.229392960668,6990.229392960668,6990.7428701892495,6990.726214155555,6990.726214155555,6991.076803870499,6991.577146977186,6991.727463789284,6992.728786028922,6992.745151028037,left,1,0.7973575741052628,6992.745151028037,6992.745151028037,6993.249935813248,6993.249935813248,0.001248471438884735,0.4902261421084404,0.8404600843787193,6993.229969933629,practice,1,,,,,,,,,,,,,,,,,,,,,,,,,,,,,s027,001,2024-08-12_16h11.34.137,simplestop_skeleton,2022.2.2,60.143088484563435,
None,None,0,0,0,0,3,0,12,2,,,,,,,,,,,,,,,,,6993.230574630201,go,squareblack.png,right,0.35,6993.249935813248,6993.249935813248,6993.762871198356,6993.746319361031,6993.746319361031,6994.09663914144,6994.597058407962,6994.747333981097,6995.748506337404,6995.765004530549,right,1,0.45626574754714966,6995.765004530549,6995.765004530549,6996.269359208643,6996.269359208643,0.00170058012008667,0.4898036792874336,0.8404435440897942,6996.249929845333,practice,1,,,,,,,,,,,,,,,,,,,,,,,,,,,,,s027,001,2024-08-12_16h11.34.137,simplestop_skeleton,2022.2.2,60.143088484563435,
None,None,0,0,0,0,3,1,13,2,,,,,,,,,,,,,,,,,6996.250339664519,stop,squareblack.png,right,0.35,6996.269359208643,6996.269359208643,6996.782879814506,6996.766402363777,6996.766402363777,6997.11655664444,6997.617188304663,6997.767309449613,6998.768329381943,6998.7853002771735,None,0,,6998.7853002771735,6998.7853002771735,,,0.0011830925941467285,0.48998698592185974,0.8405548855662346,6999.269730947912,practice,1,,,,,,,,,,,,,,,,,,,,,,,,,,,,,s027,001,2024-08-12_16h11.34.137,simplestop_skeleton,2022.2.2,60.143088484563435,
None,None,0,0,0,0,3,2,14,2,,,,,,,,,,,,,,,,,6999.2701497823,stop,circleblack.png,left,0.4,6999.289698056877,6999.289698056877,6999.802912503481,6999.786064118147,6999.786064118147,7000.186757467687,7000.687150001526,7000.787226103246,7001.78837839514,7001.80515537411,left,1,0.6855155676603317,7001.80515537411,7001.80515537411,7002.30938179791,7002.30938179791,0.0018100962042808533,0.49029185622930527,0.8910790011286736,7002.289899036288,practice,1,,,,,,,,,,,,,,,,,,,,,,,,,,,,,s027,001,2024-08-12_16h11.34.137,simplestop_skeleton,2022.2.2,60.143088484563435,
None,None,0,0,0,0,3,3,15,3,,,,,,,,,,,,,,,,,7002.29034486413,go,circleblack.png,left,0.35,7002.30938179791,7002.30938179791,7002.822763219476,7002.806085534394,7002.806085534394,7003.156728602946,7003.660198926926,7003.807365067303,7004.808242201805,7004.808242201805,left,1,0.7518114373087883,7004.808242201805,7004.808242201805,7005.313236199319,7005.313236199319,0.0012484118342399597,0.4901674836874008,0.8404292836785316,7005.293269902468,practice,1,,,,,,,,,,,,,,,,,,,,,,,,,,,,,s027,001,2024-08-12_16h11.34.137,simplestop_skeleton,2022.2.2,60.143088484563435,
None,None,0,0,0,0,4,0,16,2,,,,,,,,,,,,,,,,,7005.293698064983,stop,squareblack.png,right,0.35,7005.313236199319,7005.313236199319,7005.826274082065,7005.809508688748,7005.809508688748,7006.15992180258,7006.66048476845,7006.810824804008,7007.811621725559,7007.828503385186,right,1,0.6520100682973862,7007.828503385186,7007.828503385186,7008.333102315664,7008.333102315664,0.0018521398305892944,0.49009357392787933,0.8404720053076744,7008.313309594989,practice,1,,,,,,,,,,,,,,,,,,,,,,,,,,,,,s027,001,2024-08-12_16h11.34.137,simplestop_skeleton,2022.2.2,60.143088484563435,
$currentCorrectResponse,$currentGoStim,0,0,0,0,4,1,17,0,,,,,,,,,,,,,,,,,7008.3137290254235,stop,circleblack.png,left,0.3,7008.333102315664,7008.333102315664,7008.846206046641,7008.829621240497,7008.829621240497,7009.129845395684,7009.630488194525,7009.8307810127735,7010.831916891038,7010.848448470235,None,0,,7010.848448470235,7010.848448470235,7011.353318318725,7011.353318318725,0.001720234751701355,0.4900119677186012,0.7901397496461868,7011.333550564945,practice,1,,,,,,,,,,,,,,,,,,,,,,,,,,,,,s027,001,2024-08-12_16h11.34.137,simplestop_skeleton,2022.2.2,60.143088484563435,
$currentCorrectResponse,$currentGoStim,0,0,0,0,4,2,18,0,,,,,,,,,,,,,,,,,7011.33399219811,go,squareblack.png,right,0.35,7011.353318318725,7011.353318318725,7011.866468816996,7011.84978530556,7011.84978530556,7012.1998641341925,7012.699275538325,7012.8499462381005,7013.8518439382315,7013.868335455656,right,1,1.0110161378979683,7013.868335455656,7013.868335455656,,,0.0017133504152297974,0.48986221849918365,0.8403039872646332,7014.353333055973,practice,1,,,,,,,,,,,,,,,,,,,,,,,,,,,,,s027,001,2024-08-12_16h11.34.137,simplestop_skeleton,2022.2.2,60.143088484563435,
$currentCorrectResponse,$currentGoStim,0,0,0,0,4,3,19,0,,,,,,,,,,,,,,,,,7014.353763662279,go,squareblack.png,right,0.35,7014.373077049851,7014.373077049851,7014.886495411396,7014.869604215026,7014.869604215026,7015.2201409339905,7015.7207158356905,7015.8711754232645,7016.871924497187,7016.88866058737,right,1,0.7389886528253555,7016.88866058737,7016.88866058737,7017.393321424723,7017.393321424723,0.0012005120515823364,0.4901479184627533,0.8406387567520142,7017.373133093119,practice,1,,,,,,,,,,,,,,,,,,,,,,,,,,,,,s027,001,2024-08-12_16h11.34.137,simplestop_skeleton,2022.2.2,60.143088484563435,
None,None,0,0,0,0,5,0,20,1,,,,,,,,,,,,,,,,,7017.373551398516,go,circleblack.png,left,0.35,7017.393321424723,7017.393321424723,7017.906778693199,7017.889776997268,7017.889776997268,7018.240374237299,7018.740610152483,7018.890657879412,7019.89181599766,7019.908479675651,left,1,0.6812011152505875,7019.908479675651,7019.908479675651,7020.412940330803,7020.412940330803,0.0019618868827819824,0.490359365940094,0.8405457064509392,7020.393347159028,practice,1,,,,,,,,,,,,,,,,,,,,,,,,,,,,,s027,001,2024-08-12_16h11.34.137,simplestop_skeleton,2022.2.2,60.143088484563435,
None,None,0,0,0,0,5,1,21,1,,,,,,,,,,,,,,,,,7020.3937657848,go,squareblack.png,right,0.35,7020.412940330803,7020.412940330803,7020.926364891231,7020.90980926156,7020.90980926156,7021.260019347072,7021.760638438165,7021.910583078861,7022.911969445646,7022.928479634225,right,1,0.6958976089954376,7022.928479634225,7022.928479634225,7023.433446146548,7023.433446146548,0.001758284866809845,0.4901367425918579,0.8404523059725761,7023.413479484618,practice,1,,,,,,,,,,,,,,,,,,,,,,,,,,,,,s027,001,2024-08-12_16h11.34.137,simplestop_skeleton,2022.2.2,60.143088484563435,
$currentCorrectResponse,$currentGoStim,0,0,0,0,5,2,22,0,,,,,,,,,,,,,,,,,7023.413896918297,go,circleblack.png,left,0.35,7023.433446146548,7023.433446146548,7023.946259744465,7023.92953453213,7023.92953453213,7024.280012622476,7024.780753403902,7024.930661037564,7025.931875191629,7025.948597542942,left,1,0.6569557636976242,7025.948597542942,7025.948597542942,7026.452732101083,7026.452732101083,0.0017894357442855835,0.48989441990852356,0.8405622839927673,7026.433396756649,practice,1,,,,,,,,,,,,,,,,,,,,,,,,,,,,,s027,001,2024-08-12_16h11.34.137,simplestop_skeleton,2022.2.2,60.143088484563435,
None,None,0,0,0,0,5,3,23,1,,,,,,,,,,,,,,,,,7026.433808006346,go,circleblack.png,left,0.35,7026.452732101083,7026.452732101083,7026.966170839965,7026.949589878321,7026.949589878321,7027.299958571792,7027.800542570651,7027.950801514089,7028.951976291835,7028.951976291835,left,1,0.6996934488415718,7028.951976291835,7028.951976291835,7029.454553619027,7029.454553619027,0.0013270601630210876,0.49018504470586777,0.8405832424759865,7029.436687484384,practice,1,,,,,,,,,,,,,,,,,,,,,,,,,,,,,s027,001,2024-08-12_16h11.34.137,simplestop_skeleton,2022.2.2,60.143088484563435,
,,0,0,0,0,,,,,,,,,,,,,"[{'fileName': 'circleblack.png', 'correct_response': 'left', 'condition': 'stop'}, {'fileName': 'circleblack.png', 'correct_response': 'left', 'condition': 'go'}, {'fileName': 'squareblack.png', 'correct_response': 'right', 'condition': 'go'}, {'fileName': 'squareblack.png', 'correct_response': 'right', 'condition': 'stop'}, {'fileName': 'squareblack.png', 'correct_response': 'right', 'condition': 'stop'}, {'fileName': 'circleblack.png', 'correct_response': 'left', 'condition': 'stop'}, {'fileName': 'circleblack.png', 'correct_response': 'left', 'condition': 'go'}, {'fileName': 'circleblack.png', 'correct_response': 'left', 'condition': 'go'}, {'fileName': 'circleblack.png', 'correct_response': 'left', 'condition': 'go'}, {'fileName': 'squareblack.png', 'correct_response': 'right', 'condition': 'go'}, {'fileName': 'squareblack.png', 'correct_response': 'right', 'condition': 'go'}, {'fileName': 'squareblack.png', 'correct_response': 'right', 'condition': 'go'}, {'fileName': 'circleblack.png', 'correct_response': 'left', 'condition': 'go'}, {'fileName': 'circleblack.png', 'correct_response': 'left', 'condition': 'go'}, {'fileName': 'squareblack.png', 'correct_response': 'right', 'condition': 'stop'}, {'fileName': 'squareblack.png', 'correct_response': 'right', 'condition': 'go'}, {'fileName': 'squareblack.png', 'correct_response': 'right', 'condition': 'stop'}, {'fileName': 'squareblack.png', 'correct_response': 'right', 'condition': 'go'}, {'fileName': 'circleblack.png', 'correct_response': 'left', 'condition': 'stop'}, {'fileName': 'squareblack.png', 'correct_response': 'right', 'condition': 'go'}, {'fileName': 'squareblack.png', 'correct_response': 'right', 'condition': 'go'}, {'fileName': 'circleblack.png', 'correct_response': 'left', 'condition': 'go'}, {'fileName': 'circleblack.png', 'correct_response': 'left', 'condition': 'go'}, {'fileName': 'circleblack.png', 'correct_response': 'left', 'condition': 'stop'}]",,,,,,,,,,,,,,,,,,,,,,,,,,,,,,,,,,,,7029.454553619027,7029.454553619027,return,1.6343614161014557,,,,,,,,,,,,,,,,,,,,,,,,,s027,001,2024-08-12_16h11.34.137,simplestop_skeleton,2022.2.2,60.143088484563435,
None,None,,,,,,,,,0,0,0,0,0,0,0,3,,,,,,,,,7036.35188472271,stop,circleblack.png,left,0.35,,,,,,,,,,,,,,,,,,0.0077704861760139465,0.49867135286331177,0.8324445635080338,7038.864430472255,test,1,,,,,7031.120863169432,7031.120863169432,7036.377385914326,7036.877410076559,7036.877410076559,7036.877410076559,7037.211213059723,7037.711618684232,7037.878214947879,7038.883629232645,left,1,0.4432665780186653,0.3,,,,,,,,,,,s027,001,2024-08-12_16h11.34.137,simplestop_skeleton,2022.2.2,60.143088484563435,
$currentCorrectResponse,$currentGoStim,,,,,,,,,0,0,0,0,0,1,1,0,,,,,,,,,7038.864983320236,stop,squareblack.png,right,0.3,,,,,,,,,,,,,,,,,,0.0017946809530258179,0.48948071897029877,0.7893791943788528,7041.366973280907,test,1,,,,,,,7038.883629232645,7039.396641179919,7039.3800338208675,7039.3800338208675,7039.6801868751645,7040.180934637785,7040.381042689085,7041.38618709892,right,1,0.44481488317251205,0.25,,,,,,,,,,,s027,001,2024-08-12_16h11.34.137,simplestop_skeleton,2022.2.2,60.143088484563435,
None,None,,,,,,,,,0,0,0,0,0,2,2,2,,,,,,,,,7041.367453105748,go,circleblack.png,left,0.25,,,,,,,,,,,,,,,,,,0.0019469931721687317,0.4894036203622818,,7043.869440674782,test,1,,,,,,,7041.38618709892,7041.899396367371,7041.882804200053,7041.882804200053,7042.133089721203,7042.6337952539325,7042.883875131607,7043.888719253242,left,1,0.3473995253443718,0.25,,,,,,,,,,,s027,001,2024-08-12_16h11.34.137,simplestop_skeleton,2022.2.2,60.143088484563435,
None,None,,,,,,,,,0,0,0,0,0,3,3,2,,,,,,,,,7043.869877927005,stop,circleblack.png,left,0.25,,,,,,,,,,,,,,,,,,0.001329958438873291,0.48970354348421097,0.7398601844906807,7046.372545354068,test,1,,,,,,,7043.888719253242,7044.402209177613,7044.385416172445,7044.385416172445,7044.6357690393925,7045.136344254017,7045.386610917747,7046.39188002795,None,0,,0.3,,,,,,,,,,,s027,001,2024-08-12_16h11.34.137,simplestop_skeleton,2022.2.2,60.143088484563435,
None,None,,,,,,,,,0,0,0,0,1,0,4,3,,,,,,,,,7046.373026669025,go,squareblack.png,right,0.3,,,,,,,,,,,,,,,,,,0.0018172264099121094,0.48958417773246765,,7048.875084981322,test,1,,,,,,,7046.39188002795,7046.90487600863,7046.888384453952,7046.888384453952,7047.188604071736,7047.688474886119,7047.888699434698,7048.894599810243,right,1,0.37249816209077835,0.3,,,,,,,,,,,s027,001,2024-08-12_16h11.34.137,simplestop_skeleton,2022.2.2,60.143088484563435,
None,None,,,,,,,,,0,0,0,0,1,1,5,3,,,,,,,,,7048.875532783568,go,circleblack.png,left,0.3,,,,,,,,,,,,,,,,,,0.0019264966249465942,0.4895777404308319,,7051.377699904144,test,1,,,,,,,7048.894599810243,7049.40779311955,7049.390991136432,7049.390991136432,7049.691322542727,7050.1920384168625,7050.392180226743,7051.397043712437,left,1,0.4778168871998787,0.3,,,,,,,,,,,s027,001,2024-08-12_16h11.34.137,simplestop_skeleton,2022.2.2,60.143088484563435,
None,None,,,,,,,,,0,0,0,0,1,2,6,2,,,,,,,,,7051.378147363663,go,squareblack.png,right,0.3,,,,,,,,,,,,,,,,,,0.0017817169427871704,0.4895009770989418,,7053.880663536489,test,1,,,,,,,7051.397043712437,7051.910658575594,7051.893843777478,7051.893843777478,7052.194205343723,7052.694630518556,7052.8951348513365,7053.900134623051,right,1,0.35141507536172867,0.3,,,,,,,,,,,s027,001,2024-08-12_16h11.34.137,simplestop_skeleton,2022.2.2,60.143088484563435,
None,None,,,,,,,,,0,0,0,0,1,3,7,3,,,,,,,,,7053.881098158658,go,circleblack.png,left,0.3,,,,,,,,,,,,,,,,,,0.0019603893160820007,0.48962536454200745,,7056.383355483413,test,1,,,,,,,7053.900134623051,7054.413105934858,7054.396749064326,7054.396749064326,7054.696858629584,7055.197261221707,7055.397736161947,7056.402852147818,left,1,0.3750930577516556,0.3,,,,,,,,,,,s027,001,2024-08-12_16h11.34.137,simplestop_skeleton,2022.2.2,60.143088484563435,
None,None,,,,,,,,,0,0,0,0,2,0,8,3,,,,,,,,,7056.383797578514,stop,squareblack.png,right,0.3,,,,,,,,,,,,,,,,,,0.0016969367861747742,0.4895496815443039,0.790199801325798,7058.8864993825555,test,1,,,,,,,7056.402852147818,7056.915933929384,7056.899711988866,7056.899711988866,7057.199727959931,7057.7001128047705,7057.900025993586,7058.90515345335,None,0,,0.35,,,,,,,,,,,s027,001,2024-08-12_16h11.34.137,simplestop_skeleton,2022.2.2,60.143088484563435,
None,None,,,,,,,,,0,0,0,0,2,1,9,2,,,,,,,,,7058.886941418052,go,squareblack.png,right,0.35,,,,,,,,,,,,,,,,,,0.0013512670993804932,0.48971181362867355,,7061.388760842383,test,1,,,,,,,7058.90515345335,7059.418863415718,7059.402165450156,7059.402165450156,7059.752455197275,7060.2529341727495,7060.402657084167,7061.407792039216,left,0,0.45884326100349426,0.35,,,,,,,,,,,s027,001,2024-08-12_16h11.34.137,simplestop_skeleton,2022.2.2,60.143088484563435,
None,None,,,,,,,,,0,0,0,0,2,2,10,2,,,,,,,,,7061.3891980573535,go,circleblack.png,left,0.35,,,,,,,,,,,,,,,,,,0.0017780140042304993,0.4899876192212105,,7063.89187284559,test,1,,,,,,,7061.407792039216,7061.921454325318,7061.905099511147,7061.905099511147,7062.255398094654,7062.755646258593,7062.906097389758,7063.9109951630235,left,1,0.39176055788993835,0.35,,,,,,,,,,,s027,001,2024-08-12_16h11.34.137,simplestop_skeleton,2022.2.2,60.143088484563435,
$currentCorrectResponse,$currentGoStim,,,,,,,,,0,0,0,0,2,3,11,0,,,,,,,,,7063.892380170524,go,squareblack.png,right,0.35,,,,,,,,,,,,,,,,,,0.0017639994621276855,0.48938358575105667,,7066.3941299542785,test,1,,,,,,,7063.9109951630235,7064.424394406378,7064.4077507555485,7064.4077507555485,7064.757920004427,7065.258706502616,7065.409031249583,7066.412803463638,left,0,0.43199698626995087,0.35,,,,,,,,,,,s027,001,2024-08-12_16h11.34.137,simplestop_skeleton,2022.2.2,60.143088484563435,
None,None,,,,,,,,,0,0,0,0,3,0,12,2,,,,,,,,,7066.394562847912,go,squareblack.png,right,0.35,,,,,,,,,,,,,,,,,,0.001206234097480774,0.48980438709259033,,7068.89730219543,test,1,,,,,,,7066.412803463638,7066.926971629262,7066.910244010389,7066.910244010389,7067.260819628835,7067.761247374117,7067.91140101105,7068.916135303676,right,1,0.4345570579171181,0.35,,,,,,,,,,,s027,001,2024-08-12_16h11.34.137,simplestop_skeleton,2022.2.2,60.143088484563435,
None,None,,,,,,,,,0,0,0,0,3,1,13,3,,,,,,,,,7068.897745244205,go,squareblack.png,right,0.35,,,,,,,,,,,,,,,,,,0.0013772845268249512,0.4895397648215294,,7071.399867281318,test,1,,,,,,,7068.916135303676,7069.429792530835,7069.413412958384,7069.413412958384,7069.763497814536,7070.2640746459365,7070.414003886282,7071.419239781797,right,1,0.6221105009317398,0.35,,,,,,,,,,,s027,001,2024-08-12_16h11.34.137,simplestop_skeleton,2022.2.2,60.143088484563435,
None,None,,,,,,,,,0,0,0,0,3,2,14,3,,,,,,,,,7071.40029976517,go,circleblack.png,left,0.35,,,,,,,,,,,,,,,,,,0.0018906518816947937,0.49017513543367386,,7073.902437098324,test,1,,,,,,,7071.419239781797,7071.932464666665,7071.915948159993,7071.915948159993,7072.266215629876,7072.76552452147,7072.91641253978,7073.921432688832,left,1,0.485653892159462,0.35,,,,,,,,,,,s027,001,2024-08-12_16h11.34.137,simplestop_skeleton,2022.2.2,60.143088484563435,
None,None,,,,,,,,,0,0,0,0,3,3,15,1,,,,,,,,,7073.902870215476,stop,squareblack.png,right,0.35,,,,,,,,,,,,,,,,,,0.0017354488372802734,0.4900927022099495,0.840625673532486,7076.405500084162,test,1,,,,,,,7073.921432688832,7074.435442335904,7074.4187734648585,7074.4187734648585,7074.769080400467,7075.269673369825,7075.419701159,7076.424445390701,right,1,0.4215927869081497,0.3,,,,,,,,,,,s027,001,2024-08-12_16h11.34.137,simplestop_skeleton,2022.2.2,60.143088484563435,
None,None,,,,,,,,,0,0,0,0,4,0,16,2,,,,,,,,,7076.405930258334,stop,circleblack.png,left,0.3,,,,,,,,,,,,,,,,,,0.0016977787017822266,0.48963703215122223,0.7903056368231773,7078.908293053508,test,1,,,,,,,7076.424445390701,7076.938162922859,7076.921288006008,7076.921288006008,7077.222045481205,7077.740064889193,7077.922096520662,7078.927215486765,left,1,0.43849895894527435,0.25,,,,,,,,,,,s027,001,2024-08-12_16h11.34.137,simplestop_skeleton,2022.2.2,60.143088484563435,
None,None,,,,,,,,,0,0,0,0,4,1,17,1,,,,,,,,,7078.908735953271,stop,squareblack.png,right,0.25,,,,,,,,,,,,,,,,,,0.001631222665309906,0.4897117391228676,0.7398711815476418,7081.4108610749245,test,1,,,,,,,7078.927215486765,7079.440869234502,7079.424088187516,7079.424088187516,7079.6744449436665,7080.174902841449,7080.425192035735,7081.429745309055,None,0,,0.3,,,,,,,,,,,s027,001,2024-08-12_16h11.34.137,simplestop_skeleton,2022.2.2,60.143088484563435,
$currentCorrectResponse,$currentGoStim,,,,,,,,,0,0,0,0,4,2,18,0,,,,,,,,,7081.411443024874,go,squareblack.png,right,0.3,,,,,,,,,,,,,,,,,,0.001271463930606842,0.48953887075185776,,7083.913546539843,test,1,,,,,,,7081.429745309055,7081.943553924561,7081.92682992667,7081.92682992667,7082.227172605693,7082.727821364999,7082.928117528558,7083.931862257421,right,1,0.5365012735128403,0.3,,,,,,,,,,,s027,001,2024-08-12_16h11.34.137,simplestop_skeleton,2022.2.2,60.143088484563435,
None,None,,,,,,,,,0,0,0,0,4,3,19,3,,,,,,,,,7083.913995333016,go,squareblack.png,right,0.3,,,,,,,,,,,,,,,,,,0.0011801868677139282,0.48977576941251755,,7086.416334316134,test,1,,,,,,,7083.931862257421,7084.446131892502,7084.429627239704,7084.429627239704,7084.729944266379,7085.230491116643,7085.430652208626,7086.435678265989,right,1,0.40929217636585236,0.3,,,,,,,,,,,s027,001,2024-08-12_16h11.34.137,simplestop_skeleton,2022.2.2,60.143088484563435,
$currentCorrectResponse,$currentGoStim,,,,,,,,,0,0,0,0,5,0,20,0,,,,,,,,,7086.416783601046,go,circleblack.png,left,0.3,,,,,,,,,,,,,,,,,,0.0019039809703826904,0.4897708147764206,,7088.918882749975,test,1,,,,,,,7086.435678265989,7086.948966532946,7086.932249948382,7086.932249948382,7087.232579924166,7087.733240492642,7087.933483816683,7088.937787525356,left,1,0.5597769692540169,0.3,,,,,,,,,,,s027,001,2024-08-12_16h11.34.137,simplestop_skeleton,2022.2.2,60.143088484563435,
None,None,,,,,,,,,0,0,0,0,5,1,21,3,,,,,,,,,7088.919345706701,go,circleblack.png,left,0.3,,,,,,,,,,,,,,,,,,0.0012629702687263489,0.4898858442902565,,7091.422070555389,test,1,,,,,,,7088.937787525356,7089.451816640794,7089.435370273888,7089.435370273888,7089.73542290926,7090.236060343683,7090.436514802277,7091.441107995808,left,1,0.4331553354859352,0.3,,,,,,,,,,,s027,001,2024-08-12_16h11.34.137,simplestop_skeleton,2022.2.2,60.143088484563435,
None,None,,,,,,,,,0,0,0,0,5,2,22,2,,,,,,,,,7091.422514587641,stop,circleblack.png,left,0.3,,,,,,,,,,,,,,,,,,0.001439206302165985,0.48970577120780945,0.7897967249155045,7093.924836367369,test,1,,,,,,,7091.441107995808,7091.954714953899,7091.937985934317,7091.937985934317,7092.238336972892,7092.7390391379595,7092.939000762999,7093.9436702132225,None,0,,0.35,,,,,,,,,,,s027,001,2024-08-12_16h11.34.137,simplestop_skeleton,2022.2.2,60.143088484563435,
None,None,,,,,,,,,0,0,0,0,5,3,23,3,,,,,,,,,7093.925280377269,go,circleblack.png,left,0.35,,,,,,,,,,,,,,,,,,0.0014423206448554993,0.48955415934324265,,7096.427289709449,test,1,,,,,,,7093.9436702132225,7094.4573523923755,7094.440622113645,7094.440622113645,7094.791226282716,7095.292816929519,7095.441230863333,7096.445751778781,left,1,0.46293244510889053,0.35,,,,,,,,,,,s027,001,2024-08-12_16h11.34.137,simplestop_skeleton,2022.2.2,60.143088484563435,
None,None,,,,,,,,,0,0,0,0,6,0,24,2,,,,,,,,,7096.427725307643,stop,circleblack.png,left,0.35,,,,,,,,,,,,,,,,,,0.0013023391366004944,0.48986678570508957,0.840269148349762,7098.93006876111,test,1,,,,,,,7096.445751778781,7096.960281476378,7096.943382866681,7096.943382866681,7097.293670788407,7097.793087899685,7097.943698480725,7098.949002720416,left,1,0.5091328024864197,0.3,,,,,,,,,,,s027,001,2024-08-12_16h11.34.137,simplestop_skeleton,2022.2.2,60.143088484563435,
None,None,,,,,,,,,0,0,0,0,6,1,25,1,,,,,,,,,7098.930507108569,go,circleblack.png,left,0.3,,,,,,,,,,,,,,,,,,0.0012452974915504456,0.48962611705064774,,7101.433012768626,test,1,,,,,,,7098.949002720416,7099.462878197432,7099.446072787046,7099.446072787046,7099.746419943869,7100.246902488172,7100.447289459407,7101.451708383858,left,1,0.5112779289484024,0.3,,,,,,,,,,,s027,001,2024-08-12_16h11.34.137,simplestop_skeleton,2022.2.2,60.143088484563435,
None,None,,,,,,,,,0,0,0,0,6,2,26,1,,,,,,,,,7101.433458082378,go,circleblack.png,left,0.3,,,,,,,,,,,,,,,,,,0.0012936070561408997,0.48967529833316803,,7103.935582511127,test,1,,,,,,,7101.451708383858,7101.96545509994,7101.948873847723,7101.948873847723,7102.24930639565,7102.751717753708,7102.9486432000995,7103.954511657357,left,1,0.7021746784448624,0.3,,,,,,,,,,,s027,001,2024-08-12_16h11.34.137,simplestop_skeleton,2022.2.2,60.143088484563435,
$currentCorrectResponse,$currentGoStim,,,,,,,,,0,0,0,0,6,3,27,0,,,,,,,,,7103.936022974551,stop,squareblack.png,right,0.3,,,,,,,,,,,,,,,,,,0.0016476362943649292,0.4898773580789566,0.7907207310199738,7106.438393950462,test,1,,,,,,,7103.954511657357,7104.468410179019,7104.451791234314,7104.451791234314,7104.752086982131,7105.252462357283,7105.452747032046,7106.456996023655,None,0,,0.35,,,,,,,,,,,s027,001,2024-08-12_16h11.34.137,simplestop_skeleton,2022.2.2,60.143088484563435,
$currentCorrectResponse,$currentGoStim,,,,,,,,,0,0,0,0,7,0,28,0,,,,,,,,,7106.438837684691,go,squareblack.png,right,0.35,,,,,,,,,,,,,,,,,,0.001196064054965973,0.4900931343436241,,7108.94132989645,test,1,,,,,,,7106.456996023655,7106.971151120961,7106.954551964998,7106.954551964998,7107.304909333587,7107.804089404643,7107.955213800073,7108.96080481261,right,1,0.4899810701608658,0.35,,,,,,,,,,,s027,001,2024-08-12_16h11.34.137,simplestop_skeleton,2022.2.2,60.143088484563435,
None,None,,,,,,,,,0,0,0,0,7,1,29,1,,,,,,,,,7108.941765144467,go,circleblack.png,left,0.35,,,,,,,,,,,,,,,,,,0.0018397867679595947,0.4898710548877716,,7111.4443109333515,test,1,,,,,,,7108.96080481261,7109.473960347474,7109.457444623113,7109.457444623113,7109.807814955711,7110.307692676783,7110.458040073514,7111.464217342436,left,1,0.4148920327425003,0.35,,,,,,,,,,,s027,001,2024-08-12_16h11.34.137,simplestop_skeleton,2022.2.2,60.143088484563435,
$currentCorrectResponse,$currentGoStim,,,,,,,,,0,0,0,0,7,2,30,0,,,,,,,,,7111.444755367935,go,squareblack.png,right,0.35,,,,,,,,,,,,,,,,,,0.0017765238881111145,0.4888942837715149,,7113.946807406843,test,1,,,,,,,7111.464217342436,7111.976463779807,7111.959326043725,7111.959326043725,7112.310479909182,7112.81096470356,7112.961477346718,7113.965703390539,right,1,0.5704519897699356,0.35,,,,,,,,,,,s027,001,2024-08-12_16h11.34.137,simplestop_skeleton,2022.2.2,60.143088484563435,
None,None,,,,,,,,,0,0,0,0,7,3,31,1,,,,,,,,,7113.9472426995635,go,squareblack.png,right,0.35,,,,,,,,,,,,,,,,,,0.0012976452708244324,0.4896785840392113,,7116.449703767896,test,1,,,,,,,7113.965703390539,7114.479496851563,7114.462926335633,7114.462926335633,7114.8131680339575,7115.313851162791,7115.463816121221,7116.468708477914,right,1,0.6981330588459969,0.35,,,,,,,,,,,s027,001,2024-08-12_16h11.34.137,simplestop_skeleton,2022.2.2,60.143088484563435,
None,None,,,,,,,,,0,0,0,0,8,0,32,2,,,,,,,,,7116.4501548707485,stop,squareblack.png,right,0.35,,,,,,,,,,,,,,,,,,0.00133465975522995,0.4899435415863991,0.8400982618331909,7118.952266477048,test,1,,,,,,,7116.468708477914,7116.9821961298585,7116.965613417327,7116.965613417327,7117.316329061985,7117.816683471203,7117.966900520027,7118.970898747444,None,0,,0.4,,,,,,,,,,,s027,001,2024-08-12_16h11.34.137,simplestop_skeleton,2022.2.2,60.143088484563435,
None,None,,,,,,,,,0,0,0,0,8,1,33,2,,,,,,,,,7118.952710747719,go,squareblack.png,right,0.4,,,,,,,,,,,,,,,,,,0.0012597143650054932,0.48982423543930054,,7121.455022364855,test,1,,,,,,,7118.970898747444,7119.484965287149,7119.468134969473,7119.468134969473,7119.868621215224,7120.3687128052115,7120.468378283083,7121.474321171641,right,1,0.5345176681876183,0.4,,,,,,,,,,,s027,001,2024-08-12_16h11.34.137,simplestop_skeleton,2022.2.2,60.143088484563435,
None,None,,,,,,,,,0,0,0,0,8,2,34,2,,,,,,,,,7121.4554650858045,go,circleblack.png,left,0.4,,,,,,,,,,,,,,,,,,0.001906067132949829,0.4896900951862335,,7123.957494467497,test,1,,,,,,,7121.474321171641,7121.987717345357,7121.971025876701,7121.971025876701,7122.371592797339,7122.872178591788,7122.971786811948,7123.976483121514,left,1,0.5949503034353256,0.4,,,,,,,,,,,s027,001,2024-08-12_16h11.34.137,simplestop_skeleton,2022.2.2,60.143088484563435,
None,None,,,,,,,,,0,0,0,0,8,3,35,1,,,,,,,,,7123.957980059087,stop,circleblack.png,left,0.4,,,,,,,,,,,,,,,,,,0.001245066523551941,0.4899897947907448,0.8904217332601547,7126.460684917867,test,1,,,,,,,7123.976483121514,7124.490769453347,7124.473907358944,7124.473907358944,7124.874383799732,7125.374939106405,7125.475127987564,7126.4796911254525,left,1,0.559719480574131,0.35,,,,,,,,,,,s027,001,2024-08-12_16h11.34.137,simplestop_skeleton,2022.2.2,60.143088484563435,
None,None,,,,,,,,,0,0,0,0,9,0,36,1,,,,,,,,,7126.461123548448,go,circleblack.png,left,0.35,,,,,,,,,,,,,,,,,,0.0013854876160621643,0.4896930605173111,,7128.963448010385,test,1,,,,,,,7126.4796911254525,7126.993636190891,7126.976806648076,7126.976806648076,7127.3268541917205,7127.826874122024,7127.977311260998,7128.982398688793,left,1,0.45517314225435257,0.35,,,,,,,,,,,s027,001,2024-08-12_16h11.34.137,simplestop_skeleton,2022.2.2,60.143088484563435,
None,None,,,,,,,,,0,0,0,0,9,1,37,1,,,,,,,,,7128.963894866407,go,squareblack.png,right,0.35,,,,,,,,,,,,,,,,,,0.0016205459833145142,0.4895588308572769,,7131.465908609331,test,1,,,,,,,7128.982398688793,7129.4960308894515,7129.479262821376,7129.479262821376,7129.829894497991,7130.346081830561,7130.4798204004765,7131.485055506229,right,1,0.48837605863809586,0.35,,,,,,,,,,,s027,001,2024-08-12_16h11.34.137,simplestop_skeleton,2022.2.2,60.143088484563435,
None,None,,,,,,,,,0,0,0,0,9,2,38,1,,,,,,,,,7131.466348603368,go,squareblack.png,right,0.35,,,,,,,,,,,,,,,,,,0.0011891648173332214,0.4896916449069977,,7133.967898480594,test,1,,,,,,,7131.485055506229,7131.998807236552,7131.981924340129,7131.981924340129,7132.3323118165135,7132.831640928984,7132.982392191887,7133.986586347222,right,1,0.5852147117257118,0.35,,,,,,,,,,,s027,001,2024-08-12_16h11.34.137,simplestop_skeleton,2022.2.2,60.143088484563435,
None,None,,,,,,,,,0,0,0,0,9,3,39,1,,,,,,,,,7133.968559905887,stop,circleblack.png,left,0.35,,,,,,,,,,,,,,,,,,0.00210610032081604,0.48851288855075836,0.8390027061104774,7136.471628308296,test,1,,,,,,,7133.986586347222,7134.500385284424,7134.483932547271,7134.483932547271,7134.834252208471,7135.335307814181,7135.485079079866,7136.490558817983,left,1,0.5798563361167908,0.3,,,,,,,,,,,s027,001,2024-08-12_16h11.34.137,simplestop_skeleton,2022.2.2,60.143088484563435,
$currentCorrectResponse,$currentGoStim,,,,,,,,,0,0,0,0,10,0,40,0,,,,,,,,,7136.472074300051,stop,squareblack.png,right,0.3,,,,,,,,,,,,,,,,,,0.001594454050064087,0.4899761751294136,0.7899308353662491,7138.974295437336,test,1,,,,,,,7136.490558817983,7137.004144370556,7136.987638227642,7136.987638227642,7137.287908993661,7137.788552500308,7137.9887418448925,7138.9929115101695,None,0,,0.35,,,,,,,,,,,s027,001,2024-08-12_16h11.34.137,simplestop_skeleton,2022.2.2,60.143088484563435,
$currentCorrectResponse,$currentGoStim,,,,,,,,,0,0,0,0,10,1,41,0,,,,,,,,,7138.974737480283,go,squareblack.png,right,0.35,,,,,,,,,,,,,,,,,,0.001186072826385498,0.4901304319500923,,7141.476955398917,test,1,,,,,,,7138.9929115101695,7139.507311373949,7139.490403786302,7139.490403786302,7139.8408106043935,7140.341567620635,7140.491384729743,7141.496170826256,right,1,0.625946469604969,0.35,,,,,,,,,,,s027,001,2024-08-12_16h11.34.137,simplestop_skeleton,2022.2.2,60.143088484563435,
None,None,,,,,,,,,0,0,0,0,10,2,42,3,,,,,,,,,7141.47739046067,go,circleblack.png,left,0.35,,,,,,,,,,,,,,,,,,0.0017860755324363708,0.4901498332619667,,7143.9800263643265,test,1,,,,,,,7141.496170826256,7142.009871631861,7141.993261128664,7141.993261128664,7142.343630753458,7142.843972146511,7142.994506530464,7143.998882845044,left,1,0.7023544684052467,0.35,,,,,,,,,,,s027,001,2024-08-12_16h11.34.137,simplestop_skeleton,2022.2.2,60.143088484563435,
None,None,,,,,,,,,0,0,0,0,10,3,43,1,,,,,,,,,7143.980461984873,go,circleblack.png,left,0.35,,,,,,,,,,,,,,,,,,0.0013696923851966858,0.48957114666700363,,7146.482532165945,test,1,,,,,,,7143.998882845044,7144.512629970908,7144.495941072702,7144.495941072702,7144.846506148577,7145.347224257886,7145.497511178255,7146.501168347895,left,1,0.11425554752349854,0.35,,,,,,,,,,,s027,001,2024-08-12_16h11.34.137,simplestop_skeleton,2022.2.2,60.143088484563435,
$currentCorrectResponse,$currentGoStim,,,,,,,,,0,0,0,0,11,0,44,0,,,,,,,,,7146.482963822782,go,circleblack.png,left,0.35,,,,,,,,,,,,,,,,,,0.0013524293899536133,0.49019499123096466,,7148.985328115523,test,1,,,,,,,7146.501168347895,7147.015346683562,7146.998726725578,7146.998726725578,7147.34917768836,7147.8498120084405,7147.9999988004565,7149.005210191011,left,1,1.3039368093013763,0.35,,,,,,,,,,,s027,001,2024-08-12_16h11.34.137,simplestop_skeleton,2022.2.2,60.143088484563435,
None,None,,,,,,,,,0,0,0,0,11,1,45,3,,,,,,,,,7148.985761851072,stop,squareblack.png,right,0.35,,,,,,,,,,,,,,,,,,0.0017053782939910889,0.49002715945243835,0.8402863964438438,7151.488362625241,test,1,,,,,,,7149.005210191011,7149.518094986677,7149.5014378502965,7149.5014378502965,7149.851700678468,7150.352425523102,7150.502020083368,7151.506990365684,None,0,,0.4,,,,,,,,,,,s027,001,2024-08-12_16h11.34.137,simplestop_skeleton,2022.2.2,60.143088484563435,
$currentCorrectResponse,$currentGoStim,,,,,,,,,0,0,0,0,11,2,46,0,,,,,,,,,7151.488810710609,go,squareblack.png,right,0.4,,,,,,,,,,,,,,,,,,0.0013077706098556519,0.4897218644618988,,7153.991203226149,test,1,,,,,,,7151.506990365684,7152.021099768579,7152.0042646974325,7152.0042646974325,7152.404586903751,7152.90483777225,7153.005542717874,7154.010489806533,right,1,0.5738687738776207,0.4,,,,,,,,,,,s027,001,2024-08-12_16h11.34.137,simplestop_skeleton,2022.2.2,60.143088484563435,
$currentCorrectResponse,$currentGoStim,,,,,,,,,0,0,0,0,11,3,47,0,,,,,,,,,7153.991642639041,stop,circleblack.png,left,0.4,,,,,,,,,,,,,,,,,,0.0019630491733551025,0.4894247278571129,0.8900395706295967,7156.493557974696,test,1,,,,,,,7154.010489806533,7154.523489095271,7154.507014460862,7154.507014460862,7154.9074300304055,7155.40732511878,7155.507490359247,7156.514442771673,left,1,0.46856630593538284,0.35,,,,,,,,,,,s027,001,2024-08-12_16h11.34.137,simplestop_skeleton,2022.2.2,60.143088484563435,
,,,,,,,,,,0,0,0,0,,,,,,"[{'fileName': 'squareblack.png', 'correct_response': 'right', 'condition': 'stop'}, {'fileName': 'circleblack.png', 'correct_response': 'left', 'condition': 'go'}, {'fileName': 'squareblack.png', 'correct_response': 'right', 'condition': 'go'}, {'fileName': 'circleblack.png', 'correct_response': 'left', 'condition': 'go'}, {'fileName': 'squareblack.png', 'correct_response': 'right', 'condition': 'go'}, {'fileName': 'circleblack.png', 'correct_response': 'left', 'condition': 'go'}, {'fileName': 'circleblack.png', 'correct_response': 'left', 'condition': 'stop'}, {'fileName': 'squareblack.png', 'correct_response': 'right', 'condition': 'stop'}, {'fileName': 'circleblack.png', 'correct_response': 'left', 'condition': 'stop'}, {'fileName': 'squareblack.png', 'correct_response': 'right', 'condition': 'go'}, {'fileName': 'squareblack.png', 'correct_response': 'right', 'condition': 'go'}, {'fileName': 'circleblack.png', 'correct_response': 'left', 'condition': 'go'}, {'fileName': 'circleblack.png', 'correct_response': 'left', 'condition': 'stop'}, {'fileName': 'squareblack.png', 'correct_response': 'right', 'condition': 'stop'}, {'fileName': 'circleblack.png', 'correct_response': 'left', 'condition': 'go'}, {'fileName': 'squareblack.png', 'correct_response': 'right', 'condition': 'go'}, {'fileName': 'circleblack.png', 'correct_response': 'left', 'condition': 'go'}, {'fileName': 'squareblack.png', 'correct_response': 'right', 'condition': 'go'}, {'fileName': 'squareblack.png', 'correct_response': 'right', 'condition': 'stop'}, {'fileName': 'circleblack.png', 'correct_response': 'left', 'condition': 'go'}, {'fileName': 'circleblack.png', 'correct_response': 'left', 'condition': 'stop'}, {'fileName': 'squareblack.png', 'correct_response': 'right', 'condition': 'go'}, {'fileName': 'squareblack.png', 'correct_response': 'right', 'condition': 'go'}, {'fileName': 'circleblack.png', 'correct_response': 'left', 'condition': 'go'}, {'fileName': 'circleblack.png', 'correct_response': 'left', 'condition': 'go'}, {'fileName': 'circleblack.png', 'correct_response': 'left', 'condition': 'stop'}, {'fileName': 'circleblack.png', 'correct_response': 'left', 'condition': 'go'}, {'fileName': 'squareblack.png', 'correct_response': 'right', 'condition': 'stop'}, {'fileName': 'circleblack.png', 'correct_response': 'left', 'condition': 'go'}, {'fileName': 'squareblack.png', 'correct_response': 'right', 'condition': 'go'}, {'fileName': 'circleblack.png', 'correct_response': 'left', 'condition': 'stop'}, {'fileName': 'squareblack.png', 'correct_response': 'right', 'condition': 'go'}, {'fileName': 'squareblack.png', 'correct_response': 'right', 'condition': 'go'}, {'fileName': 'squareblack.png', 'correct_response': 'right', 'condition': 'go'}, {'fileName': 'squareblack.png', 'correct_response': 'right', 'condition': 'stop'}, {'fileName': 'circleblack.png', 'correct_response': 'left', 'condition': 'go'}, {'fileName': 'squareblack.png', 'correct_response': 'right', 'condition': 'go'}, {'fileName': 'squareblack.png', 'correct_response': 'right', 'condition': 'go'}, {'fileName': 'circleblack.png', 'correct_response': 'left', 'condition': 'stop'}, {'fileName': 'circleblack.png', 'correct_response': 'left', 'condition': 'go'}, {'fileName': 'squareblack.png', 'correct_response': 'right', 'condition': 'go'}, {'fileName': 'circleblack.png', 'correct_response': 'left', 'condition': 'stop'}, {'fileName': 'circleblack.png', 'correct_response': 'left', 'condition': 'go'}, {'fileName': 'squareblack.png', 'correct_response': 'right', 'condition': 'stop'}, {'fileName': 'circleblack.png', 'correct_response': 'left', 'condition': 'go'}, {'fileName': 'squareblack.png', 'correct_response': 'right', 'condition': 'stop'}, {'fileName': 'circleblack.png', 'correct_response': 'left', 'condition': 'go'}, {'fileName': 'squareblack.png', 'correct_response': 'right', 'condition': 'go'}]",,,,,,,,,,,,,,,,,,,,,,,,,,,,,,,,,,,,,,,,,,,,,,,,,,,,,7156.514442771673,7156.514442771673,return,2.7041051238775253,,,,,,,s027,001,2024-08-12_16h11.34.137,simplestop_skeleton,2022.2.2,60.143088484563435,
None,None,,,,,,,,,1,0,1,0,0,0,0,1,,,,,,,,,7159.237642802298,stop,squareblack.png,right,0.35,,,,,,,,,,,,,,,,,,0.0017073825001716614,0.4982038214802742,0.8484990894794464,7161.750110253692,test,2,,,,,,,7159.257656879723,7159.762971773744,7159.762971773744,7159.762971773744,7160.113357685506,7160.613764218986,7160.764111429453,7161.769415527582,right,1,0.5512984916567802,0.3,,,,,,,,,,,s027,001,2024-08-12_16h11.34.137,simplestop_skeleton,2022.2.2,60.143088484563435,
$currentCorrectResponse,$currentGoStim,,,,,,,,,1,0,1,0,0,1,1,0,,,,,,,,,7161.750646494329,go,circleblack.png,left,0.3,,,,,,,,,,,,,,,,,,0.002656117081642151,0.4891441985964775,,7164.252323620021,test,2,,,,,,,7161.769415527582,7162.282288782299,7162.265517063439,7162.265517063439,7162.566036470234,7163.065697103739,7163.266174539924,7164.2713890224695,left,1,0.3947877734899521,0.3,,,,,,,,,,,s027,001,2024-08-12_16h11.34.137,simplestop_skeleton,2022.2.2,60.143088484563435,
None,None,,,,,,,,,1,0,1,0,0,2,2,2,,,,,,,,,7164.252762787044,go,squareblack.png,right,0.3,,,,,,,,,,,,,,,,,,0.0017360225319862366,0.4898577332496643,,7166.754998616874,test,2,,,,,,,7164.2713890224695,7164.785103678703,7164.768221773207,7164.768221773207,7165.068999245763,7165.568932749331,7165.769042253494,7166.7742375433445,right,1,0.4024289771914482,0.3,,,,,,,,,,,s027,001,2024-08-12_16h11.34.137,simplestop_skeleton,2022.2.2,60.143088484563435,
None,None,,,,,,,,,1,0,1,0,0,3,3,1,,,,,,,,,7166.7554265633225,go,circleblack.png,left,0.3,,,,,,,,,,,,,,,,,,0.0018631815910339355,0.489931583404541,,7169.257680758834,test,2,,,,,,,7166.7742375433445,7167.287612430751,7167.270959913731,7167.270959913731,7167.5713663473725,7168.071622788906,7168.271926172078,7169.276873327792,right,0,0.3890472576022148,0.3,,,,,,,,,,,s027,001,2024-08-12_16h11.34.137,simplestop_skeleton,2022.2.2,60.143088484563435,
None,None,,,,,,,,,1,0,1,0,1,0,4,1,,,,,,,,,7169.258125677705,go,squareblack.png,right,0.3,,,,,,,,,,,,,,,,,,0.001668088138103485,0.48988547176122665,,7171.760415323079,test,2,,,,,,,7169.276873327792,7169.79042006284,7169.773925669491,7169.773925669491,7170.074044577777,7170.574909642339,7170.77512357384,7171.779579989612,right,1,0.5634156242012978,0.3,,,,,,,,,,,s027,001,2024-08-12_16h11.34.137,simplestop_skeleton,2022.2.2,60.143088484563435,
None,None,,,,,,,,,1,0,1,0,1,1,5,2,,,,,,,,,7171.760856069624,go,circleblack.png,left,0.3,,,,,,,,,,,,,,,,,,0.0017514601349830627,0.48996706306934357,,7174.263562835753,test,2,,,,,,,7171.779579989612,7172.293369412422,7172.27644483,7172.27644483,7172.576850302517,7173.076083295047,7173.277159295976,7174.282584235072,left,1,0.4291677623987198,0.3,,,,,,,,,,,s027,001,2024-08-12_16h11.34.137,simplestop_skeleton,2022.2.2,60.143088484563435,
None,None,,,,,,,,,1,0,1,0,1,2,6,3,,,,,,,,,7174.263991445303,stop,circleblack.png,left,0.3,,,,,,,,,,,,,,,,,,0.001381613314151764,0.48938513547182083,0.7896101847290993,7176.766278155148,test,2,,,,,,,7174.282584235072,7174.796002820134,7174.779589213431,7174.779589213431,7175.079689823091,7175.580585964024,7175.779861316085,7176.785352766514,left,1,0.4052659720182419,0.25,,,,,,,,,,,s027,001,2024-08-12_16h11.34.137,simplestop_skeleton,2022.2.2,60.143088484563435,
None,None,,,,,,,,,1,0,1,0,1,3,7,2,,,,,,,,,7176.766720928252,stop,squareblack.png,right,0.25,,,,,,,,,,,,,,,,,,0.001720435917377472,0.4894489571452141,0.7398152127861977,7179.268755637109,test,2,,,,,,,7176.785352766514,7177.298728078604,7177.282352052629,7177.282352052629,7177.532485626638,7178.033114872873,7178.283321112394,7179.288051657379,None,0,,0.3,,,,,,,,,,,s027,001,2024-08-12_16h11.34.137,simplestop_skeleton,2022.2.2,60.143088484563435,
None,None,,,,,,,,,1,0,1,0,2,0,8,1,,,,,,,,,7179.269188925624,stop,circleblack.png,left,0.3,,,,,,,,,,,,,,,,,,0.0017968639731407166,0.48975539207458496,0.7902275025844574,7181.771580129862,test,2,,,,,,,7179.288051657379,7179.801430314779,7179.784846171737,7179.784846171737,7180.085142180324,7180.585061237216,7180.785233661532,7181.791016049683,left,1,0.3857484683394432,0.25,,,,,,,,,,,s027,001,2024-08-12_16h11.34.137,simplestop_skeleton,2022.2.2,60.143088484563435,
$currentCorrectResponse,$currentGoStim,,,,,,,,,1,0,1,0,2,1,9,0,,,,,,,,,7181.77201526612,go,squareblack.png,right,0.25,,,,,,,,,,,,,,,,,,0.0018166005611419678,0.4894683435559273,,7184.2743806988,test,2,,,,,,,7181.791016049683,7182.304656907916,7182.287741430104,7182.287741430104,7182.538090154529,7183.038935534656,7183.288244850934,7184.2928601801395,right,1,0.49182312190532684,0.25,,,,,,,,,,,s027,001,2024-08-12_16h11.34.137,simplestop_skeleton,2022.2.2,60.143088484563435,
None,None,,,,,,,,,1,0,1,0,2,2,10,3,,,,,,,,,7184.274812966585,go,squareblack.png,right,0.25,,,,,,,,,,,,,,,,,,0.0011955797672271729,0.489871084690094,,7186.776973813772,test,2,,,,,,,7184.2928601801395,7184.807032316923,7184.790329657495,7184.790329657495,7185.040719591081,7185.541094467044,7185.791442170739,7186.796238027513,right,1,0.7186456471681595,0.25,,,,,,,,,,,s027,001,2024-08-12_16h11.34.137,simplestop_skeleton,2022.2.2,60.143088484563435,
None,None,,,,,,,,,1,0,1,0,2,3,11,2,,,,,,,,,7186.777416460216,go,circleblack.png,left,0.25,,,,,,,,,,,,,,,,,,0.0018325075507164001,0.48974767327308655,,7189.279897995293,test,2,,,,,,,7186.796238027513,7187.309626616538,7187.293177872896,7187.293177872896,7187.543312340975,7188.044028773904,7188.294237270951,7189.298591040075,left,1,0.5333921611309052,0.25,,,,,,,,,,,s027,001,2024-08-12_16h11.34.137,simplestop_skeleton,2022.2.2,60.143088484563435,
None,None,,,,,,,,,1,0,1,0,3,0,12,1,,,,,,,,,7189.280335918069,stop,circleblack.png,left,0.25,,,,,,,,,,,,,,,,,,0.0012619048357009888,0.4896622449159622,0.7400793135166168,7191.782571732998,test,2,,,,,,,7189.298591040075,7189.812498241663,7189.795741222799,7189.795741222799,7190.046055458486,7190.5465536266565,7190.797179505229,7191.801803164184,None,0,,0.3,,,,,,,,,,,s027,001,2024-08-12_16h11.34.137,simplestop_skeleton,2022.2.2,60.143088484563435,
None,None,,,,,,,,,1,0,1,0,3,1,13,1,,,,,,,,,7191.783010959625,stop,squareblack.png,right,0.3,,,,,,,,,,,,,,,,,,0.0017084777355194092,0.4895526394248009,0.7898027747869492,7194.285267144442,test,2,,,,,,,7191.801803164184,7192.315267600119,7192.2985648959875,7192.2985648959875,7192.599223807454,7193.099069841206,7193.299261212349,7194.304417476058,right,1,0.4218875989317894,0.25,,,,,,,,,,,s027,001,2024-08-12_16h11.34.137,simplestop_skeleton,2022.2.2,60.143088484563435,
$currentCorrectResponse,$currentGoStim,,,,,,,,,1,0,1,0,3,2,14,0,,,,,,,,,7194.285717889667,go,circleblack.png,left,0.25,,,,,,,,,,,,,,,,,,0.0017241761088371277,0.4897646903991699,,7196.788045160472,test,2,,,,,,,7194.304417476058,7194.818153768778,7194.801273986697,7194.801273986697,7195.051669664681,7195.551147952676,7195.80188857764,7196.80715598166,left,1,0.45991556346416473,0.25,,,,,,,,,,,s027,001,2024-08-12_16h11.34.137,simplestop_skeleton,2022.2.2,60.143088484563435,
None,None,,,,,,,,,1,0,1,0,3,3,15,2,,,,,,,,,7196.788474917412,go,squareblack.png,right,0.25,,,,,,,,,,,,,,,,,,0.0016526132822036743,0.4896201342344284,,7199.290737591684,test,2,,,,,,,7196.80715598166,7197.3206999227405,7197.3043325170875,7197.3043325170875,7197.55434653908,7198.054984711111,7198.305209301412,7199.310105398297,right,1,0.6266340240836143,0.25,,,,,,,,,,,s027,001,2024-08-12_16h11.34.137,simplestop_skeleton,2022.2.2,60.143088484563435,
None,None,,,,,,,,,1,0,1,0,4,0,16,3,,,,,,,,,7199.291182719171,go,circleblack.png,left,0.25,,,,,,,,,,,,,,,,,,0.001827530562877655,0.4899279847741127,,7201.793530829251,test,2,,,,,,,7199.310105398297,7199.823853671551,7199.807111732662,7199.807111732662,7200.057888843119,7200.557858452201,7200.807798497379,7201.812776751816,left,1,0.46073028445243835,0.25,,,,,,,,,,,s027,001,2024-08-12_16h11.34.137,simplestop_skeleton,2022.2.2,60.143088484563435,
None,None,,,,,,,,,1,0,1,0,4,1,17,3,,,,,,,,,7201.793960899115,go,squareblack.png,right,0.25,,,,,,,,,,,,,,,,,,0.0015845447778701782,0.4898544251918793,,7204.296347111464,test,2,,,,,,,7201.812776751816,7202.326314806938,7202.309893317521,7202.309893317521,7202.560218766332,7203.060968734324,7203.310159571469,7204.3149402067065,right,1,0.47770217806100845,0.25,,,,,,,,,,,s027,001,2024-08-12_16h11.34.137,simplestop_skeleton,2022.2.2,60.143088484563435,
$currentCorrectResponse,$currentGoStim,,,,,,,,,1,0,1,0,4,2,18,0,,,,,,,,,7204.296782843769,stop,squareblack.png,right,0.25,,,,,,,,,,,,,,,,,,0.0013161972165107727,0.48962118476629257,0.7399870306253433,7206.79898621887,test,2,,,,,,,7204.3149402067065,7204.828948870301,7204.812261350453,7204.812261350453,7205.062780633569,7205.56201248616,7205.812727093697,7206.8185326084495,right,1,0.41958967596292496,0.2,,,,,,,,,,,s027,001,2024-08-12_16h11.34.137,simplestop_skeleton,2022.2.2,60.143088484563435,
None,None,,,,,,,,,1,0,1,0,4,3,19,1,,,,,,,,,7206.799413993955,go,circleblack.png,left,0.2,,,,,,,,,,,,,,,,,,0.0019816607236862183,0.48971782624721527,,7209.301789917052,test,2,,,,,,,7206.8185326084495,7207.331898570061,7207.315103575587,7207.315103575587,7207.51528223604,7208.016081482172,7208.3155732527375,7209.3206589818,left,1,0.4779299572110176,0.2,,,,,,,,,,,s027,001,2024-08-12_16h11.34.137,simplestop_skeleton,2022.2.2,60.143088484563435,
None,None,,,,,,,,,1,0,1,0,5,0,20,3,,,,,,,,,7209.302242927253,stop,circleblack.png,left,0.2,,,,,,,,,,,,,,,,,,0.0013096705079078674,0.489727720618248,0.6902093067765236,7211.804877206683,test,2,,,,,,,7209.3206589818,7209.834711953998,7209.81804920733,7209.81804920733,7210.018388822675,7210.519077293575,7210.819251939654,7211.823902033269,None,0,,0.25,,,,,,,,,,,s027,001,2024-08-12_16h11.34.137,simplestop_skeleton,2022.2.2,60.143088484563435,
None,None,,,,,,,,,1,0,1,0,5,1,21,1,,,,,,,,,7211.805307850242,go,squareblack.png,right,0.25,,,,,,,,,,,,,,,,,,0.0016618072986602783,0.4896213710308075,,7214.30762155354,test,2,,,,,,,7211.823902033269,7212.337418973446,7212.320712223649,7212.320712223649,7212.571174301207,7213.070303216577,7213.321581147611,7214.326321169734,right,1,0.3960990086197853,0.25,,,,,,,,,,,s027,001,2024-08-12_16h11.34.137,simplestop_skeleton,2022.2.2,60.143088484563435,
None,None,,,,,,,,,1,0,1,0,5,2,22,1,,,,,,,,,7214.308064237237,go,squareblack.png,right,0.25,,,,,,,,,,,,,,,,,,0.0013058707118034363,0.4894953817129135,,7216.81050863117,test,2,,,,,,,7214.326321169734,7214.840313062072,7214.823428593576,7214.823428593576,7215.073811426759,7215.574366040528,7215.824137434363,7216.830028347671,right,1,0.45921406894922256,0.25,,,,,,,,,,,s027,001,2024-08-12_16h11.34.137,simplestop_skeleton,2022.2.2,60.143088484563435,
None,None,,,,,,,,,1,0,1,0,5,3,23,2,,,,,,,,,7216.810941778123,go,circleblack.png,left,0.25,,,,,,,,,,,,,,,,,,0.0019216388463974,0.4895099923014641,,7219.313034132123,test,2,,,,,,,7216.830028347671,7217.34305370599,7217.326313778758,7217.326313778758,7217.576529696584,7218.077402822673,7218.3269110322,7219.331757061183,left,1,0.4897068813443184,0.25,,,,,,,,,,,s027,001,2024-08-12_16h11.34.137,simplestop_skeleton,2022.2.2,60.143088484563435,
None,None,,,,,,,,,1,0,1,0,6,0,24,3,,,,,,,,,7219.313482604921,go,circleblack.png,left,0.25,,,,,,,,,,,,,,,,,,0.0013530328869819641,0.48980485647916794,,7221.815873131156,test,2,,,,,,,7219.331757061183,7219.845701314509,7219.829402245581,7219.829402245581,7220.079254858196,7220.57989308238,7220.829740323126,7221.835041724145,left,1,0.46799082309007645,0.25,,,,,,,,,,,s027,001,2024-08-12_16h11.34.137,simplestop_skeleton,2022.2.2,60.143088484563435,
$currentCorrectResponse,$currentGoStim,,,,,,,,,1,0,1,0,6,1,25,0,,,,,,,,,7221.816311843693,stop,circleblack.png,left,0.25,,,,,,,,,,,,,,,,,,0.0014257058501243591,0.48937949538230896,0.7395479828119278,7224.318639822304,test,2,,,,,,,7221.835041724145,7222.348703369498,7222.3316448405385,7222.3316448405385,7222.582205787301,7223.082543902099,7223.3330704420805,7224.337417773902,None,0,,0.3,,,,,,,,,,,s027,001,2024-08-12_16h11.34.137,simplestop_skeleton,2022.2.2,60.143088484563435,
None,None,,,,,,,,,1,0,1,0,6,2,26,2,,,,,,,,,7224.319070890546,go,circleblack.png,left,0.3,,,,,,,,,,,,,,,,,,0.0013166815042495728,0.4896536022424698,,7226.821479551494,test,2,,,,,,,7224.337417773902,7224.851230293512,7224.834740318358,7224.834740318358,7225.135058835149,7225.634119346738,7225.835062645376,7226.840768456459,left,1,0.4550752341747284,0.3,,,,,,,,,,,s027,001,2024-08-12_16h11.34.137,simplestop_skeleton,2022.2.2,60.143088484563435,
$currentCorrectResponse,$currentGoStim,,,,,,,,,1,0,1,0,6,3,27,0,,,,,,,,,7226.821906372905,stop,squareblack.png,right,0.3,,,,,,,,,,,,,,,,,,0.0018094033002853394,0.48942800611257553,0.7900421991944313,7229.324435681105,test,2,,,,,,,7226.840768456459,7227.354038849473,7227.337228260934,7227.337228260934,7227.637437440455,7228.136943072081,7228.3378065004945,7229.3438115641475,right,1,0.47699277102947235,0.25,,,,,,,,,,,s027,001,2024-08-12_16h11.34.137,simplestop_skeleton,2022.2.2,60.143088484563435,
None,None,,,,,,,,,1,0,1,0,7,0,28,3,,,,,,,,,7229.324877232313,go,circleblack.png,left,0.25,,,,,,,,,,,,,,,,,,0.0026795342564582825,0.48916880041360855,,7231.826929755509,test,2,,,,,,,7229.3438115641475,7229.8568744286895,7229.840060546994,7229.840060546994,7230.090372085571,7230.589621402323,7230.84109454602,7231.846079796553,left,1,0.4631878435611725,0.25,,,,,,,,,,,s027,001,2024-08-12_16h11.34.137,simplestop_skeleton,2022.2.2,60.143088484563435,
$currentCorrectResponse,$currentGoStim,,,,,,,,,1,0,1,0,7,1,29,0,,,,,,,,,7231.827379330993,go,squareblack.png,right,0.25,,,,,,,,,,,,,,,,,,0.001652158796787262,0.48966799676418304,,7234.329891324043,test,2,,,,,,,7231.846079796553,7232.36002933979,7232.342755258083,7232.342755258083,7232.59312941879,7233.093934841454,7233.34384406358,7234.349119089544,right,1,0.5099318996071815,0.25,,,,,,,,,,,s027,001,2024-08-12_16h11.34.137,simplestop_skeleton,2022.2.2,60.143088484563435,
None,None,,,,,,,,,1,0,1,0,7,2,30,2,,,,,,,,,7234.330329947174,stop,circleblack.png,left,0.25,,,,,,,,,,,,,,,,,,0.001797594130039215,0.48928529024124146,0.7397293448448181,7236.832340963185,test,2,,,,,,,7234.349119089544,7234.86220458895,7234.845595173538,7234.845595173538,7235.095763154328,7235.596358478069,7235.846575677395,7236.851199887693,None,0,,0.3,,,,,,,,,,,s027,001,2024-08-12_16h11.34.137,simplestop_skeleton,2022.2.2,60.143088484563435,
None,None,,,,,,,,,1,0,1,0,7,3,31,1,,,,,,,,,7236.8327806815505,go,squareblack.png,right,0.3,,,,,,,,,,,,,,,,,,0.001631028950214386,0.489658884704113,,7239.3350333198905,test,2,,,,,,,7236.851199887693,7237.364927530289,7237.3482702970505,7237.3482702970505,7237.648622840643,7238.150243997574,7238.348459720612,7239.353810444474,right,1,0.42126598954200745,0.3,,,,,,,,,,,s027,001,2024-08-12_16h11.34.137,simplestop_skeleton,2022.2.2,60.143088484563435,
None,None,,,,,,,,,1,0,1,0,8,0,32,3,,,,,,,,,7239.335462398827,go,squareblack.png,right,0.3,,,,,,,,,,,,,,,,,,0.0012159869074821472,0.4900100454688072,,7241.838347330689,test,2,,,,,,,7239.353810444474,7239.867727771401,7239.851316019893,7239.851316019893,7240.151459738612,7240.6557136923075,7240.851646564901,7241.857081569731,right,1,0.5729379951953888,0.3,,,,,,,,,,,s027,001,2024-08-12_16h11.34.137,simplestop_skeleton,2022.2.2,60.143088484563435,
None,None,,,,,,,,,1,0,1,0,8,1,33,3,,,,,,,,,7241.83879776299,go,squareblack.png,right,0.3,,,,,,,,,,,,,,,,,,0.001431204378604889,0.48915067315101624,,7244.340540014207,test,2,,,,,,,7241.857081569731,7242.370404340327,7242.354112870991,7242.354112870991,7242.654589481652,7243.154747404158,7243.354669928551,7244.359419085085,right,1,0.5587357431650162,0.3,,,,,,,,,,,s027,001,2024-08-12_16h11.34.137,simplestop_skeleton,2022.2.2,60.143088484563435,
$currentCorrectResponse,$currentGoStim,,,,,,,,,1,0,1,0,8,2,34,0,,,,,,,,,7244.340990357101,stop,squareblack.png,right,0.3,,,,,,,,,,,,,,,,,,0.0012109354138374329,0.4896932318806648,0.7900680229067802,7246.843303203583,test,2,,,,,,,7244.359419085085,7244.87329620868,7244.856401003897,7244.856401003897,7245.1568452343345,7245.657494723797,7245.857865840197,7246.862579084933,None,0,,0.35,,,,,,,,,,,s027,001,2024-08-12_16h11.34.137,simplestop_skeleton,2022.2.2,60.143088484563435,
None,None,,,,,,,,,1,0,1,0,8,3,35,1,,,,,,,,,7246.843741811812,go,circleblack.png,left,0.35,,,,,,,,,,,,,,,,,,0.0018892139196395874,0.48991677165031433,,7249.346142053604,test,2,,,,,,,7246.862579084933,7247.376185387373,7247.359433948994,7247.359433948994,7247.71011339128,7248.210350520909,7248.360446929932,7249.365564644337,left,1,0.5011519193649292,0.35,,,,,,,,,,,s027,001,2024-08-12_16h11.34.137,simplestop_skeleton,2022.2.2,60.143088484563435,
None,None,,,,,,,,,1,0,1,0,9,0,36,3,,,,,,,,,7249.346581026912,go,squareblack.png,right,0.35,,,,,,,,,,,,,,,,,,0.0017536282539367676,0.48958738148212433,,7251.849081933498,test,2,,,,,,,7249.365564644337,7249.8789826110005,7249.862004585564,7249.862004585564,7250.21242788434,7250.712077952921,7250.86270903796,7251.8679648935795,left,0,0.5553764253854752,0.35,,,,,,,,,,,s027,001,2024-08-12_16h11.34.137,simplestop_skeleton,2022.2.2,60.143088484563435,
$currentCorrectResponse,$currentGoStim,,,,,,,,,1,0,1,0,9,1,37,0,,,,,,,,,7251.8495159596205,go,squareblack.png,right,0.35,,,,,,,,,,,,,,,,,,0.0014267712831497192,0.4894401505589485,,7254.3519179672,test,2,,,,,,,7251.8679648935795,7252.381519697607,7252.364873923361,7252.364873923361,7252.715301729739,7253.21457220614,7253.36552785337,7254.371347270906,right,1,0.5219937860965729,0.35,,,,,,,,,,,s027,001,2024-08-12_16h11.34.137,simplestop_skeleton,2022.2.2,60.143088484563435,
None,None,,,,,,,,,1,0,1,0,9,2,38,2,,,,,,,,,7254.352362342179,stop,circleblack.png,left,0.35,,,,,,,,,,,,,,,,,,0.0018816739320755005,0.489469476044178,0.839785672724247,7256.85454993695,test,2,,,,,,,7254.371347270906,7254.884625986218,7254.867633089423,7254.867633089423,7255.218033842742,7255.717263445258,7255.86800403893,7256.873624369502,left,1,0.5179865285754204,0.3,,,,,,,,,,,s027,001,2024-08-12_16h11.34.137,simplestop_skeleton,2022.2.2,60.143088484563435,
None,None,,,,,,,,,1,0,1,0,9,3,39,3,,,,,,,,,7256.8549914732575,go,circleblack.png,left,0.3,,,,,,,,,,,,,,,,,,0.0013622045516967773,0.4894024431705475,,7259.357423022389,test,2,,,,,,,7256.873624369502,7257.3873357102275,7257.370339907706,7257.370339907706,7257.670776389539,7258.170342847705,7258.371241927147,7259.376365616918,left,1,0.4813159182667732,0.3,,,,,,,,,,,s027,001,2024-08-12_16h11.34.137,simplestop_skeleton,2022.2.2,60.143088484563435,
$currentCorrectResponse,$currentGoStim,,,,,,,,,1,0,1,0,10,0,40,0,,,,,,,,,7259.357852190733,go,squareblack.png,right,0.3,,,,,,,,,,,,,,,,,,0.0016456469893455505,0.48956339061260223,,7261.859843410552,test,2,,,,,,,7259.376365616918,7259.889970242977,7259.873154953122,7259.873154953122,7260.17354734242,7260.672826908529,7260.873925708234,7261.878972426057,right,1,0.4970805272459984,0.3,,,,,,,,,,,s027,001,2024-08-12_16h11.34.137,simplestop_skeleton,2022.2.2,60.143088484563435,
None,None,,,,,,,,,1,0,1,0,10,1,41,2,,,,,,,,,7261.8602938205,stop,circleblack.png,left,0.3,,,,,,,,,,,,,,,,,,0.00183800607919693,0.4899715855717659,0.7901535257697105,7264.362801253796,test,2,,,,,,,7261.878972426057,7262.392647184432,7262.375969789922,7262.375969789922,7262.676440387964,7263.177741982043,7263.376728862524,7264.3815516904,left,1,0.4908825308084488,0.25,,,,,,,,,,,s027,001,2024-08-12_16h11.34.137,simplestop_skeleton,2022.2.2,60.143088484563435,
None,None,,,,,,,,,1,0,1,0,10,2,42,1,,,,,,,,,7264.363298438489,go,circleblack.png,left,0.25,,,,,,,,,,,,,,,,,,0.0014042556285858154,0.48973173648118973,,7266.865567669272,test,2,,,,,,,7264.3815516904,7264.89541207999,7264.878986008465,7264.878986008465,7265.129085153341,7265.632568255067,7265.879458136857,7266.8845549449325,left,1,0.5215893313288689,0.25,,,,,,,,,,,s027,001,2024-08-12_16h11.34.137,simplestop_skeleton,2022.2.2,60.143088484563435,
None,None,,,,,,,,,1,0,1,0,10,3,43,2,,,,,,,,,7266.8659941107035,stop,squareblack.png,right,0.25,,,,,,,,,,,,,,,,,,0.001524709165096283,0.4896167814731598,0.7398539483547211,7269.368659190834,test,2,,,,,,,7266.8845549449325,7267.398138903081,7267.3815089687705,7267.3815089687705,7267.631892040372,7268.131470799446,7268.382053442299,7269.388610236347,right,1,0.4455236718058586,0.2,,,,,,,,,,,s027,001,2024-08-12_16h11.34.137,simplestop_skeleton,2022.2.2,60.143088484563435,
$currentCorrectResponse,$currentGoStim,,,,,,,,,1,0,1,0,11,0,44,0,,,,,,,,,7269.36910136044,go,circleblack.png,left,0.2,,,,,,,,,,,,,,,,,,0.0024620071053504944,0.4887884706258774,,7271.870821498334,test,2,,,,,,,7269.388610236347,7269.901235677302,7269.884201236069,7269.884201236069,7270.0844905897975,7270.585094332695,7270.88469094038,7271.890105247498,left,1,0.4331808090209961,0.2,,,,,,,,,,,s027,001,2024-08-12_16h11.34.137,simplestop_skeleton,2022.2.2,60.143088484563435,
None,None,,,,,,,,,1,0,1,0,11,1,45,2,,,,,,,,,7271.871256373823,stop,squareblack.png,right,0.2,,,,,,,,,,,,,,,,,,0.0016968101263046265,0.4896980822086334,0.6900009959936142,7274.37371801585,test,2,,,,,,,7271.890105247498,7272.40382630378,7272.387168720365,7272.387168720365,7272.58717302978,7273.088098451495,7273.3883088082075,7274.393080547452,None,0,,0.25,,,,,,,,,,,s027,001,2024-08-12_16h11.34.137,simplestop_skeleton,2022.2.2,60.143088484563435,
$currentCorrectResponse,$currentGoStim,,,,,,,,,1,0,1,0,11,2,46,0,,,,,,,,,7274.374146215618,go,circleblack.png,left,0.25,,,,,,,,,,,,,,,,,,0.0017897263169288635,0.48979299515485764,,7276.876725465059,test,2,,,,,,,7274.393080547452,7274.906248897314,7274.889871537685,7274.889871537685,7275.140097476542,7275.640720054507,7275.890036195517,7276.895884186029,left,1,0.48091597855091095,0.25,,,,,,,,,,,s027,001,2024-08-12_16h11.34.137,simplestop_skeleton,2022.2.2,60.143088484563435,
None,None,,,,,,,,,1,0,1,0,11,3,47,3,,,,,,,,,7276.877156898379,go,squareblack.png,right,0.25,,,,,,,,,,,,,,,,,,0.0017992332577705383,0.48962315917015076,,7279.379106514156,test,2,,,,,,,7276.895884186029,7277.409080974758,7277.392489649355,7277.392489649355,7277.642681963742,7278.14339235425,7278.392867259681,7279.3951200172305,right,1,0.4750390574336052,0.25,,,,,,,,,,,s027,001,2024-08-12_16h11.34.137,simplestop_skeleton,2022.2.2,60.143088484563435,
,,,,,,,,,,1,0,1,0,,,,,,,,,,,,,,,,,,,,,,,,,,,,,,,,,,,,,,,,,,,,,,,,,,,,,,,,,,,7279.3951200172305,7279.3951200172305,return,1.6050549671053886,"[{'fileName': 'circleblack.png', 'correct_response': 'left', 'condition': 'stop'}, {'fileName': 'squareblack.png', 'correct_response': 'right', 'condition': 'stop'}, {'fileName': 'circleblack.png', 'correct_response': 'left', 'condition': 'go'}, {'fileName': 'circleblack.png', 'correct_response': 'left', 'condition': 'go'}, {'fileName': 'squareblack.png', 'correct_response': 'right', 'condition': 'stop'}, {'fileName': 'squareblack.png', 'correct_response': 'right', 'condition': 'go'}, {'fileName': 'circleblack.png', 'correct_response': 'left', 'condition': 'go'}, {'fileName': 'circleblack.png', 'correct_response': 'left', 'condition': 'stop'}, {'fileName': 'circleblack.png', 'correct_response': 'left', 'condition': 'go'}, {'fileName': 'squareblack.png', 'correct_response': 'right', 'condition': 'go'}, {'fileName': 'squareblack.png', 'correct_response': 'right', 'condition': 'go'}, {'fileName': 'squareblack.png', 'correct_response': 'right', 'condition': 'go'}, {'fileName': 'circleblack.png', 'correct_response': 'left', 'condition': 'stop'}, {'fileName': 'squareblack.png', 'correct_response': 'right', 'condition': 'stop'}, {'fileName': 'squareblack.png', 'correct_response': 'right', 'condition': 'go'}, {'fileName': 'circleblack.png', 'correct_response': 'left', 'condition': 'go'}, {'fileName': 'circleblack.png', 'correct_response': 'left', 'condition': 'go'}, {'fileName': 'squareblack.png', 'correct_response': 'right', 'condition': 'go'}, {'fileName': 'squareblack.png', 'correct_response': 'right', 'condition': 'go'}, {'fileName': 'circleblack.png', 'correct_response': 'left', 'condition': 'stop'}, {'fileName': 'circleblack.png', 'correct_response': 'left', 'condition': 'go'}, {'fileName': 'circleblack.png', 'correct_response': 'left', 'condition': 'go'}, {'fileName': 'squareblack.png', 'correct_response': 'right', 'condition': 'stop'}, {'fileName': 'squareblack.png', 'correct_response': 'right', 'condition': 'go'}, {'fileName': 'squareblack.png', 'correct_response': 'right', 'condition': 'stop'}, {'fileName': 'circleblack.png', 'correct_response': 'left', 'condition': 'go'}, {'fileName': 'circleblack.png', 'correct_response': 'left', 'condition': 'go'}, {'fileName': 'circleblack.png', 'correct_response': 'left', 'condition': 'go'}, {'fileName': 'circleblack.png', 'correct_response': 'left', 'condition': 'stop'}, {'fileName': 'circleblack.png', 'correct_response': 'left', 'condition': 'go'}, {'fileName': 'squareblack.png', 'correct_response': 'right', 'condition': 'go'}, {'fileName': 'squareblack.png', 'correct_response': 'right', 'condition': 'go'}, {'fileName': 'squareblack.png', 'correct_response': 'right', 'condition': 'go'}, {'fileName': 'squareblack.png', 'correct_response': 'right', 'condition': 'go'}, {'fileName': 'circleblack.png', 'correct_response': 'left', 'condition': 'stop'}, {'fileName': 'squareblack.png', 'correct_response': 'right', 'condition': 'stop'}, {'fileName': 'circleblack.png', 'correct_response': 'left', 'condition': 'go'}, {'fileName': 'circleblack.png', 'correct_response': 'left', 'condition': 'go'}, {'fileName': 'squareblack.png', 'correct_response': 'right', 'condition': 'go'}, {'fileName': 'circleblack.png', 'correct_response': 'left', 'condition': 'go'}, {'fileName': 'circleblack.png', 'correct_response': 'left', 'condition': 'stop'}, {'fileName': 'squareblack.png', 'correct_response': 'right', 'condition': 'go'}, {'fileName': 'squareblack.png', 'correct_response': 'right', 'condition': 'go'}, {'fileName': 'squareblack.png', 'correct_response': 'right', 'condition': 'stop'}, {'fileName': 'circleblack.png', 'correct_response': 'left', 'condition': 'go'}, {'fileName': 'circleblack.png', 'correct_response': 'left', 'condition': 'stop'}, {'fileName': 'squareblack.png', 'correct_response': 'right', 'condition': 'go'}, {'fileName': 'squareblack.png', 'correct_response': 'right', 'condition': 'stop'}]",,,,,,s027,001,2024-08-12_16h11.34.137,simplestop_skeleton,2022.2.2,60.143088484563435,
None,None,,,,,,,,,2,0,2,0,0,0,0,2,,,,,,,,,7281.021918773651,stop,circleblack.png,left,0.25,,,,,,,,,,,,,,,,,,0.0018066167831420898,0.49775275588035583,0.748631127178669,7283.534182474017,test,3,,,,,,,7281.041574411094,7281.546775795519,7281.546775795519,7281.546775795519,7281.797497220337,7282.298132047057,7282.548413321376,7283.553568646312,None,0,,0.3,,,,,,,,,,,s027,001,2024-08-12_16h11.34.137,simplestop_skeleton,2022.2.2,60.143088484563435,
$currentCorrectResponse,$currentGoStim,,,,,,,,,2,0,2,0,0,1,1,0,,,,,,,,,7283.534719407558,stop,squareblack.png,right,0.3,,,,,,,,,,,,,,,,,,0.001757897436618805,0.48950690776109695,0.7895965203642845,7286.0364963412285,test,3,,,,,,,7283.553568646312,7284.066573284566,7284.0500763729215,7284.0500763729215,7284.35051882267,7284.867816217244,7285.050387240946,7286.055597305298,right,1,0.4125215634703636,0.25,,,,,,,,,,,s027,001,2024-08-12_16h11.34.137,simplestop_skeleton,2022.2.2,60.143088484563435,
None,None,,,,,,,,,2,0,2,0,0,2,2,2,,,,,,,,,7286.036922819912,go,circleblack.png,left,0.25,,,,,,,,,,,,,,,,,,0.0017949789762496948,0.48979848623275757,,7288.53911998868,test,3,,,,,,,7286.055597305298,7286.569155499339,7286.552609331906,7286.552609331906,7286.802781842649,7287.302051886916,7287.553020127118,7288.55799613148,left,1,0.3849036693572998,0.25,,,,,,,,,,,s027,001,2024-08-12_16h11.34.137,simplestop_skeleton,2022.2.2,60.143088484563435,
$currentCorrectResponse,$currentGoStim,,,,,,,,,2,0,2,0,0,3,3,0,,,,,,,,,7288.5395502746105,go,circleblack.png,left,0.25,,,,,,,,,,,,,,,,,,0.0012935847043991089,0.4898124486207962,,7291.042245618999,test,3,,,,,,,7288.55799613148,7289.0718449652195,7289.055523619056,7289.055523619056,7289.305677898228,7289.806330062449,7290.055689401925,7291.06131272763,left,1,0.5144037827849388,0.25,,,,,,,,,,,s027,001,2024-08-12_16h11.34.137,simplestop_skeleton,2022.2.2,60.143088484563435,
None,None,,,,,,,,,2,0,2,0,1,0,4,1,,,,,,,,,7291.042681895196,stop,squareblack.png,right,0.25,,,,,,,,,,,,,,,,,,0.0017590820789337158,0.4894176572561264,0.7398245185613632,7293.544904105365,test,3,,,,,,,7291.06131272763,7291.574972376227,7291.558504827321,7291.558504827321,7291.808600783348,7292.308914326131,7292.559387356043,7293.56381110847,None,0,,0.3,,,,,,,,,,,s027,001,2024-08-12_16h11.34.137,simplestop_skeleton,2022.2.2,60.143088484563435,
$currentCorrectResponse,$currentGoStim,,,,,,,,,2,0,2,0,1,1,5,0,,,,,,,,,7293.545332841575,go,squareblack.png,right,0.3,,,,,,,,,,,,,,,,,,0.001299537718296051,0.48961804807186127,,7296.047697193921,test,3,,,,,,,7293.56381110847,7294.077733203769,7294.0608449578285,7294.0608449578285,7294.361229032278,7294.861820369959,7295.061512537301,7296.0670410990715,right,1,0.5177841708064079,0.3,,,,,,,,,,,s027,001,2024-08-12_16h11.34.137,simplestop_skeleton,2022.2.2,60.143088484563435,
None,None,,,,,,,,,2,0,2,0,1,2,6,1,,,,,,,,,7296.0481318980455,go,circleblack.png,left,0.3,,,,,,,,,,,,,,,,,,0.0019406676292419434,0.48978184908628464,,7298.5504073649645,test,3,,,,,,,7296.0670410990715,7296.580367878079,7296.56381123513,7296.56381123513,7296.864062987268,7297.363405801356,7297.56428848207,7298.569177426398,left,1,0.43476319313049316,0.3,,,,,,,,,,,s027,001,2024-08-12_16h11.34.137,simplestop_skeleton,2022.2.2,60.143088484563435,
None,None,,,,,,,,,2,0,2,0,1,3,7,1,,,,,,,,,7298.550831981003,stop,circleblack.png,left,0.3,,,,,,,,,,,,,,,,,,0.0013833120465278625,0.4897354766726494,0.7900539711117744,7301.053067065775,test,3,,,,,,,7298.569177426398,7299.083158254623,7299.066364556551,7299.066364556551,7299.367097519338,7299.883642114699,7300.066674292088,7301.072049736977,left,1,0.3984920009970665,0.25,,,,,,,,,,,s027,001,2024-08-12_16h11.34.137,simplestop_skeleton,2022.2.2,60.143088484563435,
None,None,,,,,,,,,2,0,2,0,2,0,8,3,,,,,,,,,7301.053495183587,go,circleblack.png,left,0.25,,,,,,,,,,,,,,,,,,0.0013981088995933533,0.48973413556814194,,7303.555908612907,test,3,,,,,,,7301.072049736977,7301.585759282112,7301.569164894521,7301.569164894521,7301.819318436086,7302.3203724473715,7302.56981536001,7303.574968054891,left,1,0.5345244482159615,0.25,,,,,,,,,,,s027,001,2024-08-12_16h11.34.137,simplestop_skeleton,2022.2.2,60.143088484563435,
None,None,,,,,,,,,2,0,2,0,2,1,9,2,,,,,,,,,7303.556351780891,go,squareblack.png,right,0.25,,,,,,,,,,,,,,,,,,0.0016429349780082703,0.48947639018297195,,7306.058542154729,test,3,,,,,,,7303.574968054891,7304.088511429727,7304.071811489761,7304.071811489761,7304.322238475084,7304.8226761594415,7305.072436913848,7306.077475525439,right,1,0.5513869449496269,0.25,,,,,,,,,,,s027,001,2024-08-12_16h11.34.137,simplestop_skeleton,2022.2.2,60.143088484563435,
None,None,,,,,,,,,2,0,2,0,2,2,10,3,,,,,,,,,7306.0589892193675,go,squareblack.png,right,0.25,,,,,,,,,,,,,,,,,,0.0011741146445274353,0.48995229601860046,,7308.561395056546,test,3,,,,,,,7306.077475525439,7306.591420955956,7306.574524477124,7306.574524477124,7306.825056754053,7307.324119731784,7307.575373791158,7308.580044932663,right,1,0.43241046369075775,0.25,,,,,,,,,,,s027,001,2024-08-12_16h11.34.137,simplestop_skeleton,2022.2.2,60.143088484563435,
None,None,,,,,,,,,2,0,2,0,2,3,11,2,,,,,,,,,7308.561839431524,go,squareblack.png,right,0.25,,,,,,,,,,,,,,,,,,0.0012651756405830383,0.4895530417561531,,7311.063878208399,test,3,,,,,,,7308.580044932663,7309.094198338687,7309.077253326774,7309.077253326774,7309.327700294554,7309.826941385865,7310.0776578933,7311.083380743861,right,1,0.40172071009874344,0.25,,,,,,,,,,,s027,001,2024-08-12_16h11.34.137,simplestop_skeleton,2022.2.2,60.143088484563435,
None,None,,,,,,,,,2,0,2,0,3,0,12,2,,,,,,,,,7311.064310848713,stop,circleblack.png,left,0.25,,,,,,,,,,,,,,,,,,0.0018914639949798584,0.48996230214834213,0.7403186410665512,7313.567562177777,test,3,,,,,,,7311.083380743861,7311.59949375689,7311.580562055111,7311.580562055111,7311.830392792821,7312.330930478871,7312.581187881529,7313.586930111051,left,1,0.4252317473292351,0.2,,,,,,,,,,,s027,001,2024-08-12_16h11.34.137,simplestop_skeleton,2022.2.2,60.143088484563435,
$currentCorrectResponse,$currentGoStim,,,,,,,,,2,0,2,0,3,1,13,0,,,,,,,,,7313.567999191582,stop,squareblack.png,right,0.2,,,,,,,,,,,,,,,,,,0.0023846998810768127,0.48871855437755585,0.6888004168868065,7316.069824688137,test,3,,,,,,,7313.586930111051,7314.099472545087,7314.083041839302,7314.083041839302,7314.283248864114,7314.784035272896,7315.083231776953,7316.088662289083,right,1,0.6536514535546303,0.15,,,,,,,,,,,s027,001,2024-08-12_16h11.34.137,simplestop_skeleton,2022.2.2,60.143088484563435,
None,None,,,,,,,,,2,0,2,0,3,2,14,1,,,,,,,,,7316.070254221559,go,squareblack.png,right,0.15,,,,,,,,,,,,,,,,,,0.0013250559568405151,0.4895261600613594,,7318.572485640645,test,3,,,,,,,7316.088662289083,7316.602376744151,7316.585914492607,7316.585914492607,7316.736151240766,7317.236563906074,7317.586522385478,7318.59175132215,right,1,0.5059623941779137,0.15,,,,,,,,,,,s027,001,2024-08-12_16h11.34.137,simplestop_skeleton,2022.2.2,60.143088484563435,
None,None,,,,,,,,,2,0,2,0,3,3,15,3,,,,,,,,,7318.572915971279,go,circleblack.png,left,0.15,,,,,,,,,,,,,,,,,,0.0017831102013587952,0.4898518994450569,,7321.075302019715,test,3,,,,,,,7318.59175132215,7319.105163745582,7319.08860167861,7319.08860167861,7319.238883703947,7319.739215232432,7320.089126065373,7321.094063535333,left,1,0.5514219403266907,0.15,,,,,,,,,,,s027,001,2024-08-12_16h11.34.137,simplestop_skeleton,2022.2.2,60.143088484563435,
None,None,,,,,,,,,2,0,2,0,4,0,16,1,,,,,,,,,7321.075736999512,go,circleblack.png,left,0.15,,,,,,,,,,,,,,,,,,0.0013714879751205444,0.489752896130085,,7323.578103132546,test,3,,,,,,,7321.094063535333,7321.60808583349,7321.591341555119,7321.591341555119,7321.741604320705,7322.241984300315,7322.591820389032,7323.597149811685,left,1,0.4614250883460045,0.15,,,,,,,,,,,s027,001,2024-08-12_16h11.34.137,simplestop_skeleton,2022.2.2,60.143088484563435,
None,None,,,,,,,,,2,0,2,0,4,1,17,1,,,,,,,,,7323.578537762165,go,squareblack.png,right,0.15,,,,,,,,,,,,,,,,,,0.001658804714679718,0.4895342141389847,,7326.080892644823,test,3,,,,,,,7323.597149811685,7324.110810056329,7324.09428088367,7324.09428088367,7324.244203276932,7324.744726516306,7325.094844542444,7326.099819935858,right,1,0.6054259762167931,0.15,,,,,,,,,,,s027,001,2024-08-12_16h11.34.137,simplestop_skeleton,2022.2.2,60.143088484563435,
$currentCorrectResponse,$currentGoStim,,,,,,,,,2,0,2,0,4,2,18,0,,,,,,,,,7326.081330612302,go,squareblack.png,right,0.15,,,,,,,,,,,,,,,,,,0.0015161409974098206,0.4896043986082077,,7328.5838475599885,test,3,,,,,,,7326.099819935858,7326.613392338157,7326.596843793988,7326.596843793988,7326.747339040041,7327.24746645987,7327.597851924598,7328.6032122299075,right,1,0.9254675731062889,0.15,,,,,,,,,,,s027,001,2024-08-12_16h11.34.137,simplestop_skeleton,2022.2.2,60.143088484563435,
None,None,,,,,,,,,2,0,2,0,4,3,19,3,,,,,,,,,7328.584293849766,stop,circleblack.png,left,0.15,,,,,,,,,,,,,,,,,,0.0019169598817825317,0.48952872306108475,0.6398540288209915,7331.0863025560975,test,3,,,,,,,7328.6032122299075,7329.116251088679,7329.099528588355,7329.099528588355,7329.250053308904,7329.750156193972,7330.100909523666,7331.105110615492,None,0,,0.2,,,,,,,,,,,s027,001,2024-08-12_16h11.34.137,simplestop_skeleton,2022.2.2,60.143088484563435,
None,None,,,,,,,,,2,0,2,0,5,0,20,2,,,,,,,,,7331.086736902595,go,circleblack.png,left,0.2,,,,,,,,,,,,,,,,,,0.0013126060366630554,0.4898846074938774,,7333.589288622141,test,3,,,,,,,7331.105110615492,7331.6191052645445,7331.60234413296,7331.60234413296,7331.802802488208,7332.303071163595,7332.602821625769,7333.608336865902,left,1,0.4054007902741432,0.2,,,,,,,,,,,s027,001,2024-08-12_16h11.34.137,simplestop_skeleton,2022.2.2,60.143088484563435,
None,None,,,,,,,,,2,0,2,0,5,1,21,1,,,,,,,,,7333.589727714658,go,circleblack.png,left,0.2,,,,,,,,,,,,,,,,,,0.0013598427176475525,0.48947566747665405,,7336.091624155641,test,3,,,,,,,7333.608336865902,7334.121701106429,7334.1052769348025,7334.1052769348025,7334.305203653872,7334.805731154978,7335.10614541173,7336.110780969262,left,1,0.4015686437487602,0.2,,,,,,,,,,,s027,001,2024-08-12_16h11.34.137,simplestop_skeleton,2022.2.2,60.143088484563435,
None,None,,,,,,,,,2,0,2,0,5,2,22,3,,,,,,,,,7336.092057272792,stop,squareblack.png,right,0.2,,,,,,,,,,,,,,,,,,0.0017229840159416199,0.48976049572229385,0.690115712583065,7338.594783239067,test,3,,,,,,,7336.110780969262,7336.624574907124,7336.608010917902,7336.608010917902,7336.807945691049,7337.3086738064885,7337.609007366002,7338.61327855289,None,0,,0.25,,,,,,,,,,,s027,001,2024-08-12_16h11.34.137,simplestop_skeleton,2022.2.2,60.143088484563435,
None,None,,,,,,,,,2,0,2,0,5,3,23,2,,,,,,,,,7338.595216296613,go,squareblack.png,right,0.25,,,,,,,,,,,,,,,,,,0.0012605637311935425,0.48954951018095016,,7341.097173623741,test,3,,,,,,,7338.61327855289,7339.127297326922,7339.1105466187,7339.1105466187,7339.360815323889,7339.861263513565,7340.111024990678,7341.115773253143,right,1,0.44305650889873505,0.25,,,,,,,,,,,s027,001,2024-08-12_16h11.34.137,simplestop_skeleton,2022.2.2,60.143088484563435,
$currentCorrectResponse,$currentGoStim,,,,,,,,,2,0,2,0,6,0,24,0,,,,,,,,,7341.097603581846,stop,squareblack.png,right,0.25,,,,,,,,,,,,,,,,,,0.0011851117014884949,0.4898388460278511,0.740184985101223,7343.600349858403,test,3,,,,,,,7341.115773253143,7341.629761442542,7341.613399870694,7341.613399870694,7341.863547034562,7342.363923251629,7342.614275962114,7343.619718998671,None,0,,0.3,,,,,,,,,,,s027,001,2024-08-12_16h11.34.137,simplestop_skeleton,2022.2.2,60.143088484563435,
None,None,,,,,,,,,2,0,2,0,6,1,25,2,,,,,,,,,7343.600796230137,go,circleblack.png,left,0.3,,,,,,,,,,,,,,,,,,0.0020384788513183594,0.4898228123784065,,7346.103068731725,test,3,,,,,,,7343.619718998671,7344.132733784616,7344.11603923142,7344.11603923142,7344.416284799576,7344.916993461549,7345.116263568401,7346.12199614197,left,1,0.49792201071977615,0.3,,,,,,,,,,,s027,001,2024-08-12_16h11.34.137,simplestop_skeleton,2022.2.2,60.143088484563435,
None,None,,,,,,,,,2,0,2,0,6,2,26,1,,,,,,,,,7346.103513725102,go,circleblack.png,left,0.3,,,,,,,,,,,,,,,,,,0.001432850956916809,0.48912277817726135,,7348.605304263532,test,3,,,,,,,7346.12199614197,7346.635546572506,7346.618741810322,7346.618741810322,7346.919197566807,7347.419786311686,7347.619254656136,7348.624288536608,left,1,0.5679318755865097,0.3,,,,,,,,,,,s027,001,2024-08-12_16h11.34.137,simplestop_skeleton,2022.2.2,60.143088484563435,
None,None,,,,,,,,,2,0,2,0,6,3,27,1,,,,,,,,,7348.605731844902,go,circleblack.png,left,0.3,,,,,,,,,,,,,,,,,,0.0012508556246757507,0.4898092821240425,,7351.108294069767,test,3,,,,,,,7348.624288536608,7349.1385054811835,7349.121458515525,7349.121458515525,7349.421892568469,7349.920968174934,7350.12214499712,7351.127357378602,left,1,0.4252713695168495,0.3,,,,,,,,,,,s027,001,2024-08-12_16h11.34.137,simplestop_skeleton,2022.2.2,60.143088484563435,
$currentCorrectResponse,$currentGoStim,,,,,,,,,2,0,2,0,7,0,28,0,,,,,,,,,7351.108742155135,stop,circleblack.png,left,0.3,,,,,,,,,,,,,,,,,,0.001385606825351715,0.4893728494644165,0.7899888455867767,7353.611228883266,test,3,,,,,,,7351.127357378602,7351.640853710473,7351.624177657068,7351.624177657068,7351.924614012241,7352.4239587038755,7352.625111870468,7353.629980057478,left,1,0.4350586086511612,0.25,,,,,,,,,,,s027,001,2024-08-12_16h11.34.137,simplestop_skeleton,2022.2.2,60.143088484563435,
$currentCorrectResponse,$currentGoStim,,,,,,,,,2,0,2,0,7,1,29,0,,,,,,,,,7353.6116680800915,go,circleblack.png,left,0.25,,,,,,,,,,,,,,,,,,0.0012823790311813354,0.4897330552339554,,7356.113819666207,test,3,,,,,,,7353.629980057478,7354.143738344312,7354.127195872366,7354.127195872366,7354.377393327653,7354.878025278449,7355.127481490374,7356.1330901533365,left,1,0.5803184136748314,0.25,,,,,,,,,,,s027,001,2024-08-12_16h11.34.137,simplestop_skeleton,2022.2.2,60.143088484563435,
$currentCorrectResponse,$currentGoStim,,,,,,,,,2,0,2,0,7,2,30,0,,,,,,,,,7356.1142488271,go,squareblack.png,right,0.25,,,,,,,,,,,,,,,,,,0.0016668513417243958,0.4901828467845917,,7358.616766914725,test,3,,,,,,,7356.1330901533365,7356.646897442639,7356.630025975406,7356.630025975406,7356.880189448595,7357.383521795273,7357.630756475031,7358.635642968118,right,1,0.45327239483594894,0.25,,,,,,,,,,,s027,001,2024-08-12_16h11.34.137,simplestop_skeleton,2022.2.2,60.143088484563435,
None,None,,,,,,,,,2,0,2,0,7,3,31,3,,,,,,,,,7358.617197215557,go,squareblack.png,right,0.25,,,,,,,,,,,,,,,,,,0.0013879090547561646,0.4896564930677414,,7361.119336307049,test,3,,,,,,,7358.635642968118,7359.1495837420225,7359.132675252855,7359.132675252855,7359.383262217045,7359.8835068792105,7360.132917113602,7361.138255059719,right,1,0.6064698323607445,0.25,,,,,,,,,,,s027,001,2024-08-12_16h11.34.137,simplestop_skeleton,2022.2.2,60.143088484563435,
$currentCorrectResponse,$currentGoStim,,,,,,,,,2,0,2,0,8,0,32,0,,,,,,,,,7361.119773797691,go,squareblack.png,right,0.25,,,,,,,,,,,,,,,,,,0.0013989433646202087,0.4896072596311569,,7363.622198306024,test,3,,,,,,,7361.138255059719,7361.652096748352,7361.635480962694,7361.635480962694,7361.885686598718,7362.386641189456,7362.636320613325,7363.641015537083,right,1,0.4879698008298874,0.25,,,,,,,,,,,s027,001,2024-08-12_16h11.34.137,simplestop_skeleton,2022.2.2,60.143088484563435,
None,None,,,,,,,,,2,0,2,0,8,1,33,2,,,,,,,,,7363.622632972896,go,squareblack.png,right,0.25,,,,,,,,,,,,,,,,,,0.0012806206941604614,0.489700086414814,,7366.125016219914,test,3,,,,,,,7363.641015537083,7364.154776722193,7364.138192303479,7364.138192303479,7364.3884101733565,7364.887615561485,7365.138401716948,7366.144354633987,right,1,0.39794570952653885,0.25,,,,,,,,,,,s027,001,2024-08-12_16h11.34.137,simplestop_skeleton,2022.2.2,60.143088484563435,
None,None,,,,,,,,,2,0,2,0,8,2,34,3,,,,,,,,,7366.125452190638,stop,circleblack.png,left,0.25,,,,,,,,,,,,,,,,,,0.0018940120935440063,0.4896812066435814,0.7398569732904434,7368.627707891166,test,3,,,,,,,7366.144354633987,7366.657413519919,7366.640772819519,7366.640772819519,7366.891278602183,7367.391700454056,7367.6419996619225,7368.646735966206,None,0,,0.3,,,,,,,,,,,s027,001,2024-08-12_16h11.34.137,simplestop_skeleton,2022.2.2,60.143088484563435,
None,None,,,,,,,,,2,0,2,0,8,3,35,1,,,,,,,,,7368.628134153783,stop,squareblack.png,right,0.3,,,,,,,,,,,,,,,,,,0.0016861408948898315,0.4897014871239662,0.7900315374135971,7371.1305205747485,test,3,,,,,,,7368.646735966206,7369.160371340811,7369.1435504853725,7369.1435504853725,7369.444014117122,7369.944769658148,7370.144574403763,7371.14992377162,right,1,0.5899870544672012,0.25,,,,,,,,,,,s027,001,2024-08-12_16h11.34.137,simplestop_skeleton,2022.2.2,60.143088484563435,
None,None,,,,,,,,,2,0,2,0,9,0,36,3,,,,,,,,,7371.130956701934,go,circleblack.png,left,0.25,,,,,,,,,,,,,,,,,,0.0018342286348342896,0.4898352399468422,,7373.633411362767,test,3,,,,,,,7371.14992377162,7371.663288615644,7371.646656535566,7371.646656535566,7371.896952457726,7372.397268436849,7372.646982230246,7373.652452006936,left,1,0.515126496553421,0.25,,,,,,,,,,,s027,001,2024-08-12_16h11.34.137,simplestop_skeleton,2022.2.2,60.143088484563435,
None,None,,,,,,,,,2,0,2,0,9,1,37,3,,,,,,,,,7373.633848950267,go,circleblack.png,left,0.25,,,,,,,,,,,,,,,,,,0.001434043049812317,0.48967230319976807,,7376.135935887694,test,3,,,,,,,7373.652452006936,7374.166187159717,7374.149685315788,7374.149685315788,7374.399835683405,7374.915270514786,7375.149954028428,7376.15522723645,left,1,0.40991954505443573,0.25,,,,,,,,,,,s027,001,2024-08-12_16h11.34.137,simplestop_skeleton,2022.2.2,60.143088484563435,
None,None,,,,,,,,,2,0,2,0,9,2,38,1,,,,,,,,,7376.13637124002,go,squareblack.png,right,0.25,,,,,,,,,,,,,,,,,,0.0016052424907684326,0.4897417649626732,,7378.6386474743485,test,3,,,,,,,7376.15522723645,7376.668525479734,7376.65190114826,7376.65190114826,7376.902257420123,7377.402926415205,7377.652338400483,7378.657862529159,right,1,0.4743347391486168,0.25,,,,,,,,,,,s027,001,2024-08-12_16h11.34.137,simplestop_skeleton,2022.2.2,60.143088484563435,
None,None,,,,,,,,,2,0,2,0,9,3,39,2,,,,,,,,,7378.639075279236,go,circleblack.png,left,0.25,,,,,,,,,,,,,,,,,,0.0017873495817184448,0.48988043516874313,,7381.141691960394,test,3,,,,,,,7378.657862529159,7379.171284273267,7379.154739536345,7379.154739536345,7379.405000180006,7379.906026929617,7380.155665569007,7381.160645999014,left,1,0.6046155318617821,0.25,,,,,,,,,,,s027,001,2024-08-12_16h11.34.137,simplestop_skeleton,2022.2.2,60.143088484563435,
None,None,,,,,,,,,2,0,2,0,10,0,40,3,,,,,,,,,7381.142178304493,stop,circleblack.png,left,0.25,,,,,,,,,,,,,,,,,,0.001390792429447174,0.4894947484135628,0.7398122251033783,7383.644053734839,test,3,,,,,,,7381.160645999014,7381.674256063998,7381.657866589725,7381.657866589725,7381.907878533006,7382.408409439027,7382.658697977662,7383.663241297007,None,0,,0.3,,,,,,,,,,,s027,001,2024-08-12_16h11.34.137,simplestop_skeleton,2022.2.2,60.143088484563435,
None,None,,,,,,,,,2,0,2,0,10,1,41,3,,,,,,,,,7383.644488051534,go,squareblack.png,right,0.3,,,,,,,,,,,,,,,,,,0.0016698837280273438,0.48989104479551315,,7386.146954335272,test,3,,,,,,,7383.663241297007,7384.177070245147,7384.160261750221,7384.160261750221,7384.460738033056,7384.964014612138,7385.160486549139,7386.165986798704,right,1,0.5075350403785706,0.3,,,,,,,,,,,s027,001,2024-08-12_16h11.34.137,simplestop_skeleton,2022.2.2,60.143088484563435,
None,None,,,,,,,,,2,0,2,0,10,2,42,3,,,,,,,,,7386.147394672036,go,squareblack.png,right,0.3,,,,,,,,,,,,,,,,,,0.0012719407677650452,0.4895741119980812,,7388.649880602956,test,3,,,,,,,7386.165986798704,7386.679675206542,7386.662950150669,7386.662950150669,7386.96338391304,7387.462627649307,7387.66369882226,7388.668713949621,right,1,0.48033321648836136,0.3,,,,,,,,,,,s027,001,2024-08-12_16h11.34.137,simplestop_skeleton,2022.2.2,60.143088484563435,
None,None,,,,,,,,,2,0,2,0,10,3,43,2,,,,,,,,,7388.650322832167,stop,squareblack.png,right,0.3,,,,,,,,,,,,,,,,,,0.0013175904750823975,0.48952700197696686,0.7897218689322472,7391.152665950358,test,3,,,,,,,7388.668713949621,7389.182382673025,7389.165600135922,7389.165600135922,7389.466084130108,7389.96700822562,7390.1670317053795,7391.171896576881,None,0,,0.35,,,,,,,,,,,s027,001,2024-08-12_16h11.34.137,simplestop_skeleton,2022.2.2,60.143088484563435,
$currentCorrectResponse,$currentGoStim,,,,,,,,,2,0,2,0,11,0,44,0,,,,,,,,,7391.153116554022,go,circleblack.png,left,0.35,,,,,,,,,,,,,,,,,,0.0019041672348976135,0.48965613543987274,,7393.655385285616,test,3,,,,,,,7391.171896576881,7391.685234129429,7391.668892793357,7391.668892793357,7392.018992744386,7392.519068568945,7392.669062413275,7393.674224868417,left,1,0.38416387140750885,0.35,,,,,,,,,,,s027,001,2024-08-12_16h11.34.137,simplestop_skeleton,2022.2.2,60.143088484563435,
$currentCorrectResponse,$currentGoStim,,,,,,,,,2,0,2,0,11,1,45,0,,,,,,,,,7393.6558178812265,stop,circleblack.png,left,0.35,,,,,,,,,,,,,,,,,,0.0013733580708503723,0.4896123334765434,0.840252161026001,7396.158238388598,test,3,,,,,,,7393.674224868417,7394.188081808388,7394.171667546034,7394.171667546034,7394.521794907749,7395.037623435259,7395.171721935272,7396.177247099578,left,1,0.47734642773866653,0.3,,,,,,,,,,,s027,001,2024-08-12_16h11.34.137,simplestop_skeleton,2022.2.2,60.143088484563435,
None,None,,,,,,,,,2,0,2,0,11,2,46,2,,,,,,,,,7396.158677883446,go,squareblack.png,right,0.3,,,,,,,,,,,,,,,,,,0.0015776902437210083,0.4893508106470108,,7398.6605381295085,test,3,,,,,,,7396.177247099578,7396.690796807408,7396.6738313362,7396.6738313362,7396.974265053868,7397.473425120115,7397.674701988697,7398.6792618483305,right,1,0.47782299667596817,0.3,,,,,,,,,,,s027,001,2024-08-12_16h11.34.137,simplestop_skeleton,2022.2.2,60.143088484563435,
None,None,,,,,,,,,2,0,2,0,11,3,47,1,,,,,,,,,7398.660967715085,stop,squareblack.png,right,0.3,,,,,,,,,,,,,,,,,,0.0011871755123138428,0.48990070074796677,0.7901733666658401,7401.163775794208,test,3,,,,,,,7398.6792618483305,7399.193239793181,7399.176787905395,7399.176787905395,7399.477026596665,7399.976343564689,7400.177004553378,7401.179008483887,right,1,0.44105473905801773,0.25,,,,,,,,,,,s027,001,2024-08-12_16h11.34.137,simplestop_skeleton,2022.2.2,60.143088484563435,
