corrGoResp,shape,practiceBlocks.thisRepN,practiceBlocks.thisTrialN,practiceBlocks.thisN,practiceBlocks.thisIndex,practiceTrials.thisRepN,practiceTrials.thisTrialN,practiceTrials.thisN,practiceTrials.thisIndex,stopBlocks.thisRepN,stopBlocks.thisTrialN,stopBlocks.thisN,stopBlocks.thisIndex,testTrials.thisRepN,testTrials.thisTrialN,testTrials.thisN,testTrials.thisIndex,stopPracTrialList,Test Block: 1,welcome.started,start_exp.started,start_exp.keys,start_exp.rt,instrStopText.started,start_prac.started,StartTrialTimeStamp,trialType,goStim,correctResponse,ssd,fixation.started,rules.started,goStim.started,goResp.started,fixation.stopped,stopSignal.started,stopSignal.stopped,goStim.stopped,goResp.stopped,rules.stopped,goResp.keys,goResp.corr,goResp.rt,text.started,rules_2.started,text.stopped,rules_2.stopped,fixationOnset,goStimOnset,stopSignalOnset,EndTrialTimeStamp,Phase,Block,text_5.started,key_resp_3.started,key_resp_3.keys,key_resp_3.rt,key_resp.started,testText.started,test_fixation.started,goStim_test.started,goResp_test.started,test_fixation.stopped,stopSignal_test.started,stopSignal_test.stopped,goStim_test.stopped,goResp_test.stopped,goResp_test.keys,goResp_test.corr,goResp_test.rt,EndingSSD,text_6.started,key_resp_4.started,key_resp_4.keys,key_resp_4.rt,Test Block: 2,Test Block: 3,ending_text.started,end_resp.started,end_resp.keys,end_resp.rt,participant,session,date,expName,psychopyVersion,frameRate,
,,,,,,,,,,,,,,,,,,"[{'fileName': 'circleblack.png', 'correct_response': 'left', 'condition': 'go'}, {'fileName': 'squareblack.png', 'correct_response': 'right', 'condition': 'stop'}, {'fileName': 'circleblack.png', 'correct_response': 'left', 'condition': 'go'}, {'fileName': 'squareblack.png', 'correct_response': 'right', 'condition': 'stop'}, {'fileName': 'circleblack.png', 'correct_response': 'left', 'condition': 'go'}, {'fileName': 'circleblack.png', 'correct_response': 'left', 'condition': 'go'}, {'fileName': 'squareblack.png', 'correct_response': 'right', 'condition': 'go'}, {'fileName': 'circleblack.png', 'correct_response': 'left', 'condition': 'stop'}, {'fileName': 'squareblack.png', 'correct_response': 'right', 'condition': 'go'}, {'fileName': 'circleblack.png', 'correct_response': 'left', 'condition': 'stop'}, {'fileName': 'squareblack.png', 'correct_response': 'right', 'condition': 'go'}, {'fileName': 'squareblack.png', 'correct_response': 'right', 'condition': 'go'}, {'fileName': 'squareblack.png', 'correct_response': 'right', 'condition': 'go'}, {'fileName': 'circleblack.png', 'correct_response': 'left', 'condition': 'go'}, {'fileName': 'squareblack.png', 'correct_response': 'right', 'condition': 'stop'}, {'fileName': 'circleblack.png', 'correct_response': 'left', 'condition': 'go'}, {'fileName': 'squareblack.png', 'correct_response': 'right', 'condition': 'stop'}, {'fileName': 'circleblack.png', 'correct_response': 'left', 'condition': 'stop'}, {'fileName': 'squareblack.png', 'correct_response': 'right', 'condition': 'go'}, {'fileName': 'circleblack.png', 'correct_response': 'left', 'condition': 'go'}, {'fileName': 'squareblack.png', 'correct_response': 'right', 'condition': 'go'}, {'fileName': 'circleblack.png', 'correct_response': 'left', 'condition': 'stop'}, {'fileName': 'circleblack.png', 'correct_response': 'left', 'condition': 'go'}, {'fileName': 'squareblack.png', 'correct_response': 'right', 'condition': 'go'}]","[{'fileName': 'circleblack.png', 'correct_response': 'left', 'condition': 'go'}, {'fileName': 'squareblack.png', 'correct_response': 'right', 'condition': 'go'}, {'fileName': 'circleblack.png', 'correct_response': 'left', 'condition': 'go'}, {'fileName': 'squareblack.png', 'correct_response': 'right', 'condition': 'go'}, {'fileName': 'squareblack.png', 'correct_response': 'right', 'condition': 'go'}, {'fileName': 'squareblack.png', 'correct_response': 'right', 'condition': 'go'}, {'fileName': 'squareblack.png', 'correct_response': 'right', 'condition': 'stop'}, {'fileName': 'circleblack.png', 'correct_response': 'left', 'condition': 'stop'}, {'fileName': 'squareblack.png', 'correct_response': 'right', 'condition': 'stop'}, {'fileName': 'circleblack.png', 'correct_response': 'left', 'condition': 'stop'}, {'fileName': 'circleblack.png', 'correct_response': 'left', 'condition': 'go'}, {'fileName': 'circleblack.png', 'correct_response': 'left', 'condition': 'go'}, {'fileName': 'circleblack.png', 'correct_response': 'left', 'condition': 'go'}, {'fileName': 'circleblack.png', 'correct_response': 'left', 'condition': 'go'}, {'fileName': 'squareblack.png', 'correct_response': 'right', 'condition': 'go'}, {'fileName': 'squareblack.png', 'correct_response': 'right', 'condition': 'stop'}, {'fileName': 'circleblack.png', 'correct_response': 'left', 'condition': 'go'}, {'fileName': 'squareblack.png', 'correct_response': 'right', 'condition': 'stop'}, {'fileName': 'circleblack.png', 'correct_response': 'left', 'condition': 'stop'}, {'fileName': 'circleblack.png', 'correct_response': 'left', 'condition': 'go'}, {'fileName': 'circleblack.png', 'correct_response': 'left', 'condition': 'stop'}, {'fileName': 'squareblack.png', 'correct_response': 'right', 'condition': 'go'}, {'fileName': 'squareblack.png', 'correct_response': 'right', 'condition': 'go'}, {'fileName': 'squareblack.png', 'correct_response': 'right', 'condition': 'go'}, {'fileName': 'circleblack.png', 'correct_response': 'left', 'condition': 'stop'}, {'fileName': 'circleblack.png', 'correct_response': 'left', 'condition': 'stop'}, {'fileName': 'squareblack.png', 'correct_response': 'right', 'condition': 'go'}, {'fileName': 'squareblack.png', 'correct_response': 'right', 'condition': 'go'}, {'fileName': 'circleblack.png', 'correct_response': 'left', 'condition': 'go'}, {'fileName': 'squareblack.png', 'correct_response': 'right', 'condition': 'go'}, {'fileName': 'circleblack.png', 'correct_response': 'left', 'condition': 'go'}, {'fileName': 'squareblack.png', 'correct_response': 'right', 'condition': 'go'}, {'fileName': 'circleblack.png', 'correct_response': 'left', 'condition': 'go'}, {'fileName': 'squareblack.png', 'correct_response': 'right', 'condition': 'stop'}, {'fileName': 'squareblack.png', 'correct_response': 'right', 'condition': 'stop'}, {'fileName': 'circleblack.png', 'correct_response': 'left', 'condition': 'go'}, {'fileName': 'circleblack.png', 'correct_response': 'left', 'condition': 'go'}, {'fileName': 'circleblack.png', 'correct_response': 'left', 'condition': 'go'}, {'fileName': 'circleblack.png', 'correct_response': 'left', 'condition': 'stop'}, {'fileName': 'circleblack.png', 'correct_response': 'left', 'condition': 'go'}, {'fileName': 'squareblack.png', 'correct_response': 'right', 'condition': 'go'}, {'fileName': 'circleblack.png', 'correct_response': 'left', 'condition': 'stop'}, {'fileName': 'squareblack.png', 'correct_response': 'right', 'condition': 'go'}, {'fileName': 'squareblack.png', 'correct_response': 'right', 'condition': 'stop'}, {'fileName': 'circleblack.png', 'correct_response': 'left', 'condition': 'go'}, {'fileName': 'squareblack.png', 'correct_response': 'right', 'condition': 'go'}, {'fileName': 'squareblack.png', 'correct_response': 'right', 'condition': 'stop'}, {'fileName': 'squareblack.png', 'correct_response': 'right', 'condition': 'go'}]",688.9989984147251,688.9989984147251,return,6.454688861966133,,,,,,,,,,,,,,,,,,,,,,,,,,,,,,,,,,,,,,,,,,,,,,,,,,,,,,,,,,,s014,001,2024-07-22_14h02.28.328,simplestop_skeleton,2022.2.2,59.53050165985886,
None,None,0,0,0,0,0,0,0,2,,,,,,,,,,,,,,,695.5005662254989,695.5005662254989,759.3479593843222,go,circleblack.png,left,0.35,759.3714182376862,759.3714182376862,759.8621465414762,759.8621465414762,759.8789800107479,760.2127979770303,760.7133428566158,760.8631138205528,761.864318843931,761.8811936788261,left,1,1.1180333718657494,761.8811936788261,761.8811936788261,762.3916275203228,762.3916275203228,0.003107227385044098,0.4877154380083084,0.8380993269383907,762.3661003485322,practice,1,,,,,,,,,,,,,,,,,,,,,,,,,,,,,s014,001,2024-07-22_14h02.28.328,simplestop_skeleton,2022.2.2,59.53050165985886,
None,None,0,0,0,0,0,1,1,2,,,,,,,,,,,,,,,,,762.3666707985103,stop,squareblack.png,right,0.35,762.3916275203228,762.3916275203228,762.8821154199541,762.8821154199541,762.898762717843,763.2324485071003,763.7316592261195,763.8818201236427,764.8843404725194,764.9010897837579,left,0,0.3745751939713955,764.9010897837579,764.9010897837579,765.4059943035245,765.4059943035245,0.007528860121965408,0.489078089594841,0.8394896723330021,765.385845374316,practice,1,,,,,,,,,,,,,,,,,,,,,,,,,,,,,s014,001,2024-07-22_14h02.28.328,simplestop_skeleton,2022.2.2,59.53050165985886,
None,None,0,0,0,0,0,2,2,3,,,,,,,,,,,,,,,,,765.3862728700042,go,circleblack.png,left,0.3,765.4059943035245,765.4059943035245,765.9020743630826,765.9020743630826,765.918842844665,766.2025968767703,766.7015660479665,766.9019347466528,767.9046057015657,767.9212339967489,left,1,0.5344382375478745,767.9212339967489,767.9212339967489,,,0.0016766153275966644,0.48995110020041466,0.7903705947101116,768.4061670266092,practice,1,,,,,,,,,,,,,,,,,,,,,,,,,,,,,s014,001,2024-07-22_14h02.28.328,simplestop_skeleton,2022.2.2,59.53050165985886,
$currentCorrectResponse,$currentGoStim,0,0,0,0,0,3,3,0,,,,,,,,,,,,,,,,,768.4066227786243,stop,squareblack.png,right,0.3,768.4259451180696,768.4259451180696,768.92214012146,768.92214012146,768.9389844946563,769.2227962017059,769.7231173068285,769.9219073392451,770.9243826419115,770.9410586357117,right,1,0.6151702776551247,770.9410586357117,770.9410586357117,771.4457397386432,771.4457397386432,0.0016157403588294983,0.4897809363901615,0.7899874672293663,771.4259295538068,practice,1,,,,,,,,,,,,,,,,,,,,,,,,,,,,,s014,001,2024-07-22_14h02.28.328,simplestop_skeleton,2022.2.2,59.53050165985886,
None,None,0,0,0,0,1,0,4,3,,,,,,,,,,,,,,,,,771.4263423718512,go,circleblack.png,left,0.25,771.4457397386432,771.4457397386432,771.9421135820448,771.9421135820448,771.958821862936,772.1922219730914,772.6931177601218,772.9422717802227,773.9442311525345,773.9609996080399,left,1,0.49276934936642647,773.9609996080399,773.9609996080399,774.4656503163278,774.4656503163278,0.0016907751560211182,0.4898942932486534,0.74010419100523,774.4457890093327,practice,1,,,,,,,,,,,,,,,,,,,,,,,,,,,,,s014,001,2024-07-22_14h02.28.328,simplestop_skeleton,2022.2.2,59.53050165985886,
None,None,0,0,0,0,1,1,5,1,,,,,,,,,,,,,,,,,774.4463359639049,go,circleblack.png,left,0.25,774.4656503163278,774.4656503163278,774.9623312987387,774.9623312987387,774.9794014394283,775.2123714499176,775.7132708914578,775.9617792256176,776.9641839824617,776.9809973053634,left,1,0.6345517039299011,776.9809973053634,776.9809973053634,777.4858229868114,777.4858229868114,0.001283004879951477,0.4899529293179512,0.7400851212441921,777.4658109359443,practice,1,,,,,,,,,,,,,,,,,,,,,,,,,,,,,s014,001,2024-07-22_14h02.28.328,simplestop_skeleton,2022.2.2,59.53050165985886,
None,None,0,0,0,0,1,2,6,3,,,,,,,,,,,,,,,,,777.4662201926112,go,squareblack.png,right,0.25,777.4858229868114,777.4858229868114,777.9822522625327,777.9822522625327,777.9992086179554,778.2323157414794,778.7315801754594,778.9827219061553,779.9841829650104,780.0009796880186,right,1,0.5752071216702461,780.0009796880186,780.0009796880186,780.5058569423854,780.5058569423854,0.0016844384372234344,0.4900112934410572,0.7403172478079796,780.4858936369419,practice,1,,,,,,,,,,,,,,,,,,,,,,,,,,,,,s014,001,2024-07-22_14h02.28.328,simplestop_skeleton,2022.2.2,59.53050165985886,
$currentCorrectResponse,$currentGoStim,0,0,0,0,1,3,7,0,,,,,,,,,,,,,,,,,780.4863055460155,stop,circleblack.png,left,0.25,780.5058569423854,780.5058569423854,781.0020457953215,781.0020457953215,781.0188229307532,781.2524226903915,781.7529598847032,782.0032585375011,783.0048191919923,783.0212236009538,None,0,,783.0212236009538,783.0212236009538,783.5268798172474,783.5268798172474,0.0018626116216182709,0.4896184392273426,0.7402171567082405,783.5063919350505,practice,1,,,,,,,,,,,,,,,,,,,,,,,,,,,,,s014,001,2024-07-22_14h02.28.328,simplestop_skeleton,2022.2.2,59.53050165985886,
None,None,0,0,0,0,2,0,8,2,,,,,,,,,,,,,,,,,783.506844446063,go,squareblack.png,right,0.3,783.5268798172474,783.5268798172474,784.0208922587335,784.0208922587335,784.0375172644854,784.321127191186,784.8220865018666,785.0218146666884,786.0246803089976,786.0410461463034,left,0,0.46702583506703377,786.0410461463034,786.0410461463034,786.5462389737368,786.5462389737368,0.0017624609172344208,0.48819731548428535,0.7880206257104874,786.5259471386671,practice,1,,,,,,,,,,,,,,,,,,,,,,,,,,,,,s014,001,2024-07-22_14h02.28.328,simplestop_skeleton,2022.2.2,59.53050165985886,
None,None,0,0,0,0,2,1,9,3,,,,,,,,,,,,,,,,,786.5263673663139,stop,circleblack.png,left,0.3,786.5462389737368,786.5462389737368,787.0420568175614,787.0420568175614,787.0587442517281,787.3426348865032,787.8430959656835,788.0417383797467,789.0444390587509,789.0610095523298,left,1,0.6097014807164669,789.0610095523298,789.0610095523298,789.5656480826437,789.5656480826437,0.0017565451562404633,0.4898322969675064,0.7904096804559231,789.5458767861128,practice,1,,,,,,,,,,,,,,,,,,,,,,,,,,,,,s014,001,2024-07-22_14h02.28.328,simplestop_skeleton,2022.2.2,59.53050165985886,
None,None,0,0,0,0,2,2,10,1,,,,,,,,,,,,,,,,,789.5462960228324,go,squareblack.png,right,0.25,789.5656480826437,789.5656480826437,790.0620424933732,790.0620424933732,790.0787272043526,790.3123438321054,790.8129908256233,791.0616959370673,792.0643375180662,792.0808256007731,right,1,0.5874021351337433,792.0808256007731,792.0808256007731,792.5858963616192,792.5858963616192,0.0016267113387584686,0.48987725377082825,0.740046214312315,792.5657775215805,practice,1,,,,,,,,,,,,,,,,,,,,,,,,,,,,,s014,001,2024-07-22_14h02.28.328,simplestop_skeleton,2022.2.2,59.53050165985886,
None,None,0,0,0,0,2,3,11,1,,,,,,,,,,,,,,,,,792.5662033818662,go,squareblack.png,right,0.25,792.5858963616192,792.5858963616192,793.0821057893336,793.0821057893336,793.0987018533051,793.3322777450085,793.8332808725536,794.0816841945052,795.0842694528401,795.1010419726372,right,1,0.6228931546211243,795.1010419726372,795.1010419726372,795.6051702797413,795.6051702797413,0.0011949315667152405,0.4897920861840248,0.7399719171226025,795.5857139639556,practice,1,,,,,,,,,,,,,,,,,,,,,,,,,,,,,s014,001,2024-07-22_14h02.28.328,simplestop_skeleton,2022.2.2,59.53050165985886,
None,None,0,0,0,0,3,0,12,3,,,,,,,,,,,,,,,,,795.5861325450242,go,squareblack.png,right,0.25,795.6051702797413,795.6051702797413,796.1021232753992,796.1021232753992,796.1187360025942,796.3523135744035,796.8533438444138,797.1017223969102,798.1042409650981,798.1042409650981,right,1,0.6403329856693745,798.1042409650981,798.1042409650981,798.614873778075,798.614873778075,0.0012274868786334991,0.49001627415418625,0.7403169013559818,798.5890606194735,practice,1,,,,,,,,,,,,,,,,,,,,,,,,,,,,,s014,001,2024-07-22_14h02.28.328,simplestop_skeleton,2022.2.2,59.53050165985886,
$currentCorrectResponse,$currentGoStim,0,0,0,0,3,1,13,0,,,,,,,,,,,,,,,,,798.5894871465862,go,circleblack.png,left,0.25,798.614873778075,798.614873778075,799.1051947847009,799.1051947847009,799.1222354136407,799.3558286242187,799.856485273689,800.1067097000778,801.1076478213072,801.1242982335389,left,1,0.7596336081624031,801.1242982335389,801.1242982335389,801.6292577087879,801.6292577087879,0.00813058391213417,0.4900570213794708,0.7402354329824448,801.6091828867793,practice,1,,,,,,,,,,,,,,,,,,,,,,,,,,,,,s014,001,2024-07-22_14h02.28.328,simplestop_skeleton,2022.2.2,59.53050165985886,
None,None,0,0,0,0,3,2,14,1,,,,,,,,,,,,,,,,,801.6096064299345,stop,squareblack.png,right,0.25,801.6292577087879,801.6292577087879,802.1254274509847,802.1254274509847,802.1423743665218,802.3758572787046,802.8766596056521,803.12658816576,804.1278884746134,804.1278884746134,None,0,,804.1278884746134,804.1278884746134,,,0.0016263052821159363,0.4899612031877041,0.7404921129345894,804.6276553198695,practice,1,,,,,,,,,,,,,,,,,,,,,,,,,,,,,s014,001,2024-07-22_14h02.28.328,simplestop_skeleton,2022.2.2,59.53050165985886,
None,None,0,0,0,0,3,3,15,2,,,,,,,,,,,,,,,,,804.6280981898308,go,circleblack.png,left,0.3,804.6508384793997,804.6508384793997,805.1441230624914,805.1441230624914,805.1608046330512,805.4444758966565,805.9455891102552,806.1466427072883,807.1474494226277,807.1642876416445,left,1,0.5785962119698524,807.1642876416445,807.1642876416445,,,0.00736786425113678,0.4897432215511799,0.7902469895780087,807.6488922797143,practice,1,,,,,,,,,,,,,,,,,,,,,,,,,,,,,s014,001,2024-07-22_14h02.28.328,simplestop_skeleton,2022.2.2,59.53050165985886,
$currentCorrectResponse,$currentGoStim,0,0,0,0,4,0,16,0,,,,,,,,,,,,,,,,,807.6493341699243,stop,squareblack.png,right,0.3,807.6689738333225,807.6689738333225,808.1656731516123,808.1656731516123,808.1821646057069,808.4643952511251,808.9654115587473,809.1663231030107,810.1675677783787,810.1842702329159,None,0,,810.1842702329159,810.1842702329159,810.6888904199004,810.6888904199004,0.0016986876726150513,0.4901462569832802,0.7889893464744091,810.6689544245601,practice,1,,,,,,,,,,,,,,,,,,,,,,,,,,,,,s014,001,2024-07-22_14h02.28.328,simplestop_skeleton,2022.2.2,59.53050165985886,
$currentCorrectResponse,$currentGoStim,0,0,0,0,4,1,17,0,,,,,,,,,,,,,,,,,810.669419746846,stop,circleblack.png,left,0.35,810.6888904199004,810.6888904199004,811.1853188946843,811.1853188946843,811.2020795866847,811.5362531356514,812.036594927311,812.1865113638341,813.1878413371742,813.204371958971,None,0,,813.204371958971,813.204371958971,813.708883099258,813.708883099258,0.0017823800444602966,0.49005067721009254,0.8403686322271824,813.6891690604389,practice,1,,,,,,,,,,,,,,,,,,,,,,,,,,,,,s014,001,2024-07-22_14h02.28.328,simplestop_skeleton,2022.2.2,59.53050165985886,
None,None,0,0,0,0,4,2,18,2,,,,,,,,,,,,,,,,,813.6895909681916,go,squareblack.png,right,0.4,813.708883099258,813.708883099258,814.204296734184,814.204296734184,814.2210628017783,814.6056100986898,815.1050048582256,815.205196108669,816.207677256316,816.2245978266001,right,1,0.4377733916044235,816.2245978266001,816.2245978266001,816.7292358912528,816.7292358912528,0.0017338581383228302,0.48885590955615044,0.8900562599301338,816.7092632912099,practice,1,,,,,,,,,,,,,,,,,,,,,,,,,,,,,s014,001,2024-07-22_14h02.28.328,simplestop_skeleton,2022.2.2,59.53050165985886,
None,None,0,0,0,0,4,3,19,2,,,,,,,,,,,,,,,,,816.7096844054759,go,circleblack.png,left,0.4,816.7292358912528,816.7292358912528,817.2255869023502,817.2255869023502,817.2421904914081,817.6260651089251,818.1265597604215,818.2250723317266,819.2276299484074,819.2444968447089,left,1,0.723811712116003,819.2444968447089,819.2444968447089,819.7490855380893,819.7490855380893,0.0017683319747447968,0.4897532947361469,0.8903737924993038,819.7292652316391,practice,1,,,,,,,,,,,,,,,,,,,,,,,,,,,,,s014,001,2024-07-22_14h02.28.328,simplestop_skeleton,2022.2.2,59.53050165985886,
None,None,0,0,0,0,5,0,20,1,,,,,,,,,,,,,,,,,819.7296808958054,go,squareblack.png,right,0.4,819.7490855380893,819.7490855380893,820.245400775224,820.245400775224,820.262470446527,820.6460592672229,821.1617399342358,821.2450397834182,822.2475688494742,822.2643815688789,right,1,0.5501821488142014,822.2643815688789,822.2643815688789,,,0.001581929624080658,0.49022603780031204,0.8905351758003235,822.748982295394,practice,1,,,,,,,,,,,,,,,,,,,,,,,,,,,,,s014,001,2024-07-22_14h02.28.328,simplestop_skeleton,2022.2.2,59.53050165985886,
$currentCorrectResponse,$currentGoStim,0,0,0,0,5,1,21,0,,,,,,,,,,,,,,,,,822.7494013756514,stop,circleblack.png,left,0.4,822.7688898928463,822.7688898928463,823.2652864418924,823.2652864418924,823.281871188432,823.6656754240394,824.1648882627487,824.265213534236,825.2676011435688,825.2843020893633,left,1,0.5095297954976559,825.2843020893633,825.2843020893633,825.7890458069742,825.7890458069742,0.0017775669693946838,0.4900491014122963,0.8904938213527203,825.7689928598702,practice,1,,,,,,,,,,,,,,,,,,,,,,,,,,,,,s014,001,2024-07-22_14h02.28.328,simplestop_skeleton,2022.2.2,59.53050165985886,
None,None,0,0,0,0,5,2,22,1,,,,,,,,,,,,,,,,,825.7694143876433,go,circleblack.png,left,0.35,825.7890458069742,825.7890458069742,826.2854803726077,826.2854803726077,826.3021162934601,826.6361117735505,827.1516912356019,827.2851660512388,828.2880641445518,828.3042385876179,left,1,0.501274935901165,828.3042385876179,828.3042385876179,828.8088864795864,828.8088864795864,0.0013863854110240936,0.4900699108839035,0.8401713892817497,828.7889949642122,practice,1,,,,,,,,,,,,,,,,,,,,,,,,,,,,,s014,001,2024-07-22_14h02.28.328,simplestop_skeleton,2022.2.2,59.53050165985886,
None,None,0,0,0,0,5,3,23,3,,,,,,,,,,,,,,,,,828.7894131615758,go,squareblack.png,right,0.35,828.8088864795864,828.8088864795864,829.3055071793497,829.3055071793497,829.3219995610416,829.6558407209814,830.1564066149294,830.3050190508366,831.3074916414917,831.3242088407278,right,1,0.5535961091518402,831.3242088407278,831.3242088407278,831.8269577398896,831.8269577398896,0.0017203353345394135,0.4901006184518337,0.8406283147633076,831.8090263605118,practice,1,,,,,,,,,,,,,,,,,,,,,,,,,,,,,s014,001,2024-07-22_14h02.28.328,simplestop_skeleton,2022.2.2,59.53050165985886,
,,0,0,0,0,,,,,,,,,,,,,"[{'fileName': 'squareblack.png', 'correct_response': 'right', 'condition': 'stop'}, {'fileName': 'circleblack.png', 'correct_response': 'left', 'condition': 'go'}, {'fileName': 'squareblack.png', 'correct_response': 'right', 'condition': 'stop'}, {'fileName': 'circleblack.png', 'correct_response': 'left', 'condition': 'go'}, {'fileName': 'circleblack.png', 'correct_response': 'left', 'condition': 'stop'}, {'fileName': 'squareblack.png', 'correct_response': 'right', 'condition': 'go'}, {'fileName': 'circleblack.png', 'correct_response': 'left', 'condition': 'stop'}, {'fileName': 'squareblack.png', 'correct_response': 'right', 'condition': 'go'}, {'fileName': 'circleblack.png', 'correct_response': 'left', 'condition': 'go'}, {'fileName': 'squareblack.png', 'correct_response': 'right', 'condition': 'go'}, {'fileName': 'circleblack.png', 'correct_response': 'left', 'condition': 'go'}, {'fileName': 'squareblack.png', 'correct_response': 'right', 'condition': 'go'}, {'fileName': 'squareblack.png', 'correct_response': 'right', 'condition': 'go'}, {'fileName': 'circleblack.png', 'correct_response': 'left', 'condition': 'go'}, {'fileName': 'squareblack.png', 'correct_response': 'right', 'condition': 'go'}, {'fileName': 'squareblack.png', 'correct_response': 'right', 'condition': 'go'}, {'fileName': 'circleblack.png', 'correct_response': 'left', 'condition': 'stop'}, {'fileName': 'circleblack.png', 'correct_response': 'left', 'condition': 'stop'}, {'fileName': 'squareblack.png', 'correct_response': 'right', 'condition': 'stop'}, {'fileName': 'circleblack.png', 'correct_response': 'left', 'condition': 'go'}, {'fileName': 'circleblack.png', 'correct_response': 'left', 'condition': 'go'}, {'fileName': 'circleblack.png', 'correct_response': 'left', 'condition': 'go'}, {'fileName': 'squareblack.png', 'correct_response': 'right', 'condition': 'go'}, {'fileName': 'squareblack.png', 'correct_response': 'right', 'condition': 'stop'}]",,,,,,,,,,,,,,,,,,,,,,,,,,,,,,,,,,,,831.8269577398896,831.8269577398896,return,12.620274361222982,,,,,,,,,,,,,,,,,,,,,,,,,s014,001,2024-07-22_14h02.28.328,simplestop_skeleton,2022.2.2,59.53050165985886,
None,None,,,,,,,,,0,0,0,0,0,0,0,1,,,,,,,,,861.4579498879611,go,circleblack.png,left,0.35,,,,,,,,,,,,,,,,,,0.002945944666862488,0.49046066403388977,,863.9621598832309,test,1,,,,,844.4721944481134,844.4721944481134,861.4776734299958,861.974777944386,861.974777944386,861.9917023144662,862.3251780420542,862.8262981399894,862.9761525131762,863.9815709553659,left,1,0.4343121685087681,0.35,,,,,,,,,,,s014,001,2024-07-22_14h02.28.328,simplestop_skeleton,2022.2.2,59.53050165985886,
$currentCorrectResponse,$currentGoStim,,,,,,,,,0,0,0,0,0,1,1,0,,,,,,,,,863.9627169668674,go,squareblack.png,right,0.35,,,,,,,,,,,,,,,,,,0.00257834792137146,0.4887010231614113,,866.4645090736449,test,1,,,,,,,863.9815709553659,864.4775180593133,864.4775180593133,864.4942083097994,864.8278598003089,865.3271563276649,865.4773077480495,866.4838007986546,right,1,0.5957294814288616,0.35,,,,,,,,,,,s014,001,2024-07-22_14h02.28.328,simplestop_skeleton,2022.2.2,59.53050165985886,
None,None,,,,,,,,,0,0,0,0,0,2,2,2,,,,,,,,,866.4649601764977,go,circleblack.png,left,0.35,,,,,,,,,,,,,,,,,,0.0018459782004356384,0.4897349998354912,,868.9670717008412,test,1,,,,,,,866.4838007986546,866.9805605374277,866.9805605374277,866.9971635490656,867.3306111767888,867.8298523947597,867.9800795279443,868.9861641936004,left,1,0.4841928035020828,0.35,,,,,,,,,,,s014,001,2024-07-22_14h02.28.328,simplestop_skeleton,2022.2.2,59.53050165985886,
None,None,,,,,,,,,0,0,0,0,0,3,3,3,,,,,,,,,868.9675100035965,go,squareblack.png,right,0.35,,,,,,,,,,,,,,,,,,0.0017322041094303131,0.4895329028367996,,871.470116596669,test,1,,,,,,,868.9861641936004,869.4833333604038,869.4833333604038,869.5000759027898,869.8335309401155,870.332682248205,870.4827734678984,871.4891320429742,right,1,0.5914052464067936,0.35,,,,,,,,,,,s014,001,2024-07-22_14h02.28.328,simplestop_skeleton,2022.2.2,59.53050165985886,
None,None,,,,,,,,,0,0,0,0,1,0,4,2,,,,,,,,,871.4705620780587,go,squareblack.png,right,0.35,,,,,,,,,,,,,,,,,,0.0014006569981575012,0.48948609456419945,,873.9729683846235,test,1,,,,,,,871.4891320429742,871.9858817905188,871.9858817905188,872.0027574710548,872.3363627381623,872.8354229480028,872.9854509830475,873.9919035881758,right,1,0.5186332575976849,0.35,,,,,,,,,,,s014,001,2024-07-22_14h02.28.328,simplestop_skeleton,2022.2.2,59.53050165985886,
$currentCorrectResponse,$currentGoStim,,,,,,,,,0,0,0,0,1,1,5,0,,,,,,,,,873.9734143801033,go,squareblack.png,right,0.35,,,,,,,,,,,,,,,,,,0.0013842172920703888,0.4897044450044632,,876.4756434485316,test,1,,,,,,,873.9919035881758,874.4887369275093,874.4887369275093,874.5053048096597,874.8392466194928,875.3547775521874,875.4884707182646,876.4944936037064,right,1,0.4009748324751854,0.35,,,,,,,,,,,s014,001,2024-07-22_14h02.28.328,simplestop_skeleton,2022.2.2,59.53050165985886,
None,None,,,,,,,,,0,0,0,0,1,2,6,3,,,,,,,,,876.4761593453586,stop,squareblack.png,right,0.35,,,,,,,,,,,,,,,,,,0.0013355724513530731,0.48956090584397316,0.8395080715417862,878.9785211272538,test,1,,,,,,,876.4944936037064,876.9918159022927,876.9918159022927,877.0085499435663,877.3402711413801,877.8408367596567,877.991888307035,879.0034243389964,right,1,0.43062836304306984,0.3,,,,,,,,,,,s014,001,2024-07-22_14h02.28.328,simplestop_skeleton,2022.2.2,59.53050165985886,
$currentCorrectResponse,$currentGoStim,,,,,,,,,0,0,0,0,1,3,7,0,,,,,,,,,878.9789681918919,stop,circleblack.png,left,0.3,,,,,,,,,,,,,,,,,,0.007974959909915924,0.4895523712038994,0.7898756377398968,881.4809858873487,test,1,,,,,,,879.0034243389964,879.494086060673,879.494086060673,879.511263936758,879.7944210804999,880.2935603298247,880.4939470849931,881.5003814063966,left,1,0.43471986055374146,0.25,,,,,,,,,,,s014,001,2024-07-22_14h02.28.328,simplestop_skeleton,2022.2.2,59.53050165985886,
None,None,,,,,,,,,0,0,0,0,2,0,8,1,,,,,,,,,881.4814285896719,stop,squareblack.png,right,0.25,,,,,,,,,,,,,,,,,,0.0017141588032245636,0.48950543254613876,0.7397871017456055,883.9836601167917,test,1,,,,,,,881.5003814063966,881.9975009560585,881.9975009560585,882.0142983198166,882.2472390495241,882.7629642449319,882.9976084791124,884.0029623694718,None,0,,0.3,,,,,,,,,,,s014,001,2024-07-22_14h02.28.328,simplestop_skeleton,2022.2.2,59.53050165985886,
None,None,,,,,,,,,0,0,0,0,2,1,9,2,,,,,,,,,883.984103422612,stop,circleblack.png,left,0.3,,,,,,,,,,,,,,,,,,0.0018273070454597473,0.4895503744482994,0.7897907719016075,886.4863573610783,test,1,,,,,,,884.0029623694718,884.4996180720627,884.4996180720627,884.5163245648146,884.7998928129673,885.2991944588721,885.5001056753099,886.5056218542159,left,1,0.4073024243116379,0.25,,,,,,,,,,,s014,001,2024-07-22_14h02.28.328,simplestop_skeleton,2022.2.2,59.53050165985886,
None,None,,,,,,,,,0,0,0,0,2,2,10,3,,,,,,,,,886.4867997355759,go,circleblack.png,left,0.25,,,,,,,,,,,,,,,,,,0.0013719536364078522,0.489700835198164,,888.9894418790936,test,1,,,,,,,886.5056218542159,887.0023326016963,887.0023326016963,887.0192792192101,887.2527495212853,887.7532584667206,888.0020798407495,889.0082632489502,left,1,0.576572235673666,0.25,,,,,,,,,,,s014,001,2024-07-22_14h02.28.328,simplestop_skeleton,2022.2.2,59.53050165985886,
$currentCorrectResponse,$currentGoStim,,,,,,,,,0,0,0,0,2,3,11,0,,,,,,,,,888.989885032177,go,circleblack.png,left,0.25,,,,,,,,,,,,,,,,,,0.0014163218438625336,0.4894113801419735,,891.4919999837875,test,1,,,,,,,889.0082632489502,889.5050628148019,889.5050628148019,889.5222519040108,889.7555317468941,890.2560671120882,890.5048691630363,891.5110837519169,left,1,0.5632125698029995,0.25,,,,,,,,,,,s014,001,2024-07-22_14h02.28.328,simplestop_skeleton,2022.2.2,59.53050165985886,
None,None,,,,,,,,,0,0,0,0,3,0,12,3,,,,,,,,,891.4924357458949,go,circleblack.png,left,0.25,,,,,,,,,,,,,,,,,,0.00138850137591362,0.4897800534963608,,893.994837153703,test,1,,,,,,,891.5110837519169,892.0079771876335,892.0079771876335,892.0247254259884,892.2581034749746,892.7587088346481,893.0082144029438,894.0142479240894,left,1,0.429849099367857,0.25,,,,,,,,,,,s014,001,2024-07-22_14h02.28.328,simplestop_skeleton,2022.2.2,59.53050165985886,
None,None,,,,,,,,,0,0,0,0,3,1,13,2,,,,,,,,,893.995274797082,go,circleblack.png,left,0.25,,,,,,,,,,,,,,,,,,0.0014405474066734314,0.4891480952501297,,896.4974264912307,test,1,,,,,,,894.0142479240894,894.51103829965,894.51103829965,894.5273617394269,894.7611976787448,895.2616520188749,895.5110838636756,896.5220248140395,left,1,0.432001993060112,0.25,,,,,,,,,,,s014,001,2024-07-22_14h02.28.328,simplestop_skeleton,2022.2.2,59.53050165985886,
None,None,,,,,,,,,0,0,0,0,3,2,14,2,,,,,,,,,896.4978756904602,go,squareblack.png,right,0.25,,,,,,,,,,,,,,,,,,0.007582060992717743,0.4899226762354374,,899.0002166479826,test,1,,,,,,,896.5220248140395,897.0137386508286,897.0137386508286,897.0301628746092,897.2641440294683,897.7795744799078,898.013225890696,899.0191279239953,right,1,0.41122544556856155,0.25,,,,,,,,,,,s014,001,2024-07-22_14h02.28.328,simplestop_skeleton,2022.2.2,59.53050165985886,
None,None,,,,,,,,,0,0,0,0,3,3,15,3,,,,,,,,,899.0006679184735,stop,squareblack.png,right,0.25,,,,,,,,,,,,,,,,,,0.0013270117342472076,0.4894886948168278,0.7400349229574203,901.5030531398952,test,1,,,,,,,899.0191279239953,899.5165050663054,899.5165050663054,899.5327962115407,899.7666241526604,900.2671580538154,900.5165967717767,901.5226760394871,right,1,0.45698167383670807,0.2,,,,,,,,,,,s014,001,2024-07-22_14h02.28.328,simplestop_skeleton,2022.2.2,59.53050165985886,
None,None,,,,,,,,,0,0,0,0,4,0,16,2,,,,,,,,,901.5034971162677,go,circleblack.png,left,0.2,,,,,,,,,,,,,,,,,,0.00198948010802269,0.4896327406167984,,904.0058361887932,test,1,,,,,,,901.5226760394871,902.0189433135092,902.0189433135092,902.0358757153153,902.2193220332265,902.7198078818619,903.0187754295766,904.025131534785,left,1,0.4612986221909523,0.2,,,,,,,,,,,s014,001,2024-07-22_14h02.28.328,simplestop_skeleton,2022.2.2,59.53050165985886,
None,None,,,,,,,,,0,0,0,0,4,1,17,2,,,,,,,,,904.0062961615622,stop,squareblack.png,right,0.2,,,,,,,,,,,,,,,,,,0.0017902031540870667,0.4893640950322151,0.6899202391505241,906.5092375911772,test,1,,,,,,,904.025131534785,904.5219979435205,904.5219979435205,904.5386769250035,904.7220343947411,905.2225283309817,905.5230709761381,906.5289965644479,None,0,,0.25,,,,,,,,,,,s014,001,2024-07-22_14h02.28.328,simplestop_skeleton,2022.2.2,59.53050165985886,
$currentCorrectResponse,$currentGoStim,,,,,,,,,0,0,0,0,4,2,18,0,,,,,,,,,906.5097080171108,stop,circleblack.png,left,0.25,,,,,,,,,,,,,,,,,,0.0023749954998493195,0.4874304160475731,0.7377228662371635,909.0110130049288,test,1,,,,,,,906.5289965644479,907.0234156250954,907.0234156250954,907.0405075289309,907.27361818403,907.7738035209477,908.0240691788495,909.0300142914057,None,0,,0.3,,,,,,,,,,,s014,001,2024-07-22_14h02.28.328,simplestop_skeleton,2022.2.2,59.53050165985886,
None,None,,,,,,,,,0,0,0,0,4,3,19,1,,,,,,,,,909.0114626996219,go,circleblack.png,left,0.3,,,,,,,,,,,,,,,,,,0.0013294555246829987,0.48977527767419815,,911.5140479579568,test,1,,,,,,,909.0300142914057,909.5271215327084,909.5271215327084,909.5439164191484,909.827829927206,910.3434762097895,910.5268421955407,911.5331516489387,left,1,0.49078208580613136,0.3,,,,,,,,,,,s014,001,2024-07-22_14h02.28.328,simplestop_skeleton,2022.2.2,59.53050165985886,
None,None,,,,,,,,,0,0,0,0,5,0,20,1,,,,,,,,,911.5145031698048,stop,circleblack.png,left,0.3,,,,,,,,,,,,,,,,,,0.0013946034014225006,0.48995916172862053,0.7899611331522465,914.0168409235775,test,1,,,,,,,911.5331516489387,912.0301130264997,912.0301130264997,912.0468657426536,912.3304211497307,912.8294036015868,913.0299498774111,914.0362227670848,left,1,0.40103629976511,0.25,,,,,,,,,,,s014,001,2024-07-22_14h02.28.328,simplestop_skeleton,2022.2.2,59.53050165985886,
None,None,,,,,,,,,0,0,0,0,5,1,21,2,,,,,,,,,914.0172752290964,go,squareblack.png,right,0.25,,,,,,,,,,,,,,,,,,0.0017228536307811737,0.4894700273871422,,916.5194378532469,test,1,,,,,,,914.0362227670848,914.5328824035823,914.5328824035823,914.5496148951352,914.783040009439,915.2836322933435,915.532468970865,916.538299061358,right,1,0.5640837177634239,0.25,,,,,,,,,,,s014,001,2024-07-22_14h02.28.328,simplestop_skeleton,2022.2.2,59.53050165985886,
None,None,,,,,,,,,0,0,0,0,5,2,22,1,,,,,,,,,916.5198873355985,go,squareblack.png,right,0.25,,,,,,,,,,,,,,,,,,0.0012920200824737549,0.4898473620414734,,919.0224020145833,test,1,,,,,,,916.538299061358,917.0358143001795,917.0358143001795,917.0524821318686,917.2859427668154,917.7867716252804,918.0352646932006,919.0415903069079,right,1,0.6408410407602787,0.25,,,,,,,,,,,s014,001,2024-07-22_14h02.28.328,simplestop_skeleton,2022.2.2,59.53050165985886,
None,None,,,,,,,,,0,0,0,0,5,3,23,1,,,,,,,,,919.0228578820825,go,squareblack.png,right,0.25,,,,,,,,,,,,,,,,,,0.001351192593574524,0.48986929282546043,,921.5250523611903,test,1,,,,,,,919.0415903069079,919.5386085771024,919.5386085771024,919.5548849888146,919.7889582179487,920.2893893532455,920.5386176370084,921.5448157899082,right,1,0.429736215621233,0.25,,,,,,,,,,,s014,001,2024-07-22_14h02.28.328,simplestop_skeleton,2022.2.2,59.53050165985886,
None,None,,,,,,,,,0,0,0,0,6,0,24,2,,,,,,,,,921.5255083218217,stop,circleblack.png,left,0.25,,,,,,,,,,,,,,,,,,0.0020411834120750427,0.48974765092134476,0.7399901635944843,924.0272308699787,test,1,,,,,,,921.5448157899082,922.0412348806858,922.0412348806858,922.0580207556486,922.2914251685143,922.7920341901481,923.042356275022,924.0462284050882,None,0,,0.3,,,,,,,,,,,s014,001,2024-07-22_14h02.28.328,simplestop_skeleton,2022.2.2,59.53050165985886,
None,None,,,,,,,,,0,0,0,0,6,1,25,2,,,,,,,,,924.0277638100088,stop,circleblack.png,left,0.3,,,,,,,,,,,,,,,,,,0.0015964396297931671,0.48813705146312714,0.7881804257631302,926.5306655168533,test,1,,,,,,,924.0462284050882,924.5425088480115,924.5425088480115,924.5593257471919,924.8427685573697,925.3441730253398,925.5444426313043,926.549852501601,None,0,,0.35,,,,,,,,,,,s014,001,2024-07-22_14h02.28.328,simplestop_skeleton,2022.2.2,59.53050165985886,
$currentCorrectResponse,$currentGoStim,,,,,,,,,0,0,0,0,6,2,26,0,,,,,,,,,926.531106993556,go,squareblack.png,right,0.35,,,,,,,,,,,,,,,,,,0.001767534762620926,0.48969151824712753,,929.0332052260637,test,1,,,,,,,926.549852501601,927.0465275160968,927.0465275160968,927.0633437260985,927.3956004865468,927.8970871269703,928.0474302060902,929.0522856749594,right,1,0.5568758361041546,0.35,,,,,,,,,,,s014,001,2024-07-22_14h02.28.328,simplestop_skeleton,2022.2.2,59.53050165985886,
None,None,,,,,,,,,0,0,0,0,6,3,27,3,,,,,,,,,929.0336530171335,go,squareblack.png,right,0.35,,,,,,,,,,,,,,,,,,0.001299448311328888,0.4897243492305279,,931.5358294807374,test,1,,,,,,,929.0522856749594,929.5494774580002,929.5494774580002,929.5661108605564,929.8997511230409,930.3987557664514,930.5490617752075,931.5556645430624,right,1,0.4155457653105259,0.35,,,,,,,,,,,s014,001,2024-07-22_14h02.28.328,simplestop_skeleton,2022.2.2,59.53050165985886,
None,None,,,,,,,,,0,0,0,0,7,0,28,3,,,,,,,,,931.5362634547055,go,circleblack.png,left,0.35,,,,,,,,,,,,,,,,,,0.0019146762788295746,0.4897722266614437,,934.0388354100287,test,1,,,,,,,931.5556645430624,932.0520326085389,932.0520326085389,932.0687919519842,932.4023743420839,932.9031281508505,933.051873229444,934.0581570677459,left,1,0.6587515063583851,0.35,,,,,,,,,,,s014,001,2024-07-22_14h02.28.328,simplestop_skeleton,2022.2.2,59.53050165985886,
$currentCorrectResponse,$currentGoStim,,,,,,,,,0,0,0,0,7,1,29,0,,,,,,,,,934.0392868220806,go,squareblack.png,right,0.35,,,,,,,,,,,,,,,,,,0.001803915947675705,0.48954829946160316,,936.5419122725725,test,1,,,,,,,934.0581570677459,934.5547776594758,934.5547776594758,934.571502763778,934.9051493778825,935.4042304418981,935.5545414164662,936.5615467838943,right,1,0.4127829931676388,0.35,,,,,,,,,,,s014,001,2024-07-22_14h02.28.328,simplestop_skeleton,2022.2.2,59.53050165985886,
None,None,,,,,,,,,0,0,0,0,7,2,30,3,,,,,,,,,936.5423706099391,go,circleblack.png,left,0.35,,,,,,,,,,,,,,,,,,0.0018594078719615936,0.48942576721310616,,939.0445613116026,test,1,,,,,,,936.5615467838943,937.0576189309359,937.0576189309359,937.0746675804257,937.4080463089049,937.9070190675557,938.057301145047,939.0638919398189,left,1,0.5888011381030083,0.35,,,,,,,,,,,s014,001,2024-07-22_14h02.28.328,simplestop_skeleton,2022.2.2,59.53050165985886,
$currentCorrectResponse,$currentGoStim,,,,,,,,,0,0,0,0,7,3,31,0,,,,,,,,,939.0450244285166,go,squareblack.png,right,0.35,,,,,,,,,,,,,,,,,,0.001764841377735138,0.48971275240182877,,941.5473300628364,test,1,,,,,,,939.0638919398189,939.5606038123369,939.5606038123369,939.5769448615611,939.9112075641751,940.4265792220831,940.5601193532348,941.5667057819664,right,1,0.3555576018989086,0.35,,,,,,,,,,,s014,001,2024-07-22_14h02.28.328,simplestop_skeleton,2022.2.2,59.53050165985886,
None,None,,,,,,,,,0,0,0,0,8,0,32,3,,,,,,,,,941.547792788595,go,circleblack.png,left,0.35,,,,,,,,,,,,,,,,,,0.0018686801195144653,0.48944832012057304,,944.0500545352697,test,1,,,,,,,941.5667057819664,942.0630832053721,942.0630832053721,942.0802844315767,942.4135689288378,942.9128135554492,943.0628085248172,944.0695845149457,left,1,0.5089658349752426,0.35,,,,,,,,,,,s014,001,2024-07-22_14h02.28.328,simplestop_skeleton,2022.2.2,59.53050165985886,
None,None,,,,,,,,,0,0,0,0,8,1,33,2,,,,,,,,,944.0505050085485,stop,squareblack.png,right,0.35,,,,,,,,,,,,,,,,,,0.0019302554428577423,0.4893902763724327,0.8399880304932594,946.5528980009258,test,1,,,,,,,944.0695845149457,944.5669707171619,944.5669707171619,944.5826955810189,944.9165113680065,945.4320471100509,945.5657360628247,946.5719578005373,right,1,0.3968355059623718,0.3,,,,,,,,,,,s014,001,2024-07-22_14h02.28.328,simplestop_skeleton,2022.2.2,59.53050165985886,
None,None,,,,,,,,,0,0,0,0,8,2,34,3,,,,,,,,,946.5533347800374,stop,squareblack.png,right,0.3,,,,,,,,,,,,,,,,,,0.001329224556684494,0.4899771139025688,0.78829001262784,949.0556854456663,test,1,,,,,,,946.5719578005373,947.0690553635359,947.0690553635359,947.0856241360307,947.367603186518,947.8680992946029,948.0690528377891,949.0751246511936,None,0,,0.35,,,,,,,,,,,s014,001,2024-07-22_14h02.28.328,simplestop_skeleton,2022.2.2,59.53050165985886,
None,None,,,,,,,,,0,0,0,0,8,3,35,1,,,,,,,,,949.0561337657273,go,circleblack.png,left,0.35,,,,,,,,,,,,,,,,,,0.0019643791019916534,0.48956915736198425,,951.5580525174737,test,1,,,,,,,949.0751246511936,949.5714281722903,949.5714281722903,949.5881845764816,949.9218693822622,950.4210482388735,950.5711649022996,951.577051807195,left,1,0.5520325675606728,0.35,,,,,,,,,,,s014,001,2024-07-22_14h02.28.328,simplestop_skeleton,2022.2.2,59.53050165985886,
$currentCorrectResponse,$currentGoStim,,,,,,,,,0,0,0,0,9,0,36,0,,,,,,,,,951.5585021264851,go,circleblack.png,left,0.35,,,,,,,,,,,,,,,,,,0.00135749951004982,0.489833228290081,,954.0607760734856,test,1,,,,,,,951.577051807195,952.0741350725293,952.0741350725293,952.0910040587187,952.424551371485,952.9250502437353,953.0739967115223,954.0796818546951,left,1,0.5847912691533566,0.35,,,,,,,,,,,s014,001,2024-07-22_14h02.28.328,simplestop_skeleton,2022.2.2,59.53050165985886,
None,None,,,,,,,,,0,0,0,0,9,1,37,2,,,,,,,,,954.0612224079669,go,circleblack.png,left,0.35,,,,,,,,,,,,,,,,,,0.0012839362025260925,0.4897381477057934,,956.5638962648809,test,1,,,,,,,954.0796818546951,954.5767967328429,954.5767967328429,954.5934439525008,954.9276749454439,955.4278817027807,955.5765668414533,956.5829293988645,left,1,0.6228668615221977,0.35,,,,,,,,,,,s014,001,2024-07-22_14h02.28.328,simplestop_skeleton,2022.2.2,59.53050165985886,
None,None,,,,,,,,,0,0,0,0,9,2,38,3,,,,,,,,,956.5643298476934,stop,circleblack.png,left,0.35,,,,,,,,,,,,,,,,,,0.0015949495136737823,0.48972678929567337,0.8404033333063126,959.0660095438361,test,1,,,,,,,956.5829293988645,957.0798403732479,957.0798403732479,957.0968800969422,957.4300834983587,957.9308656267822,958.0807767249644,959.083269353956,None,0,,0.4,,,,,,,,,,,s014,001,2024-07-22_14h02.28.328,simplestop_skeleton,2022.2.2,59.53050165985886,
$currentCorrectResponse,$currentGoStim,,,,,,,,,0,0,0,0,9,3,39,0,,,,,,,,,959.0664573535323,go,circleblack.png,left,0.4,,,,,,,,,,,,,,,,,,0.001326579600572586,0.48998720198869705,,961.5691666156054,test,1,,,,,,,959.083269353956,959.5824912972748,959.5824912972748,959.5824912972748,959.9829416200519,960.4820241369307,960.5821302123368,961.593461073935,left,1,0.5219349563121796,0.4,,,,,,,,,,,s014,001,2024-07-22_14h02.28.328,simplestop_skeleton,2022.2.2,59.53050165985886,
None,None,,,,,,,,,0,0,0,0,10,0,40,1,,,,,,,,,961.5695971250534,go,squareblack.png,right,0.4,,,,,,,,,,,,,,,,,,0.007570076733827591,0.48996319621801376,,964.0719788260758,test,1,,,,,,,961.593461073935,962.0853925868869,962.0853925868869,962.102188307792,962.4857534915209,963.0014751292765,963.0854522883892,964.0915029421449,right,1,0.37108734250068665,0.4,,,,,,,,,,,s014,001,2024-07-22_14h02.28.328,simplestop_skeleton,2022.2.2,59.53050165985886,
None,None,,,,,,,,,0,0,0,0,10,1,41,1,,,,,,,,,964.0724068395793,stop,circleblack.png,left,0.4,,,,,,,,,,,,,,,,,,0.0018803179264068604,0.48952293768525124,0.890221331268549,966.574811745435,test,1,,,,,,,964.0915029421449,964.5879979655147,964.5879979655147,964.6048802398145,964.9884371869266,965.4875975437462,965.5884887166321,966.5939649753273,left,1,0.4248546101152897,0.35,,,,,,,,,,,s014,001,2024-07-22_14h02.28.328,simplestop_skeleton,2022.2.2,59.53050165985886,
None,None,,,,,,,,,0,0,0,0,10,2,42,1,,,,,,,,,966.5752684883773,go,squareblack.png,right,0.35,,,,,,,,,,,,,,,,,,0.0016837604343891144,0.48962312191724777,,969.0776057653129,test,1,,,,,,,966.5939649753273,967.0908795110881,967.0908795110881,967.1076112575829,967.4413739554584,967.956952817738,968.0904258601367,969.0965703241527,right,1,0.4425122067332268,0.35,,,,,,,,,,,s014,001,2024-07-22_14h02.28.328,simplestop_skeleton,2022.2.2,59.53050165985886,
None,None,,,,,,,,,0,0,0,0,10,3,43,1,,,,,,,,,969.0780578441918,stop,squareblack.png,right,0.35,,,,,,,,,,,,,,,,,,0.0013107247650623322,0.48975885286927223,0.8397503420710564,971.5804325081408,test,1,,,,,,,969.0965703241527,969.5935352370143,969.5935352370143,969.6101534850895,969.9443138130009,970.444380979985,970.5946199968457,971.5998568870127,None,0,,0.4,,,,,,,,,,,s014,001,2024-07-22_14h02.28.328,simplestop_skeleton,2022.2.2,59.53050165985886,
None,None,,,,,,,,,0,0,0,0,11,0,44,1,,,,,,,,,971.5809403806925,go,circleblack.png,left,0.4,,,,,,,,,,,,,,,,,,0.0019769296050071716,0.48933102935552597,,974.0829048790038,test,1,,,,,,,971.5998568870127,972.0965458713472,972.0965458713472,972.1128867864609,972.4968864545226,973.0124190598726,973.0960231535137,974.1024681739509,left,1,0.5009940564632416,0.4,,,,,,,,,,,s014,001,2024-07-22_14h02.28.328,simplestop_skeleton,2022.2.2,59.53050165985886,
$currentCorrectResponse,$currentGoStim,,,,,,,,,0,0,0,0,11,1,45,0,,,,,,,,,974.0833672061563,go,squareblack.png,right,0.4,,,,,,,,,,,,,,,,,,0.0017548613250255585,0.48946886509656906,,976.5852538384497,test,1,,,,,,,974.1024681739509,974.5989908464253,974.5989908464253,974.615689534694,974.999220635742,975.4991892986,975.6006440594792,976.6039906926453,right,1,0.5176929794251919,0.4,,,,,,,,,,,s014,001,2024-07-22_14h02.28.328,simplestop_skeleton,2022.2.2,59.53050165985886,
None,None,,,,,,,,,0,0,0,0,11,2,46,3,,,,,,,,,976.5856930874288,stop,squareblack.png,right,0.4,,,,,,,,,,,,,,,,,,0.0012619197368621826,0.49024785310029984,0.8908957801759243,979.0887357182801,test,1,,,,,,,976.6039906926453,977.1018976457417,977.1018976457417,977.1186625771224,977.5024377442896,978.0028036870062,978.1028948761523,979.1077537424862,None,0,,0.45,,,,,,,,,,,s014,001,2024-07-22_14h02.28.328,simplestop_skeleton,2022.2.2,59.53050165985886,
$currentCorrectResponse,$currentGoStim,,,,,,,,,0,0,0,0,11,3,47,0,,,,,,,,,979.0891784057021,go,squareblack.png,right,0.45,,,,,,,,,,,,,,,,,,0.001276109367609024,0.48964356631040573,,981.5912381075323,test,1,,,,,,,979.1077537424862,979.6045554541051,979.6045554541051,979.621250230819,980.0551414787769,980.5542600415647,980.6042310073972,981.6149769723415,right,1,0.6555908061563969,0.45,,,,,,,,,,,s014,001,2024-07-22_14h02.28.328,simplestop_skeleton,2022.2.2,59.53050165985886,
,,,,,,,,,,0,0,0,0,,,,,,"[{'fileName': 'circleblack.png', 'correct_response': 'left', 'condition': 'go'}, {'fileName': 'circleblack.png', 'correct_response': 'left', 'condition': 'stop'}, {'fileName': 'circleblack.png', 'correct_response': 'left', 'condition': 'go'}, {'fileName': 'squareblack.png', 'correct_response': 'right', 'condition': 'go'}, {'fileName': 'circleblack.png', 'correct_response': 'left', 'condition': 'go'}, {'fileName': 'circleblack.png', 'correct_response': 'left', 'condition': 'stop'}, {'fileName': 'squareblack.png', 'correct_response': 'right', 'condition': 'go'}, {'fileName': 'squareblack.png', 'correct_response': 'right', 'condition': 'stop'}, {'fileName': 'squareblack.png', 'correct_response': 'right', 'condition': 'go'}, {'fileName': 'squareblack.png', 'correct_response': 'right', 'condition': 'stop'}, {'fileName': 'squareblack.png', 'correct_response': 'right', 'condition': 'go'}, {'fileName': 'circleblack.png', 'correct_response': 'left', 'condition': 'go'}, {'fileName': 'circleblack.png', 'correct_response': 'left', 'condition': 'go'}, {'fileName': 'circleblack.png', 'correct_response': 'left', 'condition': 'go'}, {'fileName': 'circleblack.png', 'correct_response': 'left', 'condition': 'stop'}, {'fileName': 'squareblack.png', 'correct_response': 'right', 'condition': 'stop'}, {'fileName': 'circleblack.png', 'correct_response': 'left', 'condition': 'go'}, {'fileName': 'circleblack.png', 'correct_response': 'left', 'condition': 'stop'}, {'fileName': 'squareblack.png', 'correct_response': 'right', 'condition': 'go'}, {'fileName': 'squareblack.png', 'correct_response': 'right', 'condition': 'go'}, {'fileName': 'squareblack.png', 'correct_response': 'right', 'condition': 'go'}, {'fileName': 'circleblack.png', 'correct_response': 'left', 'condition': 'go'}, {'fileName': 'squareblack.png', 'correct_response': 'right', 'condition': 'stop'}, {'fileName': 'squareblack.png', 'correct_response': 'right', 'condition': 'go'}, {'fileName': 'circleblack.png', 'correct_response': 'left', 'condition': 'go'}, {'fileName': 'circleblack.png', 'correct_response': 'left', 'condition': 'go'}, {'fileName': 'squareblack.png', 'correct_response': 'right', 'condition': 'go'}, {'fileName': 'circleblack.png', 'correct_response': 'left', 'condition': 'go'}, {'fileName': 'squareblack.png', 'correct_response': 'right', 'condition': 'go'}, {'fileName': 'circleblack.png', 'correct_response': 'left', 'condition': 'stop'}, {'fileName': 'squareblack.png', 'correct_response': 'right', 'condition': 'stop'}, {'fileName': 'circleblack.png', 'correct_response': 'left', 'condition': 'stop'}, {'fileName': 'squareblack.png', 'correct_response': 'right', 'condition': 'go'}, {'fileName': 'squareblack.png', 'correct_response': 'right', 'condition': 'go'}, {'fileName': 'circleblack.png', 'correct_response': 'left', 'condition': 'go'}, {'fileName': 'squareblack.png', 'correct_response': 'right', 'condition': 'stop'}, {'fileName': 'circleblack.png', 'correct_response': 'left', 'condition': 'go'}, {'fileName': 'circleblack.png', 'correct_response': 'left', 'condition': 'go'}, {'fileName': 'squareblack.png', 'correct_response': 'right', 'condition': 'go'}, {'fileName': 'squareblack.png', 'correct_response': 'right', 'condition': 'go'}, {'fileName': 'squareblack.png', 'correct_response': 'right', 'condition': 'go'}, {'fileName': 'circleblack.png', 'correct_response': 'left', 'condition': 'go'}, {'fileName': 'squareblack.png', 'correct_response': 'right', 'condition': 'go'}, {'fileName': 'circleblack.png', 'correct_response': 'left', 'condition': 'stop'}, {'fileName': 'squareblack.png', 'correct_response': 'right', 'condition': 'stop'}, {'fileName': 'circleblack.png', 'correct_response': 'left', 'condition': 'go'}, {'fileName': 'circleblack.png', 'correct_response': 'left', 'condition': 'stop'}, {'fileName': 'squareblack.png', 'correct_response': 'right', 'condition': 'stop'}]",,,,,,,,,,,,,,,,,,,,,,,,,,,,,,,,,,,,,,,,,,,,,,,,,,,,,981.6149769723415,981.6149769723415,return,19.413087759166956,,,,,,,s014,001,2024-07-22_14h02.28.328,simplestop_skeleton,2022.2.2,59.53050165985886,
None,None,,,,,,,,,1,0,1,0,0,0,0,1,,,,,,,,,1001.0463505014777,go,circleblack.png,left,0.45,,,,,,,,,,,,,,,,,,0.002017434686422348,0.48894307762384415,,1003.5489915087819,test,2,,,,,,,1001.0664771869779,1001.5622448399663,1001.5622448399663,1001.5788680426776,1002.0125430040061,1002.51317499578,1002.563324060291,1003.5684827230871,right,0,0.5395931713283062,0.45,,,,,,,,,,,s014,001,2024-07-22_14h02.28.328,simplestop_skeleton,2022.2.2,59.53050165985886,
None,None,,,,,,,,,1,0,1,0,0,1,1,1,,,,,,,,,1003.5495335832238,stop,circleblack.png,left,0.45,,,,,,,,,,,,,,,,,,0.0014651119709014893,0.4893318600952625,0.939851276576519,1006.0519671589136,test,2,,,,,,,1003.5684827230871,1004.0646788626909,1004.0646788626909,1004.0814870968461,1004.5154144950211,1005.0310552306473,1005.0645923875272,1006.0709098391235,left,1,0.6087907999753952,0.4,,,,,,,,,,,s014,001,2024-07-22_14h02.28.328,simplestop_skeleton,2022.2.2,59.53050165985886,
None,None,,,,,,,,,1,0,1,0,0,2,2,2,,,,,,,,,1006.0524087063968,go,circleblack.png,left,0.4,,,,,,,,,,,,,,,,,,0.0013987049460411072,0.4879191927611828,,1008.5544988289475,test,2,,,,,,,1006.0709098391235,1006.5661943182349,1006.5661943182349,1006.5829101577401,1006.966563295573,1007.4685388542712,1007.5686019212008,1008.5787682458758,left,1,0.638056356459856,0.4,,,,,,,,,,,s014,001,2024-07-22_14h02.28.328,simplestop_skeleton,2022.2.2,59.53050165985886,
None,None,,,,,,,,,1,0,1,0,0,3,3,3,,,,,,,,,1008.5549372509122,go,squareblack.png,right,0.4,,,,,,,,,,,,,,,,,,0.0071311891078948975,0.48808642849326134,,1011.0571480281651,test,2,,,,,,,1008.5787682458758,1009.0689530260861,1009.0689530260861,1009.085664100945,1009.4694115407765,1009.9705456979573,1010.0714753605425,1011.076699398458,right,1,0.5530023351311684,0.4,,,,,,,,,,,s014,001,2024-07-22_14h02.28.328,simplestop_skeleton,2022.2.2,59.53050165985886,
None,None,,,,,,,,,1,0,1,0,1,0,4,2,,,,,,,,,1011.0575891397893,go,circleblack.png,left,0.4,,,,,,,,,,,,,,,,,,0.001854289323091507,0.4894910603761673,,1013.5597875118256,test,2,,,,,,,1011.076699398458,1011.5729926936328,1011.5729926936328,1011.5898984409869,1011.9722282961011,1012.473214045167,1012.573322493583,1013.5786751098931,left,1,0.5238883309066296,0.4,,,,,,,,,,,s014,001,2024-07-22_14h02.28.328,simplestop_skeleton,2022.2.2,59.53050165985886,
None,None,,,,,,,,,1,0,1,0,1,1,5,2,,,,,,,,,1013.5602187775075,stop,circleblack.png,left,0.4,,,,,,,,,,,,,,,,,,0.0012732334434986115,0.4898159094154835,0.890197642147541,1016.0626394450665,test,2,,,,,,,1013.5786751098931,1014.0759825929999,1014.0759825929999,1014.0927397757769,1014.4763603135943,1014.9767792597413,1015.0768316686153,1016.0818114355206,None,0,,0.45,,,,,,,,,,,s014,001,2024-07-22_14h02.28.328,simplestop_skeleton,2022.2.2,59.53050165985886,
None,None,,,,,,,,,1,0,1,0,1,2,6,3,,,,,,,,,1016.0630902610719,go,squareblack.png,right,0.45,,,,,,,,,,,,,,,,,,0.0016955137252807617,0.48988911882042885,,1018.5654740147293,test,2,,,,,,,1016.0818114355206,1016.5786268636584,1016.5786268636584,1016.5954082421958,1017.0292641893029,1017.5285337157547,1017.5783905871212,1018.5845322981477,right,1,0.6561044529080391,0.45,,,,,,,,,,,s014,001,2024-07-22_14h02.28.328,simplestop_skeleton,2022.2.2,59.53050165985886,
None,None,,,,,,,,,1,0,1,0,1,3,7,1,,,,,,,,,1018.565925668925,stop,squareblack.png,right,0.45,,,,,,,,,,,,,,,,,,0.0013928674161434174,0.4897669367492199,0.9400454014539719,1021.0683866254985,test,2,,,,,,,1018.5845322981477,1019.0817451663315,1019.0817451663315,1019.0982389785349,1019.5318905673921,1020.0327452160418,1020.0825089663267,1021.087286144495,None,0,,0.5,,,,,,,,,,,s014,001,2024-07-22_14h02.28.328,simplestop_skeleton,2022.2.2,59.53050165985886,
$currentCorrectResponse,$currentGoStim,,,,,,,,,1,0,1,0,2,0,8,0,,,,,,,,,1021.0688336789608,go,squareblack.png,right,0.5,,,,,,,,,,,,,,,,,,0.0013135336339473724,0.48921332880854607,,1023.5708726942539,test,2,,,,,,,1021.087286144495,1021.58412951231,1021.58412951231,1021.6010437943041,1022.0846674330533,1022.5837571397424,1022.5837571397424,1023.5898226574063,right,1,0.600496482104063,0.5,,,,,,,,,,,s014,001,2024-07-22_14h02.28.328,simplestop_skeleton,2022.2.2,59.53050165985886,
None,None,,,,,,,,,1,0,1,0,2,1,9,1,,,,,,,,,1023.5713028684258,stop,squareblack.png,right,0.5,,,,,,,,,,,,,,,,,,0.001257035881280899,0.4896365664899349,0.990117434412241,1026.0737672485411,test,2,,,,,,,1023.5898226574063,1024.086786620319,1024.086786620319,1024.1035494990647,1024.5879981033504,1025.1032244823873,1025.0865142084658,1026.0927142128348,right,1,0.489441093057394,0.45,,,,,,,,,,,s014,001,2024-07-22_14h02.28.328,simplestop_skeleton,2022.2.2,59.53050165985886,
None,None,,,,,,,,,1,0,1,0,2,2,10,3,,,,,,,,,1026.0742086693645,go,squareblack.png,right,0.45,,,,,,,,,,,,,,,,,,0.001287173479795456,0.48979609087109566,,1028.5757591314614,test,2,,,,,,,1026.0927142128348,1026.589683957398,1026.589683957398,1026.6062721796334,1027.0401261299849,1027.5395408906043,1027.5893286429346,1028.6011647209525,right,1,0.6561578065156937,0.45,,,,,,,,,,,s014,001,2024-07-22_14h02.28.328,simplestop_skeleton,2022.2.2,59.53050165985886,
None,None,,,,,,,,,1,0,1,0,2,3,11,2,,,,,,,,,1028.576196886599,go,circleblack.png,left,0.45,,,,,,,,,,,,,,,,,,0.008097946643829346,0.4901772476732731,,1031.079030368477,test,2,,,,,,,1028.6011647209525,1029.0926504470408,1029.0926504470408,1029.1092431545258,1029.5415717586875,1030.04296477139,1030.0928461328149,1031.0981085039675,left,1,0.5766166187822819,0.45,,,,,,,,,,,s014,001,2024-07-22_14h02.28.328,simplestop_skeleton,2022.2.2,59.53050165985886,
$currentCorrectResponse,$currentGoStim,,,,,,,,,1,0,1,0,3,0,12,0,,,,,,,,,1031.0794566720724,go,circleblack.png,left,0.45,,,,,,,,,,,,,,,,,,0.001305658370256424,0.4896674379706383,,1033.5811338759959,test,2,,,,,,,1031.0981085039675,1031.5952123515308,1031.5952123515308,1031.6118327714503,1032.0456367209554,1032.5448548011482,1032.5948611833155,1033.6000894084573,left,1,0.6242732927203178,0.45,,,,,,,,,,,s014,001,2024-07-22_14h02.28.328,simplestop_skeleton,2022.2.2,59.53050165985886,
None,None,,,,,,,,,1,0,1,0,3,1,13,2,,,,,,,,,1033.581565503031,go,circleblack.png,left,0.45,,,,,,,,,,,,,,,,,,0.0012590251863002777,0.4902609512209892,,1036.0847694687545,test,2,,,,,,,1033.6000894084573,1034.0979592725635,1034.0979592725635,1034.1147137731314,1034.5485776141286,1035.0643037557602,1035.0976089797914,1036.1036434210837,left,1,0.564685445278883,0.45,,,,,,,,,,,s014,001,2024-07-22_14h02.28.328,simplestop_skeleton,2022.2.2,59.53050165985886,
$currentCorrectResponse,$currentGoStim,,,,,,,,,1,0,1,0,3,2,14,0,,,,,,,,,1036.085207015276,stop,circleblack.png,left,0.45,,,,,,,,,,,,,,,,,,0.0013847872614860535,0.4897249676287174,0.9405758455395699,1038.5876070857048,test,2,,,,,,,1036.1036434210837,1036.6008110009134,1036.6008110009134,1036.617612902075,1037.0513891912997,1037.5670327804983,1037.6005960516632,1038.6124472729862,left,1,0.5759419873356819,0.4,,,,,,,,,,,s014,001,2024-07-22_14h02.28.328,simplestop_skeleton,2022.2.2,59.53050165985886,
None,None,,,,,,,,,1,0,1,0,3,3,15,2,,,,,,,,,1038.588030450046,stop,squareblack.png,right,0.4,,,,,,,,,,,,,,,,,,0.007831618189811707,0.5451643690466881,0.8899029903113842,1041.1781857348979,test,2,,,,,,,1038.6124472729862,1039.1478284709156,1039.1478284709156,1039.1478284709156,1039.5039786025882,1040.004736367613,1040.1548325307667,1041.198405329138,None,0,,0.45,,,,,,,,,,,s014,001,2024-07-22_14h02.28.328,simplestop_skeleton,2022.2.2,59.53050165985886,
None,None,,,,,,,,,1,0,1,0,4,0,16,2,,,,,,,,,1041.178893018514,go,circleblack.png,left,0.45,,,,,,,,,,,,,,,,,,0.002181306481361389,0.49755603820085526,,1043.6931224279106,test,2,,,,,,,1041.198405329138,1041.7049581632018,1041.7049581632018,1041.7049581632018,1042.1556354500353,1042.6558982208371,1042.706022746861,1043.712266817689,left,1,0.6008739732205868,0.45,,,,,,,,,,,s014,001,2024-07-22_14h02.28.328,simplestop_skeleton,2022.2.2,59.53050165985886,
None,None,,,,,,,,,1,0,1,0,4,1,17,3,,,,,,,,,1043.6935545764863,stop,circleblack.png,left,0.45,,,,,,,,,,,,,,,,,,0.00146571546792984,0.48995667323470116,0.9404107332229614,1046.1970972009003,test,2,,,,,,,1043.712266817689,1044.2091868296266,1044.2091868296266,1044.2258786559105,1044.659459605813,1045.1587988473475,1045.2089990973473,1046.2174098715186,left,1,0.5477626100182533,0.4,,,,,,,,,,,s014,001,2024-07-22_14h02.28.328,simplestop_skeleton,2022.2.2,59.53050165985886,
None,None,,,,,,,,,1,0,1,0,4,2,18,2,,,,,,,,,1046.1978199779987,go,squareblack.png,right,0.4,,,,,,,,,,,,,,,,,,0.0025882162153720856,0.48766202852129936,,1048.6997672095895,test,2,,,,,,,1046.2174098715186,1046.7120431624353,1046.7120431624353,1046.7287232279778,1047.1124514266849,1047.612858761102,1047.7118127420545,1048.717336639762,right,1,0.7015879638493061,0.4,,,,,,,,,,,s014,001,2024-07-22_14h02.28.328,simplestop_skeleton,2022.2.2,59.53050165985886,
$currentCorrectResponse,$currentGoStim,,,,,,,,,1,0,1,0,4,3,19,0,,,,,,,,,1048.7001993916929,go,squareblack.png,right,0.4,,,,,,,,,,,,,,,,,,0.001778721809387207,0.48807454481720924,,1051.2013289295137,test,2,,,,,,,1048.717336639762,1049.2149570770562,1049.2149570770562,1049.2314963676035,1049.6138193272054,1050.115371685475,1050.215753864497,1051.220584411174,right,1,0.567853607237339,0.4,,,,,,,,,,,s014,001,2024-07-22_14h02.28.328,simplestop_skeleton,2022.2.2,59.53050165985886,
None,None,,,,,,,,,1,0,1,0,5,0,20,1,,,,,,,,,1051.2017658092082,go,squareblack.png,right,0.4,,,,,,,,,,,,,,,,,,0.0013624727725982666,0.48971927911043167,,1053.7041889876127,test,2,,,,,,,1051.220584411174,1051.7175234667957,1051.7175234667957,1051.733968384564,1052.1179757006466,1052.617040924728,1052.7172436378896,1053.7289781458676,right,1,0.546240109950304,0.4,,,,,,,,,,,s014,001,2024-07-22_14h02.28.328,simplestop_skeleton,2022.2.2,59.53050165985886,
None,None,,,,,,,,,1,0,1,0,5,1,21,1,,,,,,,,,1053.7046273425221,go,circleblack.png,left,0.4,,,,,,,,,,,,,,,,,,0.0019112937152385712,0.48379918187856674,,1056.2071050144732,test,2,,,,,,,1053.7289781458676,1054.2205264382064,1054.2205264382064,1054.2370618060231,1054.6216508373618,1055.1363554224372,1055.2200205773115,1056.2263610325754,left,1,0.5030283071100712,0.4,,,,,,,,,,,s014,001,2024-07-22_14h02.28.328,simplestop_skeleton,2022.2.2,59.53050165985886,
None,None,,,,,,,,,1,0,1,0,5,2,22,3,,,,,,,,,1056.2075412906706,stop,squareblack.png,right,0.4,,,,,,,,,,,,,,,,,,0.0017567425966262817,0.490056324750185,0.88987210765481,1058.7098319120705,test,2,,,,,,,1056.2263610325754,1056.722975678742,1056.722975678742,1056.7400879636407,1057.123477626592,1057.6225530579686,1057.722629621625,1058.7287025600672,right,1,0.5217796787619591,0.35,,,,,,,,,,,s014,001,2024-07-22_14h02.28.328,simplestop_skeleton,2022.2.2,59.53050165985886,
$currentCorrectResponse,$currentGoStim,,,,,,,,,1,0,1,0,5,3,23,0,,,,,,,,,1058.71026968956,go,squareblack.png,right,0.35,,,,,,,,,,,,,,,,,,0.001345176249742508,0.48951899260282516,,1061.2124666310847,test,2,,,,,,,1058.7287025600672,1059.2260091342032,1059.2260091342032,1059.2426019199193,1059.5760914459825,1060.0767289288342,1060.2254626899958,1061.2320053055882,right,1,0.6055997796356678,0.35,,,,,,,,,,,s014,001,2024-07-22_14h02.28.328,simplestop_skeleton,2022.2.2,59.53050165985886,
None,None,,,,,,,,,1,0,1,0,6,0,24,3,,,,,,,,,1061.212893459946,go,circleblack.png,left,0.35,,,,,,,,,,,,,,,,,,0.00198359414935112,0.4883624501526356,,1063.715163294226,test,2,,,,,,,1061.2320053055882,1061.7287892699242,1061.7287892699242,1061.7447933107615,1062.0788159742951,1062.5792588368058,1062.729523010552,1063.733933430165,left,1,0.5523756444454193,0.35,,,,,,,,,,,s014,001,2024-07-22_14h02.28.328,simplestop_skeleton,2022.2.2,59.53050165985886,
None,None,,,,,,,,,1,0,1,0,6,1,25,1,,,,,,,,,1063.7155975922942,go,circleblack.png,left,0.35,,,,,,,,,,,,,,,,,,0.0013454444706439972,0.4896429590880871,,1066.2179075293243,test,2,,,,,,,1063.733933430165,1064.2313297390938,1064.2313297390938,1064.247940376401,1064.5815980620682,1065.0814078897238,1065.2324510887265,1066.2372908554971,left,1,0.5387282073497772,0.35,,,,,,,,,,,s014,001,2024-07-22_14h02.28.328,simplestop_skeleton,2022.2.2,59.53050165985886,
None,None,,,,,,,,,1,0,1,0,6,2,26,2,,,,,,,,,1066.2183657586575,go,squareblack.png,right,0.35,,,,,,,,,,,,,,,,,,0.0016712583601474762,0.4906439669430256,,1068.7206585668027,test,2,,,,,,,1066.2372908554971,1066.7344361841679,1066.7344361841679,1066.7506821490824,1067.0835693739355,1067.5834328085184,1067.7337938398123,1068.74027049914,right,1,0.5386301651597023,0.35,,,,,,,,,,,s014,001,2024-07-22_14h02.28.328,simplestop_skeleton,2022.2.2,59.53050165985886,
None,None,,,,,,,,,1,0,1,0,6,3,27,1,,,,,,,,,1068.7211007997394,go,circleblack.png,left,0.35,,,,,,,,,,,,,,,,,,0.0018442608416080475,0.4897111803293228,,1071.2235739417374,test,2,,,,,,,1068.74027049914,1069.236880082637,1069.236880082637,1069.2533319480717,1069.587187539786,1070.1028355322778,1070.2365768067539,1071.2423425912857,left,1,0.551278967410326,0.35,,,,,,,,,,,s014,001,2024-07-22_14h02.28.328,simplestop_skeleton,2022.2.2,59.53050165985886,
None,None,,,,,,,,,1,0,1,0,7,0,28,1,,,,,,,,,1071.2240167222917,go,squareblack.png,right,0.35,,,,,,,,,,,,,,,,,,0.0016002543270587921,0.4897053800523281,,1073.7261463329196,test,2,,,,,,,1071.2423425912857,1071.7395025230944,1071.7395025230944,1071.7562860511243,1072.0898617990315,1072.5903476923704,1072.740542564541,1073.7455553673208,right,1,0.5684453397989273,0.35,,,,,,,,,,,s014,001,2024-07-22_14h02.28.328,simplestop_skeleton,2022.2.2,59.53050165985886,
$currentCorrectResponse,$currentGoStim,,,,,,,,,1,0,1,0,7,1,29,0,,,,,,,,,1073.726574793458,stop,circleblack.png,left,0.35,,,,,,,,,,,,,,,,,,0.0017764754593372345,0.4899428077042103,0.8399435468018055,1076.2293654754758,test,2,,,,,,,1073.7455553673208,1074.242545556277,1074.242545556277,1074.2591997012496,1074.592680670321,1075.0933415032923,1075.2434284165502,1076.2490278333426,left,1,0.4746224135160446,0.3,,,,,,,,,,,s014,001,2024-07-22_14h02.28.328,simplestop_skeleton,2022.2.2,59.53050165985886,
$currentCorrectResponse,$currentGoStim,,,,,,,,,1,0,1,0,7,2,30,0,,,,,,,,,1076.229807175696,stop,squareblack.png,right,0.3,,,,,,,,,,,,,,,,,,0.0018647387623786926,0.48940688371658325,0.7904300130903721,1078.7317441664636,test,2,,,,,,,1076.2490278333426,1076.7451723590493,1076.7451723590493,1076.7620008029044,1077.04508991912,1077.546213194728,1077.7448539547622,1078.7520467489958,right,1,0.40219514071941376,0.25,,,,,,,,,,,s014,001,2024-07-22_14h02.28.328,simplestop_skeleton,2022.2.2,59.53050165985886,
None,None,,,,,,,,,1,0,1,0,7,3,31,3,,,,,,,,,1078.732170343399,stop,circleblack.png,left,0.25,,,,,,,,,,,,,,,,,,0.002582155168056488,0.4890921898186207,0.7394685745239258,1081.2343223504722,test,2,,,,,,,1078.7520467489958,1079.2480597756803,1079.2480597756803,1079.2646889351308,1079.498992640525,1079.999085213989,1080.2480478547513,1081.2538506649435,None,0,,0.3,,,,,,,,,,,s014,001,2024-07-22_14h02.28.328,simplestop_skeleton,2022.2.2,59.53050165985886,
$currentCorrectResponse,$currentGoStim,,,,,,,,,1,0,1,0,8,0,32,0,,,,,,,,,1081.2347682490945,go,squareblack.png,right,0.3,,,,,,,,,,,,,,,,,,0.0017396099865436554,0.48981061577796936,,1083.7374028339982,test,2,,,,,,,1081.2538506649435,1081.7508792243898,1081.7508792243898,1081.767309565097,1082.0508090630174,1082.5500131174922,1082.750945534557,1083.7563276030123,right,1,0.4816886745393276,0.3,,,,,,,,,,,s014,001,2024-07-22_14h02.28.328,simplestop_skeleton,2022.2.2,59.53050165985886,
None,None,,,,,,,,,1,0,1,0,8,1,33,3,,,,,,,,,1083.7378529459238,go,squareblack.png,right,0.3,,,,,,,,,,,,,,,,,,0.0013252198696136475,0.48965753987431526,,1086.2399521768093,test,2,,,,,,,1083.7563276030123,1084.2532322257757,1084.2532322257757,1084.2699829638004,1084.553658388555,1085.0541214980185,1085.2544673159719,1086.260711580515,right,1,0.5149075239896774,0.3,,,,,,,,,,,s014,001,2024-07-22_14h02.28.328,simplestop_skeleton,2022.2.2,59.53050165985886,
$currentCorrectResponse,$currentGoStim,,,,,,,,,1,0,1,0,8,2,34,0,,,,,,,,,1086.2404122166336,go,circleblack.png,left,0.3,,,,,,,,,,,,,,,,,,0.002672117203474045,0.4884987287223339,,1088.744241669774,test,2,,,,,,,1086.260711580515,1086.7565955333412,1086.7565955333412,1086.7729081436992,1087.056441552937,1087.5570065937936,1087.7571647688746,1088.767564918846,left,1,0.5320838466286659,0.3,,,,,,,,,,,s014,001,2024-07-22_14h02.28.328,simplestop_skeleton,2022.2.2,59.53050165985886,
None,None,,,,,,,,,1,0,1,0,8,3,35,2,,,,,,,,,1088.7449799664319,stop,squareblack.png,right,0.3,,,,,,,,,,,,,,,,,,0.0017938017845153809,0.4827492721378803,0.7829807549715042,1091.2458230108023,test,2,,,,,,,1088.767564918846,1089.2578805312514,1089.2578805312514,1089.2741949558258,1089.5577712543309,1090.058368228376,1090.2589767985046,1091.2653439678252,right,1,0.4192637912929058,0.25,,,,,,,,,,,s014,001,2024-07-22_14h02.28.328,simplestop_skeleton,2022.2.2,59.53050165985886,
None,None,,,,,,,,,1,0,1,0,9,0,36,3,,,,,,,,,1091.2462661415339,go,circleblack.png,left,0.25,,,,,,,,,,,,,,,,,,0.0017887577414512634,0.48937105387449265,,1093.7485432438552,test,2,,,,,,,1091.2653439678252,1091.7619081996381,1091.7619081996381,1091.7782700955868,1092.0119809359312,1092.512569539249,1092.7627474442124,1093.7672532647848,left,1,0.5654132924973965,0.25,,,,,,,,,,,s014,001,2024-07-22_14h02.28.328,simplestop_skeleton,2022.2.2,59.53050165985886,
None,None,,,,,,,,,1,0,1,0,9,1,37,3,,,,,,,,,1093.7490319274366,go,circleblack.png,left,0.25,,,,,,,,,,,,,,,,,,0.0014075301587581635,0.48933780938386917,,1096.2512284256518,test,2,,,,,,,1093.7672532647848,1094.2645274624228,1094.2645274624228,1094.2814125046134,1094.514662053436,1095.0150873996317,1095.2654923833907,1096.270382989198,left,1,0.4294842518866062,0.25,,,,,,,,,,,s014,001,2024-07-22_14h02.28.328,simplestop_skeleton,2022.2.2,59.53050165985886,
None,None,,,,,,,,,1,0,1,0,9,2,38,1,,,,,,,,,1096.2516540661454,go,squareblack.png,right,0.25,,,,,,,,,,,,,,,,,,0.0015701912343502045,0.4901273399591446,,1098.7537917904556,test,2,,,,,,,1096.270382989198,1096.7672709226608,1096.7672709226608,1096.783956386149,1097.0175118111074,1097.518116246909,1097.7682878859341,1098.7722728736699,right,1,0.4691641591489315,0.25,,,,,,,,,,,s014,001,2024-07-22_14h02.28.328,simplestop_skeleton,2022.2.2,59.53050165985886,
None,None,,,,,,,,,1,0,1,0,9,3,39,1,,,,,,,,,1098.7542431131005,go,squareblack.png,right,0.25,,,,,,,,,,,,,,,,,,0.0012653917074203491,0.4898451045155525,,1101.2565117664635,test,2,,,,,,,1098.7722728736699,1099.2703329622746,1099.2703329622746,1099.2868112437427,1099.5207132287323,1100.020903043449,1100.2711624987423,1101.2761566452682,right,1,0.561625387519598,0.25,,,,,,,,,,,s014,001,2024-07-22_14h02.28.328,simplestop_skeleton,2022.2.2,59.53050165985886,
None,None,,,,,,,,,1,0,1,0,10,0,40,2,,,,,,,,,1101.2569411545992,go,squareblack.png,right,0.25,,,,,,,,,,,,,,,,,,0.0011966526508331299,0.4884098395705223,,1103.7590795718133,test,2,,,,,,,1101.2761566452682,1101.7712180167437,1101.7712180167437,1101.7878031507134,1102.0214204490185,1102.522972650826,1102.773833695799,1103.7787806205451,right,1,0.4198075942695141,0.25,,,,,,,,,,,s014,001,2024-07-22_14h02.28.328,simplestop_skeleton,2022.2.2,59.53050165985886,
None,None,,,,,,,,,1,0,1,0,10,1,41,3,,,,,,,,,1103.7595126479864,go,circleblack.png,left,0.25,,,,,,,,,,,,,,,,,,0.002039138227701187,0.48997199907898903,,1106.262337487191,test,2,,,,,,,1103.7787806205451,1104.2754029855132,1104.2754029855132,1104.2919840477407,1104.5241474620998,1105.0246457234025,1105.276003535837,1106.2817878983915,left,1,0.4520565941929817,0.25,,,,,,,,,,,s014,001,2024-07-22_14h02.28.328,simplestop_skeleton,2022.2.2,59.53050165985886,
$currentCorrectResponse,$currentGoStim,,,,,,,,,1,0,1,0,10,2,42,0,,,,,,,,,1106.2627632506192,go,squareblack.png,right,0.25,,,,,,,,,,,,,,,,,,0.0018477216362953186,0.4894796833395958,,1108.7634095288813,test,2,,,,,,,1106.2817878983915,1106.7781900279224,1106.7781900279224,1106.7952199988067,1107.0286411121488,1107.5291572585702,1107.7792841009796,1108.781011801213,right,1,0.5799044705927372,0.25,,,,,,,,,,,s014,001,2024-07-22_14h02.28.328,simplestop_skeleton,2022.2.2,59.53050165985886,
None,None,,,,,,,,,1,0,1,0,10,3,43,2,,,,,,,,,1108.7638411708176,stop,circleblack.png,left,0.25,,,,,,,,,,,,,,,,,,0.001757163554430008,0.4908219799399376,0.7415206208825111,1111.267990451306,test,2,,,,,,,1108.781011801213,1109.2805077172816,1109.2805077172816,1109.2805077172816,1109.5316985808313,1110.0470632128417,1110.2816471680999,1111.2876065187156,left,1,0.5839993022382259,0.2,,,,,,,,,,,s014,001,2024-07-22_14h02.28.328,simplestop_skeleton,2022.2.2,59.53050165985886,
$currentCorrectResponse,$currentGoStim,,,,,,,,,1,0,1,0,11,0,44,0,,,,,,,,,1111.2684564888477,stop,squareblack.png,right,0.2,,,,,,,,,,,,,,,,,,0.0018506236374378204,0.4892466552555561,0.6894948855042458,1113.770552545786,test,2,,,,,,,1111.2876065187156,1111.7838350199163,1111.7838350199163,1111.8004405796528,1111.9840672835708,1112.4844850189984,1112.784874279052,1113.789852593094,right,1,0.4103982038795948,0.15,,,,,,,,,,,s014,001,2024-07-22_14h02.28.328,simplestop_skeleton,2022.2.2,59.53050165985886,
None,None,,,,,,,,,1,0,1,0,11,1,45,3,,,,,,,,,1113.771005116403,go,circleblack.png,left,0.15,,,,,,,,,,,,,,,,,,0.00185336172580719,0.4899555407464504,,1116.2723834738135,test,2,,,,,,,1113.789852593094,1114.2866126671433,1114.2866126671433,1114.3031250536442,1114.437068182975,1114.936787083745,1115.2877435460687,1116.2902171090245,left,1,0.5858987681567669,0.15,,,,,,,,,,,s014,001,2024-07-22_14h02.28.328,simplestop_skeleton,2022.2.2,59.53050165985886,
None,None,,,,,,,,,1,0,1,0,11,2,46,1,,,,,,,,,1116.2728460542858,stop,circleblack.png,left,0.15,,,,,,,,,,,,,,,,,,0.0013648904860019684,0.48902056366205215,0.639089684933424,1118.7748452723026,test,2,,,,,,,1116.2902171090245,1116.7878451682627,1116.7878451682627,1116.8047542236745,1116.9386044554412,1117.4389536604285,1117.7890164405107,1118.7926401793957,None,0,,0.2,,,,,,,,,,,s014,001,2024-07-22_14h02.28.328,simplestop_skeleton,2022.2.2,59.53050165985886,
$currentCorrectResponse,$currentGoStim,,,,,,,,,1,0,1,0,11,3,47,0,,,,,,,,,1118.7752799876034,stop,squareblack.png,right,0.2,,,,,,,,,,,,,,,,,,0.0016185306012630463,0.4894813671708107,0.6897284053266048,1121.2786621525884,test,2,,,,,,,1118.7926401793957,1119.2909420877695,1119.2909420877695,1119.3074987903237,1119.49115582183,1119.9915703572333,1120.2920828536153,1121.2952790893614,None,0,,0.25,,,,,,,,,,,s014,001,2024-07-22_14h02.28.328,simplestop_skeleton,2022.2.2,59.53050165985886,
,,,,,,,,,,1,0,1,0,,,,,,,,,,,,,,,,,,,,,,,,,,,,,,,,,,,,,,,,,,,,,,,,,,,,,,,,,,,1121.2952790893614,1121.2952790893614,return,4.706347748637199,"[{'fileName': 'squareblack.png', 'correct_response': 'right', 'condition': 'go'}, {'fileName': 'squareblack.png', 'correct_response': 'right', 'condition': 'stop'}, {'fileName': 'circleblack.png', 'correct_response': 'left', 'condition': 'stop'}, {'fileName': 'squareblack.png', 'correct_response': 'right', 'condition': 'go'}, {'fileName': 'circleblack.png', 'correct_response': 'left', 'condition': 'go'}, {'fileName': 'circleblack.png', 'correct_response': 'left', 'condition': 'stop'}, {'fileName': 'circleblack.png', 'correct_response': 'left', 'condition': 'go'}, {'fileName': 'squareblack.png', 'correct_response': 'right', 'condition': 'go'}, {'fileName': 'squareblack.png', 'correct_response': 'right', 'condition': 'stop'}, {'fileName': 'circleblack.png', 'correct_response': 'left', 'condition': 'go'}, {'fileName': 'circleblack.png', 'correct_response': 'left', 'condition': 'go'}, {'fileName': 'squareblack.png', 'correct_response': 'right', 'condition': 'go'}, {'fileName': 'circleblack.png', 'correct_response': 'left', 'condition': 'go'}, {'fileName': 'squareblack.png', 'correct_response': 'right', 'condition': 'go'}, {'fileName': 'circleblack.png', 'correct_response': 'left', 'condition': 'go'}, {'fileName': 'circleblack.png', 'correct_response': 'left', 'condition': 'go'}, {'fileName': 'circleblack.png', 'correct_response': 'left', 'condition': 'stop'}, {'fileName': 'circleblack.png', 'correct_response': 'left', 'condition': 'go'}, {'fileName': 'squareblack.png', 'correct_response': 'right', 'condition': 'go'}, {'fileName': 'squareblack.png', 'correct_response': 'right', 'condition': 'stop'}, {'fileName': 'squareblack.png', 'correct_response': 'right', 'condition': 'go'}, {'fileName': 'circleblack.png', 'correct_response': 'left', 'condition': 'stop'}, {'fileName': 'squareblack.png', 'correct_response': 'right', 'condition': 'go'}, {'fileName': 'squareblack.png', 'correct_response': 'right', 'condition': 'stop'}, {'fileName': 'squareblack.png', 'correct_response': 'right', 'condition': 'stop'}, {'fileName': 'squareblack.png', 'correct_response': 'right', 'condition': 'go'}, {'fileName': 'circleblack.png', 'correct_response': 'left', 'condition': 'go'}, {'fileName': 'circleblack.png', 'correct_response': 'left', 'condition': 'stop'}, {'fileName': 'squareblack.png', 'correct_response': 'right', 'condition': 'go'}, {'fileName': 'squareblack.png', 'correct_response': 'right', 'condition': 'stop'}, {'fileName': 'circleblack.png', 'correct_response': 'left', 'condition': 'go'}, {'fileName': 'squareblack.png', 'correct_response': 'right', 'condition': 'go'}, {'fileName': 'circleblack.png', 'correct_response': 'left', 'condition': 'go'}, {'fileName': 'circleblack.png', 'correct_response': 'left', 'condition': 'go'}, {'fileName': 'circleblack.png', 'correct_response': 'left', 'condition': 'stop'}, {'fileName': 'squareblack.png', 'correct_response': 'right', 'condition': 'go'}, {'fileName': 'squareblack.png', 'correct_response': 'right', 'condition': 'go'}, {'fileName': 'squareblack.png', 'correct_response': 'right', 'condition': 'go'}, {'fileName': 'squareblack.png', 'correct_response': 'right', 'condition': 'stop'}, {'fileName': 'circleblack.png', 'correct_response': 'left', 'condition': 'go'}, {'fileName': 'squareblack.png', 'correct_response': 'right', 'condition': 'go'}, {'fileName': 'squareblack.png', 'correct_response': 'right', 'condition': 'stop'}, {'fileName': 'circleblack.png', 'correct_response': 'left', 'condition': 'go'}, {'fileName': 'circleblack.png', 'correct_response': 'left', 'condition': 'go'}, {'fileName': 'circleblack.png', 'correct_response': 'left', 'condition': 'stop'}, {'fileName': 'circleblack.png', 'correct_response': 'left', 'condition': 'stop'}, {'fileName': 'circleblack.png', 'correct_response': 'left', 'condition': 'go'}, {'fileName': 'squareblack.png', 'correct_response': 'right', 'condition': 'go'}]",,,,,,s014,001,2024-07-22_14h02.28.328,simplestop_skeleton,2022.2.2,59.53050165985886,
None,None,,,,,,,,,2,0,2,0,0,0,0,1,,,,,,,,,1126.0276782549918,go,squareblack.png,right,0.25,,,,,,,,,,,,,,,,,,0.0012437738478183746,0.4953247494995594,,1128.5355906002223,test,3,,,,,,,1126.047743089497,1126.5498936288059,1126.5498936288059,1126.5498936288059,1126.8002595938742,1127.3010768555105,1127.5509629920125,1128.5525550730526,right,1,0.5037893727421761,0.25,,,,,,,,,,,s014,001,2024-07-22_14h02.28.328,simplestop_skeleton,2022.2.2,59.53050165985886,
$currentCorrectResponse,$currentGoStim,,,,,,,,,2,0,2,0,0,1,1,0,,,,,,,,,1128.5361629985273,stop,squareblack.png,right,0.25,,,,,,,,,,,,,,,,,,0.0011715665459632874,0.4892946891486645,0.7393407970666885,1131.0398902446032,test,3,,,,,,,1128.5525550730526,1129.051388323307,1129.051388323307,1129.0679292790592,1129.3018378466368,1129.802161384374,1130.0524629540741,1131.0646379180253,None,0,,0.3,,,,,,,,,,,s014,001,2024-07-22_14h02.28.328,simplestop_skeleton,2022.2.2,59.53050165985886,
None,None,,,,,,,,,2,0,2,0,0,2,2,2,,,,,,,,,1131.0403149910271,stop,circleblack.png,left,0.3,,,,,,,,,,,,,,,,,,0.007806386798620224,0.48972640559077263,0.7880242802202702,1133.5419778712094,test,3,,,,,,,1131.0646379180253,1131.5559774450958,1131.5559774450958,1131.5721919946373,1131.85429308936,1132.3548577576876,1132.5560772493482,1133.5615795366466,None,0,,0.35,,,,,,,,,,,s014,001,2024-07-22_14h02.28.328,simplestop_skeleton,2022.2.2,59.53050165985886,
None,None,,,,,,,,,2,0,2,0,0,3,3,2,,,,,,,,,1133.5424183569849,go,squareblack.png,right,0.35,,,,,,,,,,,,,,,,,,0.001825038343667984,0.48944230377674103,,1136.0448703728616,test,3,,,,,,,1133.5615795366466,1134.0583776384592,1134.0583776384592,1134.0749594904482,1134.4085261188447,1134.9091292768717,1135.0593444779515,1136.0644390769303,right,1,0.685107845813036,0.35,,,,,,,,,,,s014,001,2024-07-22_14h02.28.328,simplestop_skeleton,2022.2.2,59.53050165985886,
$currentCorrectResponse,$currentGoStim,,,,,,,,,2,0,2,0,1,0,4,0,,,,,,,,,1136.0452944040298,go,circleblack.png,left,0.35,,,,,,,,,,,,,,,,,,0.0017932392656803131,0.4895115792751312,,1138.5464636310935,test,3,,,,,,,1136.0644390769303,1136.5609715543687,1136.5609715543687,1136.5774975270033,1136.911544341594,1137.4120373651385,1137.5621270351112,1138.566736984998,left,1,0.759066142141819,0.35,,,,,,,,,,,s014,001,2024-07-22_14h02.28.328,simplestop_skeleton,2022.2.2,59.53050165985886,
None,None,,,,,,,,,2,0,2,0,1,1,5,3,,,,,,,,,1138.5469069220126,stop,circleblack.png,left,0.35,,,,,,,,,,,,,,,,,,0.0019826740026474,0.48912184685468674,0.84080009162426,1141.0509143732488,test,3,,,,,,,1138.566736984998,1139.0627867877483,1139.0627867877483,1139.0798527225852,1139.4146624580026,1139.9134363606572,1140.0634750947356,1141.069952275604,None,0,,0.4,,,,,,,,,,,s014,001,2024-07-22_14h02.28.328,simplestop_skeleton,2022.2.2,59.53050165985886,
None,None,,,,,,,,,2,0,2,0,1,2,6,1,,,,,,,,,1141.051356241107,go,circleblack.png,left,0.4,,,,,,,,,,,,,,,,,,0.0014896728098392487,0.4895312264561653,,1143.553157247603,test,3,,,,,,,1141.069952275604,1141.5667614787817,1141.5667614787817,1141.583254326135,1141.967023588717,1142.4680453762412,1142.5677519068122,1143.57249513641,left,1,0.6281097643077374,0.4,,,,,,,,,,,s014,001,2024-07-22_14h02.28.328,simplestop_skeleton,2022.2.2,59.53050165985886,
None,None,,,,,,,,,2,0,2,0,1,3,7,3,,,,,,,,,1143.55358934775,go,squareblack.png,right,0.4,,,,,,,,,,,,,,,,,,0.001624826341867447,0.48994433507323265,,1146.0563869290054,test,3,,,,,,,1143.57249513641,1144.0695946253836,1144.0695946253836,1144.0860195718706,1144.4697994329035,1144.9707023203373,1145.0704781487584,1146.0755357258022,right,1,0.8356865607202053,0.4,,,,,,,,,,,s014,001,2024-07-22_14h02.28.328,simplestop_skeleton,2022.2.2,59.53050165985886,
None,None,,,,,,,,,2,0,2,0,2,0,8,3,,,,,,,,,1146.0568112172186,stop,squareblack.png,right,0.4,,,,,,,,,,,,,,,,,,0.0013877935707569122,0.48931705579161644,0.8899512924253941,1148.5587069056928,test,3,,,,,,,1146.0755357258022,1146.5722367875278,1146.5722367875278,1146.5893601849675,1146.972444705665,1147.4729103036225,1147.5734154693782,1148.5780597664416,right,1,0.5404859371483326,0.35,,,,,,,,,,,s014,001,2024-07-22_14h02.28.328,simplestop_skeleton,2022.2.2,59.53050165985886,
None,None,,,,,,,,,2,0,2,0,2,1,9,3,,,,,,,,,1148.5591449588537,go,circleblack.png,left,0.35,,,,,,,,,,,,,,,,,,0.001879580318927765,0.48978394642472267,,1151.0615728236735,test,3,,,,,,,1148.5780597664416,1149.07467597723,1149.07467597723,1149.0913769081235,1149.4250589981675,1149.9256498217583,1150.0758479237556,1151.0807723477483,left,1,0.5742955878376961,0.35,,,,,,,,,,,s014,001,2024-07-22_14h02.28.328,simplestop_skeleton,2022.2.2,59.53050165985886,
None,None,,,,,,,,,2,0,2,0,2,2,10,2,,,,,,,,,1151.0620149224997,go,circleblack.png,left,0.35,,,,,,,,,,,,,,,,,,0.0014031752943992615,0.48818887397646904,,1153.5642037577927,test,3,,,,,,,1151.0807723477483,1151.5761134698987,1151.5761134698987,1151.5929164811969,1151.926527697593,1152.427009936422,1152.5773254558444,1153.5835944898427,left,1,0.5612844154238701,0.35,,,,,,,,,,,s014,001,2024-07-22_14h02.28.328,simplestop_skeleton,2022.2.2,59.53050165985886,
None,None,,,,,,,,,2,0,2,0,2,3,11,3,,,,,,,,,1153.5646493658423,go,squareblack.png,right,0.35,,,,,,,,,,,,,,,,,,0.0018244236707687378,0.489674162119627,,1156.0656751804054,test,3,,,,,,,1153.5835944898427,1154.0802485570312,1154.0802485570312,1154.0969965532422,1154.4307135865092,1154.9312040135264,1155.0817222483456,1156.0849221721292,right,1,0.8702099733054638,0.35,,,,,,,,,,,s014,001,2024-07-22_14h02.28.328,simplestop_skeleton,2022.2.2,59.53050165985886,
None,None,,,,,,,,,2,0,2,0,3,0,12,1,,,,,,,,,1156.0661238953471,go,circleblack.png,left,0.35,,,,,,,,,,,,,,,,,,0.0018768273293972015,0.4883473068475723,,1158.569695621729,test,3,,,,,,,1156.0849221721292,1156.5815375186503,1156.5815375186503,1156.598248321563,1156.9322499595582,1157.4335605353117,1157.5843848772347,1158.5889299921691,left,1,0.5955438353121281,0.35,,,,,,,,,,,s014,001,2024-07-22_14h02.28.328,simplestop_skeleton,2022.2.2,59.53050165985886,
$currentCorrectResponse,$currentGoStim,,,,,,,,,2,0,2,0,3,1,13,0,,,,,,,,,1158.5701235234737,go,squareblack.png,right,0.35,,,,,,,,,,,,,,,,,,0.00169309601187706,0.489853598177433,,1161.0725373364985,test,3,,,,,,,1158.5889299921691,1159.085703343153,1159.085703343153,1159.1023973338306,1159.4361762963235,1159.935313295573,1160.085462845862,1161.0919069573283,right,1,0.3597003147006035,0.35,,,,,,,,,,,s014,001,2024-07-22_14h02.28.328,simplestop_skeleton,2022.2.2,59.53050165985886,
None,None,,,,,,,,,2,0,2,0,3,2,14,2,,,,,,,,,1161.0729689486325,go,circleblack.png,left,0.35,,,,,,,,,,,,,,,,,,0.0018947497010231018,0.48833972588181496,,1163.5755109637976,test,3,,,,,,,1161.0919069573283,1161.5870970413089,1161.5870970413089,1161.6037568338215,1161.9377136677504,1162.4387427456677,1162.5891613028944,1163.5945698358119,left,1,0.4171760343015194,0.35,,,,,,,,,,,s014,001,2024-07-22_14h02.28.328,simplestop_skeleton,2022.2.2,59.53050165985886,
None,None,,,,,,,,,2,0,2,0,3,3,15,2,,,,,,,,,1163.575960893184,go,circleblack.png,left,0.35,,,,,,,,,,,,,,,,,,0.0014195255935192108,0.48920508846640587,,1166.0782082788646,test,3,,,,,,,1163.5945698358119,1164.09165276587,1164.09165276587,1164.1081125177443,1164.442255064845,1164.9575639665127,1165.0911850109696,1166.0973451547325,right,0,0.28081226721405983,0.35,,,,,,,,,,,s014,001,2024-07-22_14h02.28.328,simplestop_skeleton,2022.2.2,59.53050165985886,
None,None,,,,,,,,,2,0,2,0,4,0,16,1,,,,,,,,,1166.0786426104605,stop,circleblack.png,left,0.35,,,,,,,,,,,,,,,,,,0.0013845637440681458,0.4881007634103298,0.8384551629424095,1168.580876212567,test,3,,,,,,,1166.0973451547325,1166.5927438922226,1166.5927438922226,1166.6092722937465,1166.9429536797106,1167.444817788899,1167.5946257822216,1168.599944550544,left,1,0.6177964434027672,0.3,,,,,,,,,,,s014,001,2024-07-22_14h02.28.328,simplestop_skeleton,2022.2.2,59.53050165985886,
None,None,,,,,,,,,2,0,2,0,4,1,17,2,,,,,,,,,1168.5813138447702,go,circleblack.png,left,0.3,,,,,,,,,,,,,,,,,,0.00145614892244339,0.48955392464995384,,1171.0833176113665,test,3,,,,,,,1168.599944550544,1169.0968755483627,1169.0968755483627,1169.113664213568,1169.3971079103649,1169.8983526788652,1170.0980939604342,1171.1024820767343,left,1,0.7321934923529625,0.3,,,,,,,,,,,s014,001,2024-07-22_14h02.28.328,simplestop_skeleton,2022.2.2,59.53050165985886,
$currentCorrectResponse,$currentGoStim,,,,,,,,,2,0,2,0,4,2,18,0,,,,,,,,,1171.0837580896914,go,squareblack.png,right,0.3,,,,,,,,,,,,,,,,,,0.004148855805397034,0.48989735543727875,,1173.585762578994,test,3,,,,,,,1171.1024820767343,1171.5997449606657,1171.5997449606657,1171.6161741241813,1171.900529306382,1172.401014894247,1172.5993834361434,1173.6029919609427,left,0,0.7078991606831551,0.3,,,,,,,,,,,s014,001,2024-07-22_14h02.28.328,simplestop_skeleton,2022.2.2,59.53050165985886,
None,None,,,,,,,,,2,0,2,0,4,3,19,3,,,,,,,,,1173.5862010754645,stop,squareblack.png,right,0.3,,,,,,,,,,,,,,,,,,0.0011893510818481445,0.490656990557909,0.7912356816232204,1176.0893768966198,test,3,,,,,,,1173.6029919609427,1174.10263780877,1174.10263780877,1174.10263780877,1174.4030084386468,1174.9028353206813,1175.1038659326732,1176.1084067225456,None,0,,0.35,,,,,,,,,,,s014,001,2024-07-22_14h02.28.328,simplestop_skeleton,2022.2.2,59.53050165985886,
None,None,,,,,,,,,2,0,2,0,5,0,20,3,,,,,,,,,1176.0898228101432,go,squareblack.png,right,0.35,,,,,,,,,,,,,,,,,,0.001318119466304779,0.4895201250910759,,1178.591491997242,test,3,,,,,,,1176.1084067225456,1176.6051667407155,1176.6051667407155,1176.6219914704561,1176.955628953874,1177.456861332059,1177.606489263475,1178.6092517860234,right,1,0.6530738137662411,0.35,,,,,,,,,,,s014,001,2024-07-22_14h02.28.328,simplestop_skeleton,2022.2.2,59.53050165985886,
$currentCorrectResponse,$currentGoStim,,,,,,,,,2,0,2,0,5,1,21,0,,,,,,,,,1178.591930385679,stop,circleblack.png,left,0.35,,,,,,,,,,,,,,,,,,0.001944802701473236,0.4901689141988754,0.8407717645168304,1181.094920154661,test,3,,,,,,,1178.6092517860234,1179.1079035326838,1179.1079035326838,1179.125024843961,1179.4587349705398,1179.9741720855236,1180.1076247766614,1181.1139839179814,left,1,0.3960051015019417,0.3,,,,,,,,,,,s014,001,2024-07-22_14h02.28.328,simplestop_skeleton,2022.2.2,59.53050165985886,
None,None,,,,,,,,,2,0,2,0,5,2,22,2,,,,,,,,,1181.0953428670764,go,squareblack.png,right,0.3,,,,,,,,,,,,,,,,,,0.0016672126948833466,0.4895929992198944,,1183.5976182706654,test,3,,,,,,,1181.1139839179814,1181.6107597015798,1181.6107597015798,1181.6273417584598,1181.9110754616559,1182.4116191118956,1182.6103597283363,1183.6165170185268,right,1,0.542107168585062,0.3,,,,,,,,,,,s014,001,2024-07-22_14h02.28.328,simplestop_skeleton,2022.2.2,59.53050165985886,
None,None,,,,,,,,,2,0,2,0,5,3,23,1,,,,,,,,,1183.5980561450124,stop,squareblack.png,right,0.3,,,,,,,,,,,,,,,,,,0.0013528168201446533,0.48968926444649696,0.7903664261102676,1186.0988838225603,test,3,,,,,,,1183.6165170185268,1184.113437693566,1184.113437693566,1184.1300249397755,1184.4138677418232,1184.9145227596164,1185.1148916445673,1186.115647625178,None,0,,0.35,,,,,,,,,,,s014,001,2024-07-22_14h02.28.328,simplestop_skeleton,2022.2.2,59.53050165985886,
None,None,,,,,,,,,2,0,2,0,6,0,24,3,,,,,,,,,1186.0993278548121,stop,squareblack.png,right,0.35,,,,,,,,,,,,,,,,,,0.0011707544326782227,0.4893995299935341,0.8398748859763145,1188.6028957217932,test,3,,,,,,,1186.115647625178,1186.6149366647005,1186.6149366647005,1186.6314640901983,1186.9651889055967,1187.4664070382714,1187.617236007005,1188.6217316389084,None,0,,0.4,,,,,,,,,,,s014,001,2024-07-22_14h02.28.328,simplestop_skeleton,2022.2.2,59.53050165985886,
None,None,,,,,,,,,2,0,2,0,6,1,25,1,,,,,,,,,1188.6033767648041,go,squareblack.png,right,0.4,,,,,,,,,,,,,,,,,,0.0013238713145256042,0.4895909056067467,,1191.1049817204475,test,3,,,,,,,1188.6217316389084,1189.1189076639712,1189.1189076639712,1189.135708898306,1189.519466523081,1190.020305056125,1190.118610482663,1191.128935765475,right,1,0.7016790173947811,0.4,,,,,,,,,,,s014,001,2024-07-22_14h02.28.328,simplestop_skeleton,2022.2.2,59.53050165985886,
$currentCorrectResponse,$currentGoStim,,,,,,,,,2,0,2,0,6,2,26,0,,,,,,,,,1191.1054128147662,go,circleblack.png,left,0.4,,,,,,,,,,,,,,,,,,0.00835377722978592,0.49006348103284836,,1193.6078669466078,test,3,,,,,,,1191.128935765475,1191.6217088587582,1191.6217088587582,1191.6384002566338,1192.0222150608897,1192.5212380960584,1192.6215137690306,1193.626667946577,left,1,0.5034252032637596,0.4,,,,,,,,,,,s014,001,2024-07-22_14h02.28.328,simplestop_skeleton,2022.2.2,59.53050165985886,
None,None,,,,,,,,,2,0,2,0,6,3,27,1,,,,,,,,,1193.6082975193858,stop,circleblack.png,left,0.4,,,,,,,,,,,,,,,,,,0.0012672767043113708,0.4903364032506943,0.89106210693717,1196.1106366328895,test,3,,,,,,,1193.626667946577,1194.1244360022247,1194.1244360022247,1194.141364056617,1194.525035969913,1195.0241853557527,1195.12429946661,1196.1287055239081,left,1,0.5808364860713482,0.35,,,,,,,,,,,s014,001,2024-07-22_14h02.28.328,simplestop_skeleton,2022.2.2,59.53050165985886,
None,None,,,,,,,,,2,0,2,0,7,0,28,2,,,,,,,,,1196.1110813245177,go,squareblack.png,right,0.35,,,,,,,,,,,,,,,,,,0.00174766406416893,0.4903609901666641,,1198.6140730120242,test,3,,,,,,,1196.1287055239081,1196.6272806040943,1196.6272806040943,1196.6442174352705,1196.977453224361,1197.476697832346,1197.6268896646798,1198.6330546736717,right,1,0.5061132535338402,0.35,,,,,,,,,,,s014,001,2024-07-22_14h02.28.328,simplestop_skeleton,2022.2.2,59.53050165985886,
None,None,,,,,,,,,2,0,2,0,7,1,29,2,,,,,,,,,1198.614538230002,stop,squareblack.png,right,0.35,,,,,,,,,,,,,,,,,,0.0013639852404594421,0.48966384679079056,0.8397899121046066,1201.1166249737144,test,3,,,,,,,1198.6330546736717,1199.1299721486866,1199.1299721486866,1199.1465273685753,1199.4802116788924,1199.9793779365718,1200.1296107582748,1201.1360891759396,right,1,0.4197222478687763,0.3,,,,,,,,,,,s014,001,2024-07-22_14h02.28.328,simplestop_skeleton,2022.2.2,59.53050165985886,
$currentCorrectResponse,$currentGoStim,,,,,,,,,2,0,2,0,7,2,30,0,,,,,,,,,1201.1170692108572,go,circleblack.png,left,0.3,,,,,,,,,,,,,,,,,,0.0019286684691905975,0.48987534642219543,,1203.6189401969314,test,3,,,,,,,1201.1360891759396,1201.632833428681,1201.632833428681,1201.6493919119239,1201.933285370469,1202.4324958398938,1202.6326268985868,1203.6383318677545,left,1,0.5072755068540573,0.3,,,,,,,,,,,s014,001,2024-07-22_14h02.28.328,simplestop_skeleton,2022.2.2,59.53050165985886,
None,None,,,,,,,,,2,0,2,0,7,3,31,3,,,,,,,,,1203.6193683929741,go,squareblack.png,right,0.3,,,,,,,,,,,,,,,,,,0.0017714276909828186,0.4902607835829258,,1206.1219950020313,test,3,,,,,,,1203.6383318677545,1204.1356465145946,1204.1356465145946,1204.1524407491088,1204.4361882992089,1204.9351009353995,1205.1353002861142,1206.1395567692816,right,1,0.5782127305865288,0.3,,,,,,,,,,,s014,001,2024-07-22_14h02.28.328,simplestop_skeleton,2022.2.2,59.53050165985886,
None,None,,,,,,,,,2,0,2,0,8,0,32,3,,,,,,,,,1206.122422479093,go,circleblack.png,left,0.3,,,,,,,,,,,,,,,,,,0.0018174424767494202,0.48989707231521606,,1208.6250072531402,test,3,,,,,,,1206.1395567692816,1206.6383398994803,1206.6383398994803,1206.65509737283,1206.9386352151632,1207.4377150535583,1207.6379125975072,1208.6440104804933,left,1,0.3855807036161423,0.3,,,,,,,,,,,s014,001,2024-07-22_14h02.28.328,simplestop_skeleton,2022.2.2,59.53050165985886,
None,None,,,,,,,,,2,0,2,0,8,1,33,1,,,,,,,,,1208.6254383586347,go,circleblack.png,left,0.3,,,,,,,,,,,,,,,,,,0.0013652965426445007,0.48980091139674187,,1211.1278179138899,test,3,,,,,,,1208.6440104804933,1209.1410970799625,1209.1410970799625,1209.157734580338,1209.441584430635,1209.940507221967,1210.1407234817743,1211.1472162269056,left,1,0.49063899368047714,0.3,,,,,,,,,,,s014,001,2024-07-22_14h02.28.328,simplestop_skeleton,2022.2.2,59.53050165985886,
None,None,,,,,,,,,2,0,2,0,8,2,34,1,,,,,,,,,1211.128252737224,stop,circleblack.png,left,0.3,,,,,,,,,,,,,,,,,,0.001396220177412033,0.4897090867161751,0.790098212659359,1213.6305954642594,test,3,,,,,,,1211.1472162269056,1211.6437210813165,1211.6437210813165,1211.6604451052845,1211.9446241930127,1212.443510632962,1212.6435294114053,1213.6551204510033,None,0,,0.35,,,,,,,,,,,s014,001,2024-07-22_14h02.28.328,simplestop_skeleton,2022.2.2,59.53050165985886,
$currentCorrectResponse,$currentGoStim,,,,,,,,,2,0,2,0,8,3,35,0,,,,,,,,,1213.6311219967902,go,squareblack.png,right,0.35,,,,,,,,,,,,,,,,,,0.007682792842388153,0.4896804392337799,,1216.132625322789,test,3,,,,,,,1213.6551204510033,1214.1468548476696,1214.1468548476696,1214.1634590663016,1214.4972624406219,1214.9978403933346,1215.147810563445,1216.1505069881678,right,1,0.7360086739063263,0.35,,,,,,,,,,,s014,001,2024-07-22_14h02.28.328,simplestop_skeleton,2022.2.2,59.53050165985886,
None,None,,,,,,,,,2,0,2,0,9,0,36,2,,,,,,,,,1216.1330658346415,go,squareblack.png,right,0.35,,,,,,,,,,,,,,,,,,0.0015314482152462006,0.4899860769510269,,1218.636011119932,test,3,,,,,,,1216.1505069881678,1216.6494587622583,1216.6494587622583,1216.6660840325058,1217.0000018328428,1217.5155793242157,1217.6490785256028,1218.654741898179,right,1,0.3963536284863949,0.35,,,,,,,,,,,s014,001,2024-07-22_14h02.28.328,simplestop_skeleton,2022.2.2,59.53050165985886,
None,None,,,,,,,,,2,0,2,0,9,1,37,2,,,,,,,,,1218.636462815106,go,squareblack.png,right,0.35,,,,,,,,,,,,,,,,,,0.0012623034417629242,0.4899710603058338,,1221.1389700435102,test,3,,,,,,,1218.654741898179,1219.1520700380206,1219.1520700380206,1219.1690240725875,1219.502913236618,1220.018368460238,1220.15181235224,1221.1578476428986,right,1,0.40615489706397057,0.35,,,,,,,,,,,s014,001,2024-07-22_14h02.28.328,simplestop_skeleton,2022.2.2,59.53050165985886,
$currentCorrectResponse,$currentGoStim,,,,,,,,,2,0,2,0,9,2,38,0,,,,,,,,,1221.1393987052143,stop,squareblack.png,right,0.35,,,,,,,,,,,,,,,,,,0.001277334988117218,0.4898175410926342,0.8400666937232018,1223.6418781392276,test,3,,,,,,,1221.1578476428986,1221.6553358845413,1221.6553358845413,1221.6714560464025,1222.0053736679256,1222.5211020968854,1222.65462737903,1223.6671708263457,right,1,0.4144374206662178,0.3,,,,,,,,,,,s014,001,2024-07-22_14h02.28.328,simplestop_skeleton,2022.2.2,59.53050165985886,
$currentCorrectResponse,$currentGoStim,,,,,,,,,2,0,2,0,9,3,39,0,,,,,,,,,1223.6423033997416,go,circleblack.png,left,0.3,,,,,,,,,,,,,,,,,,0.00852927565574646,0.4896443150937557,,1226.144494149834,test,3,,,,,,,1223.6671708263457,1224.157842040062,1224.157842040062,1224.1743283458054,1224.4579884186387,1224.9570522606373,1225.1574117466807,1226.1639688573778,left,1,0.43455328419804573,0.3,,,,,,,,,,,s014,001,2024-07-22_14h02.28.328,simplestop_skeleton,2022.2.2,59.53050165985886,
$currentCorrectResponse,$currentGoStim,,,,,,,,,2,0,2,0,10,0,40,0,,,,,,,,,1226.1449875943363,go,squareblack.png,right,0.3,,,,,,,,,,,,,,,,,,0.0017577297985553741,0.4896068125963211,,1228.6471795737743,test,3,,,,,,,1226.1639688573778,1226.6605149060488,1226.6605149060488,1226.677029646933,1226.9607330672443,1227.4598837383091,1227.6603781171143,1228.6660775244236,right,1,0.34143151715397835,0.3,,,,,,,,,,,s014,001,2024-07-22_14h02.28.328,simplestop_skeleton,2022.2.2,59.53050165985886,
None,None,,,,,,,,,2,0,2,0,10,1,41,2,,,,,,,,,1228.6476176045835,stop,squareblack.png,right,0.3,,,,,,,,,,,,,,,,,,0.0012553893029689789,0.48959721997380257,0.7900351360440254,1231.1499581485987,test,3,,,,,,,1228.6660775244236,1229.1633942946792,1229.1633942946792,1229.1800507679582,1229.4635049887002,1229.9641468524933,1230.1642841398716,1231.169441808015,None,0,,0.35,,,,,,,,,,,s014,001,2024-07-22_14h02.28.328,simplestop_skeleton,2022.2.2,59.53050165985886,
None,None,,,,,,,,,2,0,2,0,10,2,42,1,,,,,,,,,1231.1503977179527,go,circleblack.png,left,0.35,,,,,,,,,,,,,,,,,,0.0019834451377391815,0.48955656960606575,,1233.6519217677414,test,3,,,,,,,1231.169441808015,1231.665870822966,1231.665870822966,1231.6828178018332,1232.0162808820605,1232.5174209699035,1232.6655577681959,1233.6693543456495,left,1,0.5357467792928219,0.35,,,,,,,,,,,s014,001,2024-07-22_14h02.28.328,simplestop_skeleton,2022.2.2,59.53050165985886,
None,None,,,,,,,,,2,0,2,0,10,3,43,3,,,,,,,,,1233.6523517370224,go,circleblack.png,left,0.35,,,,,,,,,,,,,,,,,,0.0012615285813808441,0.49093494564294815,,1236.1553381420672,test,3,,,,,,,1233.6693543456495,1234.1692161634564,1234.1692161634564,1234.1692161634564,1234.5175441615283,1235.0181312859058,1235.1849922090769,1236.1743094176054,left,1,0.7243611067533493,0.35,,,,,,,,,,,s014,001,2024-07-22_14h02.28.328,simplestop_skeleton,2022.2.2,59.53050165985886,
None,None,,,,,,,,,2,0,2,0,11,0,44,1,,,,,,,,,1236.1557806059718,stop,circleblack.png,left,0.35,,,,,,,,,,,,,,,,,,0.0013244524598121643,0.4896668791770935,0.8402160368859768,1238.6583619304001,test,3,,,,,,,1236.1743094176054,1236.671509359032,1236.671509359032,1236.6880424693227,1237.0219970047474,1237.5209927931428,1237.6711646430194,1238.6774075366557,None,0,,0.4,,,,,,,,,,,s014,001,2024-07-22_14h02.28.328,simplestop_skeleton,2022.2.2,59.53050165985886,
None,None,,,,,,,,,2,0,2,0,11,1,45,3,,,,,,,,,1238.658789705485,stop,circleblack.png,left,0.4,,,,,,,,,,,,,,,,,,0.0013517215847969055,0.49029144272208214,0.8886692747473717,1241.1612625569105,test,3,,,,,,,1238.6774075366557,1239.174891013652,1239.174891013652,1239.1914200410247,1239.573338765651,1240.0737269893289,1240.190498571843,1241.1815733872354,left,1,0.43911533802747726,0.35,,,,,,,,,,,s014,001,2024-07-22_14h02.28.328,simplestop_skeleton,2022.2.2,59.53050165985886,
None,None,,,,,,,,,2,0,2,0,11,2,46,1,,,,,,,,,1241.16171759367,go,circleblack.png,left,0.35,,,,,,,,,,,,,,,,,,0.001968204975128174,0.48732324317097664,,1243.6637692935765,test,3,,,,,,,1241.1815733872354,1241.6759058572352,1241.6759058572352,1241.6926409751177,1242.025890249759,1242.5263107456267,1242.6765114888549,1243.6878091096878,left,1,0.5638056769967079,0.35,,,,,,,,,,,s014,001,2024-07-22_14h02.28.328,simplestop_skeleton,2022.2.2,59.53050165985886,
$currentCorrectResponse,$currentGoStim,,,,,,,,,2,0,2,0,11,3,47,0,,,,,,,,,1243.6641975156963,go,squareblack.png,right,0.35,,,,,,,,,,,,,,,,,,0.007277358323335648,0.488271351903677,,1246.166360910982,test,3,,,,,,,1243.6878091096878,1244.1781896464527,1244.1781896464527,1244.19490160048,1244.5294306986034,1245.0311314575374,1245.1804469823837,1246.183569636196,right,1,0.5131917037069798,0.35,,,,,,,,,,,s014,001,2024-07-22_14h02.28.328,simplestop_skeleton,2022.2.2,59.53050165985886,
