corrGoResp,shape,practiceBlocks.thisRepN,practiceBlocks.thisTrialN,practiceBlocks.thisN,practiceBlocks.thisIndex,practiceTrials.thisRepN,practiceTrials.thisTrialN,practiceTrials.thisN,practiceTrials.thisIndex,stopBlocks.thisRepN,stopBlocks.thisTrialN,stopBlocks.thisN,stopBlocks.thisIndex,testTrials.thisRepN,testTrials.thisTrialN,testTrials.thisN,testTrials.thisIndex,stopPracTrialList,Test Block: 1,welcome.started,start_exp.started,start_exp.keys,start_exp.rt,instrStopText.started,start_prac.started,StartTrialTimeStamp,trialType,goStim,correctResponse,ssd,fixation.started,rules.started,goStim.started,goResp.started,fixation.stopped,stopSignal.started,stopSignal.stopped,goStim.stopped,goResp.stopped,rules.stopped,goResp.keys,goResp.corr,goResp.rt,text.started,rules_2.started,text.stopped,rules_2.stopped,fixationOnset,goStimOnset,stopSignalOnset,EndTrialTimeStamp,Phase,Block,text_5.started,key_resp_3.started,key_resp_3.keys,key_resp_3.rt,key_resp.started,testText.started,test_fixation.started,test_fixation.stopped,goStim_test.started,goResp_test.started,stopSignal_test.started,goStim_test.stopped,stopSignal_test.stopped,goResp_test.stopped,goResp_test.keys,goResp_test.corr,goResp_test.rt,EndingSSD,text_6.started,key_resp_4.started,key_resp_4.keys,key_resp_4.rt,Test Block: 2,Test Block: 3,ending_text.started,end_resp.started,end_resp.keys,end_resp.rt,participant,session,date,expName,psychopyVersion,frameRate,
,,,,,,,,,,,,,,,,,,"[{'fileName': 'circleblack.png', 'correct_response': 'left', 'condition': 'stop'}, {'fileName': 'circleblack.png', 'correct_response': 'left', 'condition': 'go'}, {'fileName': 'circleblack.png', 'correct_response': 'left', 'condition': 'stop'}, {'fileName': 'squareblack.png', 'correct_response': 'right', 'condition': 'stop'}, {'fileName': 'circleblack.png', 'correct_response': 'left', 'condition': 'go'}, {'fileName': 'squareblack.png', 'correct_response': 'right', 'condition': 'go'}, {'fileName': 'squareblack.png', 'correct_response': 'right', 'condition': 'go'}, {'fileName': 'squareblack.png', 'correct_response': 'right', 'condition': 'stop'}, {'fileName': 'circleblack.png', 'correct_response': 'left', 'condition': 'go'}, {'fileName': 'squareblack.png', 'correct_response': 'right', 'condition': 'go'}, {'fileName': 'circleblack.png', 'correct_response': 'left', 'condition': 'go'}, {'fileName': 'squareblack.png', 'correct_response': 'right', 'condition': 'go'}, {'fileName': 'circleblack.png', 'correct_response': 'left', 'condition': 'go'}, {'fileName': 'circleblack.png', 'correct_response': 'left', 'condition': 'stop'}, {'fileName': 'circleblack.png', 'correct_response': 'left', 'condition': 'go'}, {'fileName': 'circleblack.png', 'correct_response': 'left', 'condition': 'go'}, {'fileName': 'squareblack.png', 'correct_response': 'right', 'condition': 'go'}, {'fileName': 'circleblack.png', 'correct_response': 'left', 'condition': 'stop'}, {'fileName': 'squareblack.png', 'correct_response': 'right', 'condition': 'go'}, {'fileName': 'circleblack.png', 'correct_response': 'left', 'condition': 'go'}, {'fileName': 'squareblack.png', 'correct_response': 'right', 'condition': 'go'}, {'fileName': 'squareblack.png', 'correct_response': 'right', 'condition': 'go'}, {'fileName': 'squareblack.png', 'correct_response': 'right', 'condition': 'stop'}, {'fileName': 'squareblack.png', 'correct_response': 'right', 'condition': 'stop'}]","[{'fileName': 'circleblack.png', 'correct_response': 'left', 'condition': 'stop'}, {'fileName': 'circleblack.png', 'correct_response': 'left', 'condition': 'go'}, {'fileName': 'squareblack.png', 'correct_response': 'right', 'condition': 'go'}, {'fileName': 'circleblack.png', 'correct_response': 'left', 'condition': 'go'}, {'fileName': 'squareblack.png', 'correct_response': 'right', 'condition': 'go'}, {'fileName': 'squareblack.png', 'correct_response': 'right', 'condition': 'stop'}, {'fileName': 'squareblack.png', 'correct_response': 'right', 'condition': 'go'}, {'fileName': 'circleblack.png', 'correct_response': 'left', 'condition': 'go'}, {'fileName': 'circleblack.png', 'correct_response': 'left', 'condition': 'stop'}, {'fileName': 'squareblack.png', 'correct_response': 'right', 'condition': 'go'}, {'fileName': 'circleblack.png', 'correct_response': 'left', 'condition': 'go'}, {'fileName': 'squareblack.png', 'correct_response': 'right', 'condition': 'stop'}, {'fileName': 'squareblack.png', 'correct_response': 'right', 'condition': 'go'}, {'fileName': 'circleblack.png', 'correct_response': 'left', 'condition': 'go'}, {'fileName': 'squareblack.png', 'correct_response': 'right', 'condition': 'go'}, {'fileName': 'squareblack.png', 'correct_response': 'right', 'condition': 'stop'}, {'fileName': 'circleblack.png', 'correct_response': 'left', 'condition': 'go'}, {'fileName': 'squareblack.png', 'correct_response': 'right', 'condition': 'go'}, {'fileName': 'squareblack.png', 'correct_response': 'right', 'condition': 'go'}, {'fileName': 'circleblack.png', 'correct_response': 'left', 'condition': 'stop'}, {'fileName': 'circleblack.png', 'correct_response': 'left', 'condition': 'go'}, {'fileName': 'squareblack.png', 'correct_response': 'right', 'condition': 'stop'}, {'fileName': 'circleblack.png', 'correct_response': 'left', 'condition': 'go'}, {'fileName': 'circleblack.png', 'correct_response': 'left', 'condition': 'stop'}, {'fileName': 'squareblack.png', 'correct_response': 'right', 'condition': 'go'}, {'fileName': 'circleblack.png', 'correct_response': 'left', 'condition': 'go'}, {'fileName': 'squareblack.png', 'correct_response': 'right', 'condition': 'stop'}, {'fileName': 'squareblack.png', 'correct_response': 'right', 'condition': 'go'}, {'fileName': 'circleblack.png', 'correct_response': 'left', 'condition': 'stop'}, {'fileName': 'circleblack.png', 'correct_response': 'left', 'condition': 'go'}, {'fileName': 'circleblack.png', 'correct_response': 'left', 'condition': 'stop'}, {'fileName': 'circleblack.png', 'correct_response': 'left', 'condition': 'go'}, {'fileName': 'squareblack.png', 'correct_response': 'right', 'condition': 'go'}, {'fileName': 'squareblack.png', 'correct_response': 'right', 'condition': 'stop'}, {'fileName': 'circleblack.png', 'correct_response': 'left', 'condition': 'go'}, {'fileName': 'squareblack.png', 'correct_response': 'right', 'condition': 'go'}, {'fileName': 'circleblack.png', 'correct_response': 'left', 'condition': 'go'}, {'fileName': 'squareblack.png', 'correct_response': 'right', 'condition': 'go'}, {'fileName': 'circleblack.png', 'correct_response': 'left', 'condition': 'stop'}, {'fileName': 'circleblack.png', 'correct_response': 'left', 'condition': 'go'}, {'fileName': 'squareblack.png', 'correct_response': 'right', 'condition': 'stop'}, {'fileName': 'circleblack.png', 'correct_response': 'left', 'condition': 'go'}, {'fileName': 'circleblack.png', 'correct_response': 'left', 'condition': 'go'}, {'fileName': 'squareblack.png', 'correct_response': 'right', 'condition': 'stop'}, {'fileName': 'squareblack.png', 'correct_response': 'right', 'condition': 'go'}, {'fileName': 'circleblack.png', 'correct_response': 'left', 'condition': 'stop'}, {'fileName': 'squareblack.png', 'correct_response': 'right', 'condition': 'go'}, {'fileName': 'squareblack.png', 'correct_response': 'right', 'condition': 'go'}]",18.856058552861214,18.856058552861214,return,1.2916244119405746,,,,,,,,,,,,,,,,,,,,,,,,,,,,,,,,,,,,,,,,,,,,,,,,,,,,,,,,,,,s026,001,2024-08-12_13h16.05.800,simplestop_skeleton,2022.2.2,60.300860651885706,
None,None,0,0,0,0,0,0,0,2,,,,,,,,,,,,,,,20.178046233952045,20.178046233952045,21.473681390285492,stop,circleblack.png,left,0.35,21.49663757532835,21.49663757532835,21.989730514585972,21.989730514585972,22.00652603060007,22.339989483356476,22.840704381465912,22.990816220641136,23.992097929120064,24.009780205786228,right,0,1.2685986906290054,24.009780205786228,24.009780205786228,24.513888977468014,24.513888977468014,0.0032587870955467224,0.49032267183065414,0.8403993025422096,24.493577279150486,practice,1,,,,,,,,,,,,,,,,,,,,,,,,,,,,,s026,001,2024-08-12_13h16.05.800,simplestop_skeleton,2022.2.2,60.300860651885706,
None,None,0,0,0,0,0,1,1,1,,,,,,,,,,,,,,,,,24.494125545024872,go,circleblack.png,left,0.3,24.513888977468014,24.513888977468014,25.009660102427006,25.009660102427006,25.026508651673794,25.310062751173973,25.81070628017187,26.01082591712475,27.012043073773384,27.02873172610998,right,0,0.7275487780570984,27.02873172610998,27.02873172610998,27.53326775878668,27.53326775878668,0.0013671889901161194,0.48932114988565445,0.7897952571511269,27.51340790838003,practice,1,,,,,,,,,,,,,,,,,,,,,,,,,,,,,s026,001,2024-08-12_13h16.05.800,simplestop_skeleton,2022.2.2,60.300860651885706,
None,None,0,0,0,0,0,2,2,3,,,,,,,,,,,,,,,,,27.51383101940155,stop,circleblack.png,left,0.3,27.53326775878668,27.53326775878668,28.029742434620857,28.029742434620857,28.04655881971121,28.33005641400814,28.830527938902378,29.03126247227192,30.031827300786972,30.048796087503433,right,0,0.5373706370592117,30.048796087503433,30.048796087503433,30.56706954538822,30.56706954538822,0.0012961700558662415,0.4899988919496536,0.7904019206762314,30.53321848809719,practice,1,,,,,,,,,,,,,,,,,,,,,,,,,,,,,s026,001,2024-08-12_13h16.05.800,simplestop_skeleton,2022.2.2,60.300860651885706,
None,None,0,0,0,0,0,3,3,1,,,,,,,,,,,,,,,,,30.533639557659626,stop,squareblack.png,right,0.25,30.56706954538822,30.56706954538822,31.049869805574417,31.049869805574417,31.066743552684784,31.300009086728096,31.800415083765984,32.05069474130869,33.05186351388693,33.068510204553604,None,0,,33.068510204553604,33.068510204553604,,,0.007524743676185608,0.4904731884598732,0.7409136518836021,33.553482830524445,practice,1,,,,,,,,,,,,,,,,,,,,,,,,,,,,,s026,001,2024-08-12_13h16.05.800,simplestop_skeleton,2022.2.2,60.300860651885706,
$currentCorrectResponse,$currentGoStim,0,0,0,0,1,0,4,0,,,,,,,,,,,,,,,,,33.55390629917383,go,circleblack.png,left,0.3,33.57337652891874,33.57337652891874,34.06955974549055,34.06955974549055,34.08635951578617,34.37004408240318,34.87044558674097,35.070763386785984,36.071990095078945,36.088536098599434,None,0,,36.088536098599434,36.088536098599434,36.59307515621185,36.59307515621185,0.0018157735466957092,0.48997120559215546,0.7906071096658707,36.573422595858574,practice,1,,,,,,,,,,,,,,,,,,,,,,,,,,,,,s026,001,2024-08-12_13h16.05.800,simplestop_skeleton,2022.2.2,60.300860651885706,
None,None,0,0,0,0,1,1,5,1,,,,,,,,,,,,,,,,,36.573859453201294,go,squareblack.png,right,0.3,36.59307515621185,36.59307515621185,37.08998894691467,37.08998894691467,37.10698388516903,37.39008688926697,37.89069791138172,38.09109629690647,39.0918585062027,39.109155371785164,None,0,,39.109155371785164,39.109155371785164,,,0.001704096794128418,0.4900663122534752,0.7906560823321342,39.59332539141178,practice,1,,,,,,,,,,,,,,,,,,,,,,,,,,,,,s026,001,2024-08-12_13h16.05.800,simplestop_skeleton,2022.2.2,60.300860651885706,
$currentCorrectResponse,$currentGoStim,0,0,0,0,1,2,6,0,,,,,,,,,,,,,,,,,39.59374962002039,go,squareblack.png,right,0.3,39.61189986765385,39.61189986765385,40.10984542965889,40.10984542965889,40.126312881708145,40.410054594278336,40.9103979319334,41.110806070268154,42.111859023571014,42.111859023571014,None,0,,42.111859023571014,42.111859023571014,42.61605856567621,42.61605856567621,0.0012417137622833252,0.49016839265823364,0.7904262319207191,42.59668827801943,practice,1,,,,,,,,,,,,,,,,,,,,,,,,,,,,,s026,001,2024-08-12_13h16.05.800,simplestop_skeleton,2022.2.2,60.300860651885706,
None,None,0,0,0,0,1,3,7,3,,,,,,,,,,,,,,,,,42.5971070677042,stop,squareblack.png,right,0.3,42.61605856567621,42.61605856567621,43.11317816376686,43.11317816376686,43.129657343029976,43.4132187590003,43.91378757357597,44.11409750580788,45.11554303765297,45.11554303765297,None,0,,45.11554303765297,45.11554303765297,,,0.001184619963169098,0.4902239814400673,0.790480799973011,45.60005973279476,practice,1,,,,,,,,,,,,,,,,,,,,,,,,,,,,,s026,001,2024-08-12_13h16.05.800,simplestop_skeleton,2022.2.2,60.300860651885706,
None,None,0,0,0,0,2,0,8,2,,,,,,,,,,,,,,,,,45.60056562721729,go,circleblack.png,left,0.35,45.620312072336674,45.620312072336674,46.11660819500685,46.11660819500685,46.13321699202061,46.46710216253996,46.96731502562761,47.1175764426589,48.118668504059315,48.13534799218178,None,0,,48.13534799218178,48.13534799218178,48.63974676281214,48.63974676281214,0.0018826350569725037,0.4902995526790619,0.8407161384820938,48.62007240951061,practice,1,,,,,,,,,,,,,,,,,,,,,,,,,,,,,s026,001,2024-08-12_13h16.05.800,simplestop_skeleton,2022.2.2,60.300860651885706,
$currentCorrectResponse,$currentGoStim,0,0,0,0,2,1,9,0,,,,,,,,,,,,,,,,,48.6204936131835,go,squareblack.png,right,0.35,48.63974676281214,48.63974676281214,49.13635063916445,49.13635063916445,49.15293066948652,49.48695605248213,49.98744282126427,50.13754592090845,51.138759791851044,51.138759791851044,None,0,,51.138759791851044,51.138759791851044,51.643455408513546,51.643455408513546,0.0016250237822532654,0.49045008420944214,0.8406747207045555,51.62365113943815,practice,1,,,,,,,,,,,,,,,,,,,,,,,,,,,,,s026,001,2024-08-12_13h16.05.800,simplestop_skeleton,2022.2.2,60.300860651885706,
None,None,0,0,0,0,2,2,10,3,,,,,,,,,,,,,,,,,51.62407039105892,go,circleblack.png,left,0.35,51.643455408513546,51.643455408513546,52.139901988208294,52.139901988208294,52.1562837138772,52.49015714228153,52.99075172096491,53.14074483513832,54.14202496409416,54.15852852165699,None,0,,54.15852852165699,54.15852852165699,54.663632690906525,54.663632690906525,0.0017708763480186462,0.4901086762547493,0.8403358086943626,54.643596313893795,practice,1,,,,,,,,,,,,,,,,,,,,,,,,,,,,,s026,001,2024-08-12_13h16.05.800,simplestop_skeleton,2022.2.2,60.300860651885706,
None,None,0,0,0,0,2,3,11,2,,,,,,,,,,,,,,,,,54.64402870833874,go,squareblack.png,right,0.35,54.663632690906525,54.663632690906525,55.16001531481743,55.16001531481743,55.176496125757694,55.50995171815157,56.01060697436333,56.16089638322592,57.161875173449516,57.17875648289919,None,0,,57.17875648289919,57.17875648289919,57.683066725730896,57.683066725730896,0.0017805248498916626,0.4898006021976471,0.8403983563184738,57.66335245966911,practice,1,,,,,,,,,,,,,,,,,,,,,,,,,,,,,s026,001,2024-08-12_13h16.05.800,simplestop_skeleton,2022.2.2,60.300860651885706,
None,None,0,0,0,0,3,0,12,1,,,,,,,,,,,,,,,,,57.66376216709614,go,circleblack.png,left,0.35,57.683066725730896,57.683066725730896,58.17988196760416,58.17988196760416,58.19891831278801,58.53006445616484,59.03065896034241,59.18077856302261,60.18199620395899,60.19873567670584,None,0,,60.19873567670584,60.19873567670584,,,0.0018480122089385986,0.4905032068490982,0.8410935327410698,60.68326573818922,practice,1,,,,,,,,,,,,,,,,,,,,,,,,,,,,,s026,001,2024-08-12_13h16.05.800,simplestop_skeleton,2022.2.2,60.300860651885706,
None,None,0,0,0,0,3,1,13,3,,,,,,,,,,,,,,,,,60.68368571251631,stop,circleblack.png,left,0.35,60.702336341142654,60.702336341142654,61.202616199851036,61.202616199851036,61.216399788856506,61.55026262998581,62.05065435171127,62.21748711913824,63.20190615206957,63.20190615206957,None,0,,63.20190615206957,63.20190615206957,63.706223256886005,63.706223256886005,0.001248672604560852,0.490668922662735,0.8407155424356461,63.686814807355404,practice,1,,,,,,,,,,,,,,,,,,,,,,,,,,,,,s026,001,2024-08-12_13h16.05.800,simplestop_skeleton,2022.2.2,60.300860651885706,
None,None,0,0,0,0,3,2,14,3,,,,,,,,,,,,,,,,,63.687233440577984,go,circleblack.png,left,0.4,63.706223256886005,63.706223256886005,64.20305681973696,64.20305681973696,64.21958123892546,64.60345348715782,65.10414206981659,65.20411232858896,66.20541675388813,66.20541675388813,None,0,,66.20541675388813,66.20541675388813,66.70982059836388,66.70982059836388,0.0012502074241638184,0.49023129791021347,0.8905867487192154,66.69012188911438,practice,1,,,,,,,,,,,,,,,,,,,,,,,,,,,,,s026,001,2024-08-12_13h16.05.800,simplestop_skeleton,2022.2.2,60.300860651885706,
None,None,0,0,0,0,3,3,15,1,,,,,,,,,,,,,,,,,66.69055945426226,go,circleblack.png,left,0.4,66.70982059836388,66.70982059836388,67.20632907003164,67.20632907003164,67.22310351580381,67.60682477802038,68.10732491314411,68.20731791108847,69.20868072658777,69.22541853040457,None,0,,69.22541853040457,69.22541853040457,,,0.0012496337294578552,0.49033378809690475,0.890693187713623,69.7105023637414,practice,1,,,,,,,,,,,,,,,,,,,,,,,,,,,,,s026,001,2024-08-12_13h16.05.800,simplestop_skeleton,2022.2.2,60.300860651885706,
None,None,0,0,0,0,4,0,16,2,,,,,,,,,,,,,,,,,69.71107200533152,go,squareblack.png,right,0.4,69.731843277812,69.731843277812,70.22637109458447,70.22637109458447,70.24297580122948,70.62687035650015,71.1273440271616,71.22762570530176,72.22878433018923,72.24541798233986,None,0,,72.24541798233986,72.24541798233986,72.75011786818504,72.75011786818504,0.0027705952525138855,0.4885861873626709,0.8892762213945389,72.73016859591007,practice,1,,,,,,,,,,,,,,,,,,,,,,,,,,,,,s026,001,2024-08-12_13h16.05.800,simplestop_skeleton,2022.2.2,60.300860651885706,
$currentCorrectResponse,$currentGoStim,0,0,0,0,4,1,17,0,,,,,,,,,,,,,,,,,72.73057996481657,stop,circleblack.png,left,0.4,72.75011786818504,72.75011786818504,73.24628867208958,73.24628867208958,73.26318772882223,73.64671310782433,74.14725028723478,74.24740672111511,75.2484917640686,75.265212059021,None,0,,75.265212059021,75.265212059021,,,0.0017850250005722046,0.4900255799293518,0.8906777426600456,75.7499857544899,practice,1,,,,,,,,,,,,,,,,,,,,,,,,,,,,,s026,001,2024-08-12_13h16.05.800,simplestop_skeleton,2022.2.2,60.300860651885706,
$currentCorrectResponse,$currentGoStim,0,0,0,0,4,2,18,0,,,,,,,,,,,,,,,,,75.75040538609028,go,squareblack.png,right,0.45,75.77007959783077,75.77007959783077,76.26627043634653,76.26627043634653,76.28316362947226,76.71681207418442,77.21739247441292,77.26737465709448,78.26835555583239,78.28512300550938,None,0,,78.28512300550938,78.28512300550938,78.78983021527529,78.78983021527529,0.0017381533980369568,0.4906453490257263,0.9407238364219666,78.76985938102007,practice,1,,,,,,,,,,,,,,,,,,,,,,,,,,,,,s026,001,2024-08-12_13h16.05.800,simplestop_skeleton,2022.2.2,60.300860651885706,
None,None,0,0,0,0,4,3,19,1,,,,,,,,,,,,,,,,,78.77027460932732,go,circleblack.png,left,0.45,78.78983021527529,78.78983021527529,79.28640989214182,79.28640989214182,79.30317705869675,79.73697552084923,80.23759572952986,80.28737176209688,81.28876710683107,81.30563292652369,None,0,,81.30563292652369,81.30563292652369,81.81005478650331,81.81005478650331,0.001802012324333191,0.4902252331376076,0.9407332688570023,81.79018357396126,practice,1,,,,,,,,,,,,,,,,,,,,,,,,,,,,,s026,001,2024-08-12_13h16.05.800,simplestop_skeleton,2022.2.2,60.300860651885706,
None,None,0,0,0,0,5,0,20,2,,,,,,,,,,,,,,,,,81.79059880971909,go,squareblack.png,right,0.45,81.81005478650331,81.81005478650331,82.30641866475344,82.30641866475344,82.32301633059978,82.75677711516619,83.25741931796074,83.3075320199132,84.30851947516203,84.32558739930391,None,0,,84.32558739930391,84.32558739930391,,,0.0017494410276412964,0.49021489173173904,0.9409235492348671,84.80996312946081,practice,1,,,,,,,,,,,,,,,,,,,,,,,,,,,,,s026,001,2024-08-12_13h16.05.800,simplestop_skeleton,2022.2.2,60.300860651885706,
$currentCorrectResponse,$currentGoStim,0,0,0,0,5,1,21,0,,,,,,,,,,,,,,,,,84.81037832796574,go,squareblack.png,right,0.45,84.82910943776369,84.82910943776369,85.32657325267792,85.32657325267792,85.34307392686605,85.77693574130535,86.27746142446995,86.32748005539179,87.32889442890882,87.32889442890882,None,0,,87.32889442890882,87.32889442890882,,,0.0011907070875167847,0.4903019666671753,0.9408836290240288,87.81326454132795,practice,1,,,,,,,,,,,,,,,,,,,,,,,,,,,,,s026,001,2024-08-12_13h16.05.800,simplestop_skeleton,2022.2.2,60.300860651885706,
None,None,0,0,0,0,5,2,22,3,,,,,,,,,,,,,,,,,87.81368002295494,stop,squareblack.png,right,0.45,87.83235993236303,87.83235993236303,88.32960261404514,88.32960261404514,88.34628062695265,88.78022418916225,89.28064535558224,89.33067748695612,90.33177703619003,90.33177703619003,None,0,,90.33177703619003,90.33177703619003,,,0.001183249056339264,0.4905184730887413,0.9408177062869072,90.81673726439476,practice,1,,,,,,,,,,,,,,,,,,,,,,,,,,,,,s026,001,2024-08-12_13h16.05.800,simplestop_skeleton,2022.2.2,60.300860651885706,
None,None,0,0,0,0,5,3,23,2,,,,,,,,,,,,,,,,,90.8171763047576,stop,squareblack.png,right,0.5,90.83568873256445,90.83568873256445,91.33309941738844,91.33309941738844,91.34962046146393,91.83383291214705,92.33442034572363,92.33442034572363,93.33529887348413,93.33529887348413,None,0,,93.33529887348413,93.33529887348413,93.83772745728493,93.83772745728493,0.0011825859546661377,0.4904266372323036,0.9909285977482796,93.81981463730335,practice,1,,,,,,,,,,,,,,,,,,,,,,,,,,,,,s026,001,2024-08-12_13h16.05.800,simplestop_skeleton,2022.2.2,60.300860651885706,
,,0,0,0,0,,,,,,,,,,,,,"[{'fileName': 'circleblack.png', 'correct_response': 'left', 'condition': 'go'}, {'fileName': 'circleblack.png', 'correct_response': 'left', 'condition': 'go'}, {'fileName': 'squareblack.png', 'correct_response': 'right', 'condition': 'go'}, {'fileName': 'squareblack.png', 'correct_response': 'right', 'condition': 'stop'}, {'fileName': 'circleblack.png', 'correct_response': 'left', 'condition': 'go'}, {'fileName': 'squareblack.png', 'correct_response': 'right', 'condition': 'go'}, {'fileName': 'squareblack.png', 'correct_response': 'right', 'condition': 'go'}, {'fileName': 'circleblack.png', 'correct_response': 'left', 'condition': 'go'}, {'fileName': 'circleblack.png', 'correct_response': 'left', 'condition': 'stop'}, {'fileName': 'squareblack.png', 'correct_response': 'right', 'condition': 'stop'}, {'fileName': 'circleblack.png', 'correct_response': 'left', 'condition': 'stop'}, {'fileName': 'squareblack.png', 'correct_response': 'right', 'condition': 'go'}, {'fileName': 'squareblack.png', 'correct_response': 'right', 'condition': 'go'}, {'fileName': 'circleblack.png', 'correct_response': 'left', 'condition': 'go'}, {'fileName': 'circleblack.png', 'correct_response': 'left', 'condition': 'go'}, {'fileName': 'squareblack.png', 'correct_response': 'right', 'condition': 'stop'}, {'fileName': 'circleblack.png', 'correct_response': 'left', 'condition': 'stop'}, {'fileName': 'squareblack.png', 'correct_response': 'right', 'condition': 'go'}, {'fileName': 'squareblack.png', 'correct_response': 'right', 'condition': 'go'}, {'fileName': 'circleblack.png', 'correct_response': 'left', 'condition': 'stop'}, {'fileName': 'circleblack.png', 'correct_response': 'left', 'condition': 'go'}, {'fileName': 'circleblack.png', 'correct_response': 'left', 'condition': 'go'}, {'fileName': 'squareblack.png', 'correct_response': 'right', 'condition': 'go'}, {'fileName': 'squareblack.png', 'correct_response': 'right', 'condition': 'stop'}]",,,,,,,,,,,,,,,,,,,,,,,,,,,,,,,,,,,,93.83772745728493,93.83772745728493,return,2.0223956927657127,,,,,,,,,,,,,,,,,,,,,,,,,s026,001,2024-08-12_13h16.05.800,simplestop_skeleton,2022.2.2,60.300860651885706,
$currentCorrectResponse,$currentGoStim,,,,,,,,,0,0,0,0,0,0,0,0,,,,,,,,,98.49924673140049,stop,circleblack.png,left,0.55,,,,,,,,,,,,,,,,,,0.002205789089202881,0.4990628808736801,1.0326341912150383,101.0115578174591,test,1,,,,,95.88862584531307,95.88862584531307,98.51877817511559,99.02509216219187,99.02509216219187,99.02509216219187,99.5585246309638,100.02577381581068,100.05920983850956,101.03037535399199,left,1,0.43756385147571564,0.5,,,,,,,,,,,s026,001,2024-08-12_13h16.05.800,simplestop_skeleton,2022.2.2,60.300860651885706,
None,None,,,,,,,,,0,0,0,0,0,1,1,2,,,,,,,,,101.01209355890751,go,circleblack.png,left,0.5,,,,,,,,,,,,,,,,,,0.001327909529209137,0.4895118176937103,,103.51411867141724,test,1,,,,,,,101.03037535399199,101.5441239848733,101.52748694270849,101.52748694270849,102.02809102833271,102.52856422960758,102.52856422960758,103.53320074081421,left,1,0.5145467966794968,0.5,,,,,,,,,,,s026,001,2024-08-12_13h16.05.800,simplestop_skeleton,2022.2.2,60.300860651885706,
None,None,,,,,,,,,0,0,0,0,0,2,2,2,,,,,,,,,103.51456109434366,go,squareblack.png,right,0.5,,,,,,,,,,,,,,,,,,0.0016958117485046387,0.4898817464709282,,106.01734983175993,test,1,,,,,,,103.53320074081421,104.04699268937111,104.03016356378794,104.03016356378794,104.53112153708935,105.03152869641781,105.03152869641781,106.03658704459667,right,1,0.4179424121975899,0.5,,,,,,,,,,,s026,001,2024-08-12_13h16.05.800,simplestop_skeleton,2022.2.2,60.300860651885706,
$currentCorrectResponse,$currentGoStim,,,,,,,,,0,0,0,0,0,3,3,0,,,,,,,,,106.01781115680933,go,circleblack.png,left,0.5,,,,,,,,,,,,,,,,,,0.0019263029098510742,0.48946207016706467,,108.51959148794413,test,1,,,,,,,106.03658704459667,106.54977431893349,106.53306642174721,106.53306642174721,107.03364013135433,107.53403566032648,107.53403566032648,108.53860221803188,left,1,0.6146153956651688,0.5,,,,,,,,,,,s026,001,2024-08-12_13h16.05.800,simplestop_skeleton,2022.2.2,60.300860651885706,
None,None,,,,,,,,,0,0,0,0,1,0,4,2,,,,,,,,,108.52003744989634,go,squareblack.png,right,0.5,,,,,,,,,,,,,,,,,,0.0017150864005088806,0.4900416135787964,,111.02259136736393,test,1,,,,,,,108.53860221803188,109.0524288341403,109.0357585400343,109.0357585400343,109.53648438304663,110.03565326333046,110.03565326333046,111.04121036082506,right,1,0.6620574370026588,0.5,,,,,,,,,,,s026,001,2024-08-12_13h16.05.800,simplestop_skeleton,2022.2.2,60.300860651885706,
None,None,,,,,,,,,0,0,0,0,1,1,5,1,,,,,,,,,111.02302195131779,stop,squareblack.png,right,0.5,,,,,,,,,,,,,,,,,,0.001188524067401886,0.4900311753153801,0.990294061601162,113.52550008893013,test,1,,,,,,,111.04121036082506,111.55514124780893,111.53854062408209,111.53854062408209,112.03900740295649,112.53955960273743,112.53955960273743,113.54308117181063,right,1,0.5654494985938072,0.45,,,,,,,,,,,s026,001,2024-08-12_13h16.05.800,simplestop_skeleton,2022.2.2,60.300860651885706,
$currentCorrectResponse,$currentGoStim,,,,,,,,,0,0,0,0,1,2,6,0,,,,,,,,,113.52595143020153,go,squareblack.png,right,0.45,,,,,,,,,,,,,,,,,,0.0012844130396842957,0.4896010011434555,,116.02833086252213,test,1,,,,,,,113.54308117181063,114.05797205120325,114.0412769317627,114.0412769317627,114.4919777289033,115.0426414012909,114.99257811903954,116.04780332744122,right,1,0.5433358326554298,0.45,,,,,,,,,,,s026,001,2024-08-12_13h16.05.800,simplestop_skeleton,2022.2.2,60.300860651885706,
None,None,,,,,,,,,0,0,0,0,1,3,7,3,,,,,,,,,116.02877739816904,go,circleblack.png,left,0.45,,,,,,,,,,,,,,,,,,0.002006128430366516,0.4899038001894951,,118.53088838607073,test,1,,,,,,,116.04780332744122,116.56078610569239,116.54415106773376,116.54415106773376,116.9946683049202,117.54518203437328,117.49519812315702,118.54957514256239,left,1,0.6888607069849968,0.45,,,,,,,,,,,s026,001,2024-08-12_13h16.05.800,simplestop_skeleton,2022.2.2,60.300860651885706,
None,None,,,,,,,,,0,0,0,0,2,0,8,1,,,,,,,,,118.531319655478,stop,circleblack.png,left,0.45,,,,,,,,,,,,,,,,,,0.0013820305466651917,0.4901520237326622,0.9404217004776001,121.0336105749011,test,1,,,,,,,118.54957514256239,119.06354127824306,119.04690289497375,119.04690289497375,119.4973079264164,120.04805239289999,119.99787133932114,121.05264686048031,left,1,0.6902133151888847,0.4,,,,,,,,,,,s026,001,2024-08-12_13h16.05.800,simplestop_skeleton,2022.2.2,60.300860651885706,
$currentCorrectResponse,$currentGoStim,,,,,,,,,0,0,0,0,2,1,9,0,,,,,,,,,121.03404173254967,go,squareblack.png,right,0.4,,,,,,,,,,,,,,,,,,0.0018172487616539001,0.48970644176006317,,123.53614696860313,test,1,,,,,,,121.05264686048031,121.56627960503101,121.54964765161276,121.54964765161276,121.95000998675823,122.55073232203722,122.45055855065584,123.55536031723022,right,1,0.6684610322117805,0.4,,,,,,,,,,,s026,001,2024-08-12_13h16.05.800,simplestop_skeleton,2022.2.2,60.300860651885706,
None,None,,,,,,,,,0,0,0,0,2,2,10,1,,,,,,,,,123.53659968823195,go,circleblack.png,left,0.4,,,,,,,,,,,,,,,,,,0.001771382987499237,0.4901641011238098,,126.03902181237936,test,1,,,,,,,123.55536031723022,124.06893617659807,124.05227225273848,124.05227225273848,124.45277017354965,125.05348264425993,124.95355378091335,126.05827397108078,left,1,0.6726602837443352,0.4,,,,,,,,,,,s026,001,2024-08-12_13h16.05.800,simplestop_skeleton,2022.2.2,60.300860651885706,
None,None,,,,,,,,,0,0,0,0,2,3,11,3,,,,,,,,,126.03945387154818,stop,squareblack.png,right,0.4,,,,,,,,,,,,,,,,,,0.0017665103077888489,0.48974135518074036,0.8902600333094597,128.54165006428957,test,1,,,,,,,126.05827397108078,126.57167471945286,126.55515670031309,126.55515670031309,126.9555676355958,127.55653803795576,127.456004999578,128.56033273786306,None,0,,0.45,,,,,,,,,,,s026,001,2024-08-12_13h16.05.800,simplestop_skeleton,2022.2.2,60.300860651885706,
None,None,,,,,,,,,0,0,0,0,3,0,12,3,,,,,,,,,128.54209174215794,go,squareblack.png,right,0.45,,,,,,,,,,,,,,,,,,0.0011856481432914734,0.4902309253811836,,131.04450523853302,test,1,,,,,,,128.56033273786306,129.0745748281479,129.05787420272827,129.05787420272827,129.50846373289824,130.05825003236532,130.00769467651844,131.0639004856348,right,1,0.6520792990922928,0.45,,,,,,,,,,,s026,001,2024-08-12_13h16.05.800,simplestop_skeleton,2022.2.2,60.300860651885706,
None,None,,,,,,,,,0,0,0,0,3,1,13,1,,,,,,,,,131.04494728147984,go,circleblack.png,left,0.45,,,,,,,,,,,,,,,,,,0.0019672662019729614,0.48968300968408585,,133.54709470272064,test,1,,,,,,,131.0639004856348,131.5773532986641,131.56046269834042,131.56046269834042,132.01095634698868,132.56182074546814,132.5116587355733,133.5663656666875,left,1,0.7683133184909821,0.45,,,,,,,,,,,s026,001,2024-08-12_13h16.05.800,simplestop_skeleton,2022.2.2,60.300860651885706,
None,None,,,,,,,,,0,0,0,0,3,2,14,3,,,,,,,,,133.54753067344427,go,squareblack.png,right,0.45,,,,,,,,,,,,,,,,,,0.0017854496836662292,0.48988956958055496,,136.0504319295287,test,1,,,,,,,133.5663656666875,134.0799702629447,134.06323040276766,134.06323040276766,134.51368858665228,135.06446213275194,135.01463282853365,136.06915368139744,right,1,0.6848398000001907,0.45,,,,,,,,,,,s026,001,2024-08-12_13h16.05.800,simplestop_skeleton,2022.2.2,60.300860651885706,
None,None,,,,,,,,,0,0,0,0,3,3,15,2,,,,,,,,,136.05087473988533,stop,squareblack.png,right,0.45,,,,,,,,,,,,,,,,,,0.0013008564710617065,0.48981981724500656,0.9402639865875244,138.5531142205,test,1,,,,,,,136.06915368139744,136.5828495323658,136.56633980572224,136.56633980572224,137.01693980395794,137.56744126230478,137.51763336360455,138.5727057531476,right,1,0.6108499392867088,0.4,,,,,,,,,,,s026,001,2024-08-12_13h16.05.800,simplestop_skeleton,2022.2.2,60.300860651885706,
$currentCorrectResponse,$currentGoStim,,,,,,,,,0,0,0,0,4,0,16,0,,,,,,,,,138.55354245007038,go,circleblack.png,left,0.4,,,,,,,,,,,,,,,,,,0.002004392445087433,0.48957962542772293,,141.05560392141342,test,1,,,,,,,138.5727057531476,139.0855365023017,139.06888604909182,139.06888604909182,139.46930787712336,140.06957377493382,139.96936412155628,141.07457799464464,left,1,0.424068883061409,0.4,,,,,,,,,,,s026,001,2024-08-12_13h16.05.800,simplestop_skeleton,2022.2.2,60.300860651885706,
None,None,,,,,,,,,0,0,0,0,4,1,17,3,,,,,,,,,141.05604688823223,go,squareblack.png,right,0.4,,,,,,,,,,,,,,,,,,0.001647666096687317,0.4896881803870201,,143.55840132385492,test,1,,,,,,,141.07457799464464,141.58834451436996,141.5715640708804,141.5715640708804,141.9720791950822,142.57275700569153,142.4725147485733,143.576491124928,right,1,0.5533107221126556,0.4,,,,,,,,,,,s026,001,2024-08-12_13h16.05.800,simplestop_skeleton,2022.2.2,60.300860651885706,
None,None,,,,,,,,,0,0,0,0,4,2,18,1,,,,,,,,,143.55885196477175,go,squareblack.png,right,0.4,,,,,,,,,,,,,,,,,,0.0012337490916252136,0.49005040526390076,,146.0614123865962,test,1,,,,,,,143.576491124928,144.09121233969927,144.07434893399477,144.07434893399477,144.4747959896922,145.07503750175238,144.9747950285673,146.08062056452036,right,1,0.6767857521772385,0.4,,,,,,,,,,,s026,001,2024-08-12_13h16.05.800,simplestop_skeleton,2022.2.2,60.300860651885706,
None,None,,,,,,,,,0,0,0,0,4,3,19,1,,,,,,,,,146.0618637725711,stop,circleblack.png,left,0.4,,,,,,,,,,,,,,,,,,0.0019011050462722778,0.4898882284760475,0.890047624707222,148.56406019628048,test,1,,,,,,,146.08062056452036,146.59384013712406,146.57719706743956,146.57719706743956,146.97764047980309,147.57829905301332,147.47809851914644,148.58272525668144,None,0,,0.45,,,,,,,,,,,s026,001,2024-08-12_13h16.05.800,simplestop_skeleton,2022.2.2,60.300860651885706,
$currentCorrectResponse,$currentGoStim,,,,,,,,,0,0,0,0,5,0,20,0,,,,,,,,,148.56450451165438,go,circleblack.png,left,0.45,,,,,,,,,,,,,,,,,,0.0012943372130393982,0.48985209316015244,,151.06695583462715,test,1,,,,,,,148.58272525668144,149.09664883464575,149.07996045798063,149.07996045798063,149.53038393706083,150.0811399370432,150.0311257019639,151.0864813104272,left,1,0.48903701454401016,0.45,,,,,,,,,,,s026,001,2024-08-12_13h16.05.800,simplestop_skeleton,2022.2.2,60.300860651885706,
$currentCorrectResponse,$currentGoStim,,,,,,,,,0,0,0,0,5,1,21,0,,,,,,,,,151.06740460544825,stop,squareblack.png,right,0.45,,,,,,,,,,,,,,,,,,0.0026586875319480896,0.48937901109457016,0.9399785622954369,153.56935047358274,test,1,,,,,,,151.0864813104272,151.59927670657635,151.5829485207796,151.5829485207796,152.03317829966545,152.5837889239192,152.5324187502265,153.58883971720934,right,1,0.6269803270697594,0.4,,,,,,,,,,,s026,001,2024-08-12_13h16.05.800,simplestop_skeleton,2022.2.2,60.300860651885706,
None,None,,,,,,,,,0,0,0,0,5,2,22,2,,,,,,,,,153.56979358941317,go,circleblack.png,left,0.4,,,,,,,,,,,,,,,,,,0.001986667513847351,0.4897174909710884,,156.0720733180642,test,1,,,,,,,153.58883971720934,154.10209251195192,154.0856050401926,154.0856050401926,154.48606510460377,155.08595325797796,154.9856522232294,156.08995132893324,left,1,0.711738646030426,0.4,,,,,,,,,,,s026,001,2024-08-12_13h16.05.800,simplestop_skeleton,2022.2.2,60.300860651885706,
$currentCorrectResponse,$currentGoStim,,,,,,,,,0,0,0,0,5,3,23,0,,,,,,,,,156.07250014692545,stop,circleblack.png,left,0.4,,,,,,,,,,,,,,,,,,0.00128868967294693,0.4896693602204323,0.890165388584137,158.57494439929724,test,1,,,,,,,156.08995132893324,156.6047200039029,156.58819323033094,156.58819323033094,156.98852667212486,157.58912851661444,157.4891538694501,158.59379877895117,None,0,,0.45,,,,,,,,,,,s026,001,2024-08-12_13h16.05.800,simplestop_skeleton,2022.2.2,60.300860651885706,
None,None,,,,,,,,,0,0,0,0,6,0,24,3,,,,,,,,,158.5753888860345,go,squareblack.png,right,0.45,,,,,,,,,,,,,,,,,,0.0016795918345451355,0.48975008726119995,,161.07783979177475,test,1,,,,,,,158.59379877895117,159.10765286535025,159.09100709855556,159.09100709855556,159.54131086915731,160.09310467541218,160.04150711745024,161.09692460298538,right,1,0.6915611103177071,0.45,,,,,,,,,,,s026,001,2024-08-12_13h16.05.800,simplestop_skeleton,2022.2.2,60.300860651885706,
None,None,,,,,,,,,0,0,0,0,6,1,25,1,,,,,,,,,161.07827008515596,go,circleblack.png,left,0.45,,,,,,,,,,,,,,,,,,0.0018356144428253174,0.489690862596035,,163.58045962452888,test,1,,,,,,,161.09692460298538,161.61032255738974,161.59367439895868,161.59367439895868,162.04406818002462,162.59482330083847,162.54471158981323,163.599311478436,left,1,0.6264541372656822,0.45,,,,,,,,,,,s026,001,2024-08-12_13h16.05.800,simplestop_skeleton,2022.2.2,60.300860651885706,
None,None,,,,,,,,,0,0,0,0,6,2,26,3,,,,,,,,,163.5808927565813,stop,squareblack.png,right,0.45,,,,,,,,,,,,,,,,,,0.0016779601573944092,0.4899206608533859,0.9403195902705193,166.08331560343504,test,1,,,,,,,163.599311478436,164.1130877584219,164.0963834002614,164.0963834002614,164.5469660013914,165.0975286141038,165.04764709621668,166.10198606550694,None,0,,0.5,,,,,,,,,,,s026,001,2024-08-12_13h16.05.800,simplestop_skeleton,2022.2.2,60.300860651885706,
None,None,,,,,,,,,0,0,0,0,6,3,27,3,,,,,,,,,166.08374809473753,go,squareblack.png,right,0.5,,,,,,,,,,,,,,,,,,0.001194596290588379,0.48981618881225586,,168.5859505906701,test,1,,,,,,,166.10198606550694,166.61589302122593,166.5993655845523,166.5993655845523,167.09979890286922,167.59949949383736,167.59949949383736,168.60556205362082,right,1,0.6264972910284996,0.5,,,,,,,,,,,s026,001,2024-08-12_13h16.05.800,simplestop_skeleton,2022.2.2,60.300860651885706,
None,None,,,,,,,,,0,0,0,0,7,0,28,3,,,,,,,,,168.58649519085884,stop,circleblack.png,left,0.5,,,,,,,,,,,,,,,,,,0.0021214187145233154,0.48940713703632355,0.9902732968330383,171.0887919589877,test,1,,,,,,,168.60556205362082,169.11865600943565,169.10212484002113,169.10212484002113,169.60260466486216,170.10332943499088,170.10332943499088,171.10726614296436,None,0,,0.55,,,,,,,,,,,s026,001,2024-08-12_13h16.05.800,simplestop_skeleton,2022.2.2,60.300860651885706,
$currentCorrectResponse,$currentGoStim,,,,,,,,,0,0,0,0,7,1,29,0,,,,,,,,,171.08923713862896,go,circleblack.png,left,0.55,,,,,,,,,,,,,,,,,,0.001279592514038086,0.4899284690618515,,173.59172527492046,test,1,,,,,,,171.10726614296436,171.6214385703206,171.60501032322645,171.60501032322645,172.15547446906567,172.60562704503536,172.65556193888187,173.6105096116662,left,1,0.6055962145328522,0.55,,,,,,,,,,,s026,001,2024-08-12_13h16.05.800,simplestop_skeleton,2022.2.2,60.300860651885706,
None,None,,,,,,,,,0,0,0,0,7,2,30,1,,,,,,,,,173.59216463565826,stop,circleblack.png,left,0.55,,,,,,,,,,,,,,,,,,0.0014499351382255554,0.4896622598171234,1.0400740504264832,176.0944606140256,test,1,,,,,,,173.6105096116662,174.12463741004467,174.10764895379543,174.10764895379543,174.65878362208605,175.10821744799614,175.15829705446959,176.11283423751593,left,1,0.56075669080019,0.5,,,,,,,,,,,s026,001,2024-08-12_13h16.05.800,simplestop_skeleton,2022.2.2,60.300860651885706,
$currentCorrectResponse,$currentGoStim,,,,,,,,,0,0,0,0,7,3,31,0,,,,,,,,,176.0949013531208,go,circleblack.png,left,0.5,,,,,,,,,,,,,,,,,,0.00128994882106781,0.48957817256450653,,178.59689673781395,test,1,,,,,,,176.11283423751593,176.62707873433828,176.6101892516017,176.6101892516017,177.11085034906864,177.61125057190657,177.61125057190657,178.61607641726732,left,1,0.5853400751948357,0.5,,,,,,,,,,,s026,001,2024-08-12_13h16.05.800,simplestop_skeleton,2022.2.2,60.300860651885706,
None,None,,,,,,,,,0,0,0,0,8,0,32,2,,,,,,,,,178.59733529388905,go,squareblack.png,right,0.5,,,,,,,,,,,,,,,,,,0.0016648098826408386,0.48989324271678925,,181.09987320750952,test,1,,,,,,,178.61607641726732,179.12970339506865,179.113221809268,179.113221809268,179.6157107576728,180.11420556902885,180.13084153831005,181.11749394983053,right,1,0.34627391397953033,0.5,,,,,,,,,,,s026,001,2024-08-12_13h16.05.800,simplestop_skeleton,2022.2.2,60.300860651885706,
None,None,,,,,,,,,0,0,0,0,8,1,33,1,,,,,,,,,181.1003250181675,stop,squareblack.png,right,0.5,,,,,,,,,,,,,,,,,,0.0012199431657791138,0.48986076563596725,0.990195631980896,183.6026087999344,test,1,,,,,,,181.11749394983053,181.63243018090725,181.6156994625926,181.6156994625926,182.1163895353675,182.61673645675182,182.61673645675182,183.62189792841673,right,1,0.6877615004777908,0.45,,,,,,,,,,,s026,001,2024-08-12_13h16.05.800,simplestop_skeleton,2022.2.2,60.300860651885706,
$currentCorrectResponse,$currentGoStim,,,,,,,,,0,0,0,0,8,2,34,0,,,,,,,,,183.6030478477478,go,circleblack.png,left,0.45,,,,,,,,,,,,,,,,,,0.0019525662064552307,0.48971763253211975,,186.10526970773935,test,1,,,,,,,183.62189792841673,184.13520123809576,184.11867890506983,184.11867890506983,184.56905975937843,185.11963499337435,185.06963758915663,186.12421081215143,left,1,0.7032268941402435,0.45,,,,,,,,,,,s026,001,2024-08-12_13h16.05.800,simplestop_skeleton,2022.2.2,60.300860651885706,
None,None,,,,,,,,,0,0,0,0,8,3,35,2,,,,,,,,,186.1057002544403,go,squareblack.png,right,0.45,,,,,,,,,,,,,,,,,,0.0016251355409622192,0.4899117276072502,,188.6080888658762,test,1,,,,,,,186.12421081215143,186.63793145865202,186.621371217072,186.621371217072,187.07170978933573,187.62246602028608,187.57223328202963,188.6273938342929,right,1,0.7350680455565453,0.45,,,,,,,,,,,s026,001,2024-08-12_13h16.05.800,simplestop_skeleton,2022.2.2,60.300860651885706,
None,None,,,,,,,,,0,0,0,0,9,0,36,3,,,,,,,,,188.60851930081844,go,circleblack.png,left,0.45,,,,,,,,,,,,,,,,,,0.001954205334186554,0.48974931240081787,,191.110939219594,test,1,,,,,,,188.6273938342929,189.14070409536362,189.12403297424316,189.12403297424316,189.57456279546022,190.12453496456146,190.07488602399826,191.12997858971357,left,1,0.3589683622121811,0.45,,,,,,,,,,,s026,001,2024-08-12_13h16.05.800,simplestop_skeleton,2022.2.2,60.300860651885706,
None,None,,,,,,,,,0,0,0,0,9,1,37,2,,,,,,,,,191.11136619746685,go,squareblack.png,right,0.45,,,,,,,,,,,,,,,,,,0.001693427562713623,0.4899153709411621,,193.6138349249959,test,1,,,,,,,191.12997858971357,191.64369513839483,191.62700057774782,191.62700057774782,192.07737577706575,192.62740343809128,192.57755609601736,193.63300923258066,right,1,0.546524666249752,0.45,,,,,,,,,,,s026,001,2024-08-12_13h16.05.800,simplestop_skeleton,2022.2.2,60.300860651885706,
None,None,,,,,,,,,0,0,0,0,9,2,38,2,,,,,,,,,193.61427681148052,stop,circleblack.png,left,0.45,,,,,,,,,,,,,,,,,,0.0019246116280555725,0.48972994834184647,0.9400871098041534,196.11662923544645,test,1,,,,,,,193.63300923258066,194.14632881432772,194.12965657562017,194.12965657562017,194.58021011203527,195.13094375282526,195.0809373408556,196.1355008110404,None,0,,0.5,,,,,,,,,,,s026,001,2024-08-12_13h16.05.800,simplestop_skeleton,2022.2.2,60.300860651885706,
None,None,,,,,,,,,0,0,0,0,9,3,39,1,,,,,,,,,196.11706656962633,go,circleblack.png,left,0.5,,,,,,,,,,,,,,,,,,0.0014128610491752625,0.4896332770586014,,198.61927850544453,test,1,,,,,,,196.1355008110404,196.64914269000292,196.63262278586626,196.63262278586626,197.13305244594812,197.6329480111599,197.6329480111599,198.6383712515235,left,1,0.5555252507328987,0.5,,,,,,,,,,,s026,001,2024-08-12_13h16.05.800,simplestop_skeleton,2022.2.2,60.300860651885706,
None,None,,,,,,,,,0,0,0,0,10,0,40,1,,,,,,,,,198.61972838640213,stop,squareblack.png,right,0.5,,,,,,,,,,,,,,,,,,0.001706339418888092,0.4898248091340065,0.9902331009507179,201.12218563258648,test,1,,,,,,,198.6383712515235,199.1518695950508,199.13536020368338,199.13536020368338,199.6356831341982,200.13634514808655,200.13634514808655,201.1413363814354,None,0,,0.55,,,,,,,,,,,s026,001,2024-08-12_13h16.05.800,simplestop_skeleton,2022.2.2,60.300860651885706,
$currentCorrectResponse,$currentGoStim,,,,,,,,,0,0,0,0,10,1,41,0,,,,,,,,,201.12261395901442,go,circleblack.png,left,0.55,,,,,,,,,,,,,,,,,,0.0019468367099761963,0.4898016154766083,,203.6247830837965,test,1,,,,,,,201.1413363814354,201.65459052473307,201.63801323622465,201.63801323622465,202.18896362185478,202.63903418928385,202.70689266175032,203.64372853934765,left,1,0.6949914991855621,0.55,,,,,,,,,,,s026,001,2024-08-12_13h16.05.800,simplestop_skeleton,2022.2.2,60.300860651885706,
None,None,,,,,,,,,0,0,0,0,10,2,42,3,,,,,,,,,203.62526673823595,go,circleblack.png,left,0.55,,,,,,,,,,,,,,,,,,0.0013717934489250183,0.48937372863292694,,206.127337038517,test,1,,,,,,,203.64372853934765,204.1573140770197,204.1409515812993,204.1409515812993,204.69145852327347,205.14038114994764,205.19066723436117,206.1466834396124,left,1,0.6052738726139069,0.55,,,,,,,,,,,s026,001,2024-08-12_13h16.05.800,simplestop_skeleton,2022.2.2,60.300860651885706,
None,None,,,,,,,,,0,0,0,0,10,3,43,1,,,,,,,,,206.12777427583933,stop,squareblack.png,right,0.55,,,,,,,,,,,,,,,,,,0.0018031299114227295,0.4895276129245758,1.0402946323156357,208.63056658953428,test,1,,,,,,,206.1466834396124,206.65993928909302,206.64346974343061,206.64346974343061,207.19399091601372,207.6433309316635,207.69401866197586,208.64826931804419,right,1,0.6673131957650185,0.5,,,,,,,,,,,s026,001,2024-08-12_13h16.05.800,simplestop_skeleton,2022.2.2,60.300860651885706,
None,None,,,,,,,,,0,0,0,0,11,0,44,2,,,,,,,,,208.6310066729784,go,squareblack.png,right,0.5,,,,,,,,,,,,,,,,,,0.0013944581151008606,0.48910340666770935,,211.13302448391914,test,1,,,,,,,208.64826931804419,209.16279097646475,209.14619570970535,209.14619570970535,209.64657803624868,210.14665630459785,210.14665630459785,211.15220938622952,right,1,0.5779340639710426,0.5,,,,,,,,,,,s026,001,2024-08-12_13h16.05.800,simplestop_skeleton,2022.2.2,60.300860651885706,
None,None,,,,,,,,,0,0,0,0,11,1,45,2,,,,,,,,,211.13346641510725,stop,circleblack.png,left,0.5,,,,,,,,,,,,,,,,,,0.001945793628692627,0.4898131266236305,0.9904196336865425,213.6358795836568,test,1,,,,,,,211.15220938622952,211.66572712361813,211.64916683733463,211.64916683733463,212.14963034540415,212.65023256838322,212.65023256838322,213.65477430075407,left,1,0.7065096795558929,0.45,,,,,,,,,,,s026,001,2024-08-12_13h16.05.800,simplestop_skeleton,2022.2.2,60.300860651885706,
None,None,,,,,,,,,0,0,0,0,11,2,46,2,,,,,,,,,213.63632149994373,go,squareblack.png,right,0.45,,,,,,,,,,,,,,,,,,0.0017217621207237244,0.4898231029510498,,216.13866274803877,test,1,,,,,,,213.65477430075407,214.16841750591993,214.15196369588375,214.15196369588375,214.60256756097078,215.15287266671658,215.1030281931162,216.1572277098894,right,1,0.8005705252289772,0.45,,,,,,,,,,,s026,001,2024-08-12_13h16.05.800,simplestop_skeleton,2022.2.2,60.300860651885706,
None,None,,,,,,,,,0,0,0,0,11,3,47,3,,,,,,,,,216.13910222798586,go,squareblack.png,right,0.45,,,,,,,,,,,,,,,,,,0.0011789053678512573,0.48983921110630035,,218.6411267593503,test,1,,,,,,,216.1572277098894,216.67106944322586,216.6545447409153,216.6545447409153,217.1049443781376,217.65822887420654,217.60553530603647,218.66159272938967,right,1,0.839220829308033,0.45,,,,,,,,,,,s026,001,2024-08-12_13h16.05.800,simplestop_skeleton,2022.2.2,60.300860651885706,
,,,,,,,,,,0,0,0,0,,,,,,"[{'fileName': 'circleblack.png', 'correct_response': 'left', 'condition': 'go'}, {'fileName': 'circleblack.png', 'correct_response': 'left', 'condition': 'go'}, {'fileName': 'squareblack.png', 'correct_response': 'right', 'condition': 'stop'}, {'fileName': 'squareblack.png', 'correct_response': 'right', 'condition': 'go'}, {'fileName': 'circleblack.png', 'correct_response': 'left', 'condition': 'go'}, {'fileName': 'circleblack.png', 'correct_response': 'left', 'condition': 'stop'}, {'fileName': 'squareblack.png', 'correct_response': 'right', 'condition': 'go'}, {'fileName': 'circleblack.png', 'correct_response': 'left', 'condition': 'stop'}, {'fileName': 'squareblack.png', 'correct_response': 'right', 'condition': 'go'}, {'fileName': 'squareblack.png', 'correct_response': 'right', 'condition': 'go'}, {'fileName': 'circleblack.png', 'correct_response': 'left', 'condition': 'go'}, {'fileName': 'squareblack.png', 'correct_response': 'right', 'condition': 'stop'}, {'fileName': 'squareblack.png', 'correct_response': 'right', 'condition': 'go'}, {'fileName': 'circleblack.png', 'correct_response': 'left', 'condition': 'go'}, {'fileName': 'circleblack.png', 'correct_response': 'left', 'condition': 'go'}, {'fileName': 'squareblack.png', 'correct_response': 'right', 'condition': 'stop'}, {'fileName': 'circleblack.png', 'correct_response': 'left', 'condition': 'go'}, {'fileName': 'squareblack.png', 'correct_response': 'right', 'condition': 'go'}, {'fileName': 'circleblack.png', 'correct_response': 'left', 'condition': 'stop'}, {'fileName': 'circleblack.png', 'correct_response': 'left', 'condition': 'stop'}, {'fileName': 'circleblack.png', 'correct_response': 'left', 'condition': 'go'}, {'fileName': 'squareblack.png', 'correct_response': 'right', 'condition': 'go'}, {'fileName': 'squareblack.png', 'correct_response': 'right', 'condition': 'stop'}, {'fileName': 'squareblack.png', 'correct_response': 'right', 'condition': 'go'}, {'fileName': 'squareblack.png', 'correct_response': 'right', 'condition': 'go'}, {'fileName': 'squareblack.png', 'correct_response': 'right', 'condition': 'go'}, {'fileName': 'circleblack.png', 'correct_response': 'left', 'condition': 'stop'}, {'fileName': 'circleblack.png', 'correct_response': 'left', 'condition': 'go'}, {'fileName': 'squareblack.png', 'correct_response': 'right', 'condition': 'go'}, {'fileName': 'circleblack.png', 'correct_response': 'left', 'condition': 'go'}, {'fileName': 'squareblack.png', 'correct_response': 'right', 'condition': 'stop'}, {'fileName': 'circleblack.png', 'correct_response': 'left', 'condition': 'go'}, {'fileName': 'circleblack.png', 'correct_response': 'left', 'condition': 'stop'}, {'fileName': 'squareblack.png', 'correct_response': 'right', 'condition': 'stop'}, {'fileName': 'circleblack.png', 'correct_response': 'left', 'condition': 'go'}, {'fileName': 'squareblack.png', 'correct_response': 'right', 'condition': 'go'}, {'fileName': 'circleblack.png', 'correct_response': 'left', 'condition': 'go'}, {'fileName': 'circleblack.png', 'correct_response': 'left', 'condition': 'stop'}, {'fileName': 'squareblack.png', 'correct_response': 'right', 'condition': 'go'}, {'fileName': 'circleblack.png', 'correct_response': 'left', 'condition': 'go'}, {'fileName': 'circleblack.png', 'correct_response': 'left', 'condition': 'stop'}, {'fileName': 'squareblack.png', 'correct_response': 'right', 'condition': 'stop'}, {'fileName': 'squareblack.png', 'correct_response': 'right', 'condition': 'go'}, {'fileName': 'circleblack.png', 'correct_response': 'left', 'condition': 'go'}, {'fileName': 'squareblack.png', 'correct_response': 'right', 'condition': 'go'}, {'fileName': 'circleblack.png', 'correct_response': 'left', 'condition': 'go'}, {'fileName': 'squareblack.png', 'correct_response': 'right', 'condition': 'stop'}, {'fileName': 'squareblack.png', 'correct_response': 'right', 'condition': 'go'}]",,,,,,,,,,,,,,,,,,,,,,,,,,,,,,,,,,,,,,,,,,,,,,,,,,,,,218.66159272938967,218.66159272938967,return,5.527319274842739,,,,,,,s026,001,2024-08-12_13h16.05.800,simplestop_skeleton,2022.2.2,60.300860651885706,
$currentCorrectResponse,$currentGoStim,,,,,,,,,1,0,1,0,0,0,0,0,,,,,,,,,224.20475728809834,go,circleblack.png,left,0.45,,,,,,,,,,,,,,,,,,0.0019304975867271423,0.49863649159669876,,226.71691650897264,test,2,,,,,,,224.22479140758514,224.73004516214132,224.73004516214132,224.73004516214132,225.16383066028357,225.73097959160805,225.6644640043378,226.73581451922655,left,1,0.632331132888794,0.45,,,,,,,,,,,s026,001,2024-08-12_13h16.05.800,simplestop_skeleton,2022.2.2,60.300860651885706,
None,None,,,,,,,,,1,0,1,0,0,1,1,3,,,,,,,,,226.71744499355555,go,circleblack.png,left,0.45,,,,,,,,,,,,,,,,,,0.0013843774795532227,0.4895174130797386,,229.2197879999876,test,2,,,,,,,226.73581451922655,227.24952330440283,227.23266348987818,227.23266348987818,227.6832928135991,228.23320733755827,228.18338222056627,229.23899383097887,left,1,0.35950683802366257,0.45,,,,,,,,,,,s026,001,2024-08-12_13h16.05.800,simplestop_skeleton,2022.2.2,60.300860651885706,
$currentCorrectResponse,$currentGoStim,,,,,,,,,1,0,1,0,0,2,2,0,,,,,,,,,229.220218680799,stop,squareblack.png,right,0.45,,,,,,,,,,,,,,,,,,0.0017437860369682312,0.4894309788942337,0.9398753792047501,231.72286595404148,test,2,,,,,,,229.23899383097887,229.7520131021738,229.73544543236494,229.73544543236494,230.18631076812744,230.73663497716188,230.68615166842937,231.74127893149853,right,1,0.46517323702573776,0.4,,,,,,,,,,,s026,001,2024-08-12_13h16.05.800,simplestop_skeleton,2022.2.2,60.300860651885706,
None,None,,,,,,,,,1,0,1,0,0,3,3,3,,,,,,,,,231.72329460084438,go,squareblack.png,right,0.4,,,,,,,,,,,,,,,,,,0.0012788474559783936,0.489523321390152,,234.2252388894558,test,2,,,,,,,231.74127893149853,232.25513283908367,232.23832370340824,232.23832370340824,232.6388228610158,233.23946097493172,233.13951944559813,234.24446889013052,right,1,0.7012766525149345,0.4,,,,,,,,,,,s026,001,2024-08-12_13h16.05.800,simplestop_skeleton,2022.2.2,60.300860651885706,
None,None,,,,,,,,,1,0,1,0,1,0,4,3,,,,,,,,,234.22567764669657,go,circleblack.png,left,0.4,,,,,,,,,,,,,,,,,,0.0019745752215385437,0.489784799516201,,236.72791058570147,test,2,,,,,,,234.24446889013052,234.75779796391726,234.7411437034607,234.7411437034607,235.1416353955865,235.7415885180235,235.64159624278545,236.7463595122099,left,1,0.6944838091731071,0.4,,,,,,,,,,,s026,001,2024-08-12_13h16.05.800,simplestop_skeleton,2022.2.2,60.300860651885706,
$currentCorrectResponse,$currentGoStim,,,,,,,,,1,0,1,0,1,1,5,0,,,,,,,,,236.7284016534686,stop,circleblack.png,left,0.4,,,,,,,,,,,,,,,,,,0.0013407617807388306,0.4897238239645958,0.8902263939380646,239.23065054416656,test,2,,,,,,,236.7463595122099,237.26057948172092,237.24393802136183,237.24393802136183,237.64438013732433,238.24521182477474,238.14490467309952,239.2495492324233,None,0,,0.45,,,,,,,,,,,s026,001,2024-08-12_13h16.05.800,simplestop_skeleton,2022.2.2,60.300860651885706,
None,None,,,,,,,,,1,0,1,0,1,2,6,1,,,,,,,,,239.231075450778,go,squareblack.png,right,0.45,,,,,,,,,,,,,,,,,,0.001598939299583435,0.48972126841545105,,241.73324436694384,test,2,,,,,,,239.2495492324233,239.76329778134823,239.74696353077888,239.74696353077888,240.19717836380005,240.74639696627855,240.69760362803936,241.75268937647343,right,1,0.6720169112086296,0.45,,,,,,,,,,,s026,001,2024-08-12_13h16.05.800,simplestop_skeleton,2022.2.2,60.300860651885706,
None,None,,,,,,,,,1,0,1,0,1,3,7,2,,,,,,,,,241.73367796093225,stop,circleblack.png,left,0.45,,,,,,,,,,,,,,,,,,0.0018586739897727966,0.4897807762026787,0.9402434080839157,244.23614716529846,test,2,,,,,,,241.75268937647343,242.26623209565878,242.24935021996498,242.24935021996498,242.69980984181166,243.25050888955593,243.2003656849265,244.25522889196873,None,0,,0.5,,,,,,,,,,,s026,001,2024-08-12_13h16.05.800,simplestop_skeleton,2022.2.2,60.300860651885706,
$currentCorrectResponse,$currentGoStim,,,,,,,,,1,0,1,0,2,0,8,0,,,,,,,,,244.2365850135684,go,squareblack.png,right,0.5,,,,,,,,,,,,,,,,,,0.0015492066740989685,0.4896313175559044,,246.7389278486371,test,2,,,,,,,244.25522889196873,244.76885613054037,244.75208463519812,244.75208463519812,245.25256403535604,245.7527977451682,245.7527977451682,246.75666376203299,right,1,0.5847328007221222,0.5,,,,,,,,,,,s026,001,2024-08-12_13h16.05.800,simplestop_skeleton,2022.2.2,60.300860651885706,
None,None,,,,,,,,,1,0,1,0,2,1,9,1,,,,,,,,,246.7393525093794,go,squareblack.png,right,0.5,,,,,,,,,,,,,,,,,,0.001341119408607483,0.4897088259458542,,249.24162773787975,test,2,,,,,,,246.75666376203299,247.27169135212898,247.25478365272284,247.25478365272284,247.75539978593588,248.2560339793563,248.2560339793563,249.26084186136723,right,1,0.7893242761492729,0.5,,,,,,,,,,,s026,001,2024-08-12_13h16.05.800,simplestop_skeleton,2022.2.2,60.300860651885706,
None,None,,,,,,,,,1,0,1,0,2,2,10,1,,,,,,,,,249.24206336587667,go,circleblack.png,left,0.5,,,,,,,,,,,,,,,,,,0.0019342228770256042,0.4899291694164276,,251.7442934885621,test,2,,,,,,,249.26084186136723,249.77443723380566,249.75768715143204,249.75768715143204,250.2581040263176,250.75873469561338,250.75873469561338,251.7634364888072,left,1,0.72312892973423,0.5,,,,,,,,,,,s026,001,2024-08-12_13h16.05.800,simplestop_skeleton,2022.2.2,60.300860651885706,
None,None,,,,,,,,,1,0,1,0,2,3,11,2,,,,,,,,,251.74472698569298,stop,squareblack.png,right,0.5,,,,,,,,,,,,,,,,,,0.0017146021127700806,0.48992525041103363,0.99066112190485,254.24718491733074,test,2,,,,,,,251.7634364888072,252.27722420543432,252.26038583368063,252.26038583368063,252.7610497996211,253.26032879203558,253.26032879203558,254.2647903189063,right,1,0.6881386563181877,0.45,,,,,,,,,,,s026,001,2024-08-12_13h16.05.800,simplestop_skeleton,2022.2.2,60.300860651885706,
None,None,,,,,,,,,1,0,1,0,3,0,12,2,,,,,,,,,254.24761809408665,go,squareblack.png,right,0.45,,,,,,,,,,,,,,,,,,0.0011804178357124329,0.4896284490823746,,256.74991092830896,test,2,,,,,,,254.2647903189063,254.7799912765622,254.76317109167576,254.76317109167576,255.2136964648962,255.76386047154665,255.71290206164122,256.76923697441816,right,1,0.6053028255701065,0.45,,,,,,,,,,,s026,001,2024-08-12_13h16.05.800,simplestop_skeleton,2022.2.2,60.300860651885706,
None,None,,,,,,,,,1,0,1,0,3,1,13,3,,,,,,,,,256.7504493817687,go,circleblack.png,left,0.45,,,,,,,,,,,,,,,,,,0.0018789246678352356,0.48969560116529465,,259.2527447193861,test,2,,,,,,,256.76923697441816,257.28263265639544,257.265928812325,257.265928812325,257.71644531935453,258.2667183727026,258.2164121195674,259.27129194140434,left,1,0.4940546825528145,0.45,,,,,,,,,,,s026,001,2024-08-12_13h16.05.800,simplestop_skeleton,2022.2.2,60.300860651885706,
None,None,,,,,,,,,1,0,1,0,3,2,14,1,,,,,,,,,259.2531805410981,go,circleblack.png,left,0.45,,,,,,,,,,,,,,,,,,0.0015129148960113525,0.48968295753002167,,261.7554862499237,test,2,,,,,,,259.27129194140434,259.78555691987276,259.76871643960476,259.76871643960476,260.2191947773099,260.7693372294307,260.71921698749065,261.77441857755184,right,0,0.34139418601989746,0.45,,,,,,,,,,,s026,001,2024-08-12_13h16.05.800,simplestop_skeleton,2022.2.2,60.300860651885706,
None,None,,,,,,,,,1,0,1,0,3,3,15,3,,,,,,,,,261.7559350579977,stop,squareblack.png,right,0.45,,,,,,,,,,,,,,,,,,0.0016808509826660156,0.49012789130210876,0.9404471144080162,264.2583772391081,test,2,,,,,,,261.77441857755184,262.28840531408787,262.27152954787016,262.27152954787016,262.7221506610513,263.2725680619478,263.222094386816,264.2775404304266,right,1,0.4656172916293144,0.4,,,,,,,,,,,s026,001,2024-08-12_13h16.05.800,simplestop_skeleton,2022.2.2,60.300860651885706,
None,None,,,,,,,,,1,0,1,0,4,0,16,2,,,,,,,,,264.2588239312172,go,circleblack.png,left,0.4,,,,,,,,,,,,,,,,,,0.001763656735420227,0.48962191492319107,,266.76098757237196,test,2,,,,,,,264.2775404304266,264.79118782281876,264.77419244498014,264.77419244498014,265.17452297359705,265.7748748585582,265.6745628416538,266.78075677901506,left,1,0.472926065325737,0.4,,,,,,,,,,,s026,001,2024-08-12_13h16.05.800,simplestop_skeleton,2022.2.2,60.300860651885706,
None,None,,,,,,,,,1,0,1,0,4,1,17,3,,,,,,,,,266.76153626292944,go,squareblack.png,right,0.4,,,,,,,,,,,,,,,,,,0.001838095486164093,0.48930706828832626,,269.2636423930526,test,2,,,,,,,266.78075677901506,267.2935846671462,267.27713821828365,267.27713821828365,267.6773763075471,268.2780734822154,268.1778936609626,269.28299029916525,right,1,0.6779934465885162,0.4,,,,,,,,,,,s026,001,2024-08-12_13h16.05.800,simplestop_skeleton,2022.2.2,60.300860651885706,
None,None,,,,,,,,,1,0,1,0,4,2,18,2,,,,,,,,,269.2640677616,stop,circleblack.png,left,0.4,,,,,,,,,,,,,,,,,,0.001743026077747345,0.48996590822935104,0.8902131915092468,271.7665787935257,test,2,,,,,,,269.28299029916525,269.79631397873163,269.7798588126898,269.7798588126898,270.18038868904114,270.78024259209633,270.68011359125376,271.785470880568,left,1,0.4449026882648468,0.35,,,,,,,,,,,s026,001,2024-08-12_13h16.05.800,simplestop_skeleton,2022.2.2,60.300860651885706,
None,None,,,,,,,,,1,0,1,0,4,3,19,3,,,,,,,,,271.76701195538044,stop,circleblack.png,left,0.35,,,,,,,,,,,,,,,,,,0.0013368651270866394,0.48962004482746124,0.8402936160564423,274.2694321125746,test,2,,,,,,,271.785470880568,272.2993633300066,272.2823806926608,272.2823806926608,272.63308096677065,273.28315617889166,273.133364059031,274.28834088891745,left,1,0.5391814559698105,0.3,,,,,,,,,,,s026,001,2024-08-12_13h16.05.800,simplestop_skeleton,2022.2.2,60.300860651885706,
None,None,,,,,,,,,1,0,1,0,5,0,20,2,,,,,,,,,274.2698531895876,go,circleblack.png,left,0.3,,,,,,,,,,,,,,,,,,0.001389630138874054,0.48948439955711365,,276.77202209085226,test,2,,,,,,,274.28834088891745,274.8019793257117,274.7852027490735,274.7852027490735,275.0857641771436,275.78663643449545,275.58614571392536,276.79230938851833,left,1,0.6835526823997498,0.3,,,,,,,,,,,s026,001,2024-08-12_13h16.05.800,simplestop_skeleton,2022.2.2,60.300860651885706,
None,None,,,,,,,,,1,0,1,0,5,1,21,1,,,,,,,,,276.77246061712503,go,squareblack.png,right,0.3,,,,,,,,,,,,,,,,,,0.001858733594417572,0.48920779675245285,,279.2747093886137,test,2,,,,,,,276.79230938851833,277.30511424690485,277.2879395708442,277.2879395708442,277.5883860141039,278.2896237447858,278.0890119895339,279.2934635952115,right,1,0.7218663915991783,0.3,,,,,,,,,,,s026,001,2024-08-12_13h16.05.800,simplestop_skeleton,2022.2.2,60.300860651885706,
None,None,,,,,,,,,1,0,1,0,5,2,22,3,,,,,,,,,279.2751499786973,stop,squareblack.png,right,0.3,,,,,,,,,,,,,,,,,,0.0011947453022003174,0.48989108949899673,0.790239654481411,281.7774116769433,test,2,,,,,,,279.2934635952115,279.8076079636812,279.79078628122807,279.79078628122807,280.091203160584,280.79188242554665,280.5914820358157,281.7947798073292,None,0,,0.35,,,,,,,,,,,s026,001,2024-08-12_13h16.05.800,simplestop_skeleton,2022.2.2,60.300860651885706,
None,None,,,,,,,,,1,0,1,0,5,3,23,1,,,,,,,,,281.7778530418873,go,squareblack.png,right,0.35,,,,,,,,,,,,,,,,,,0.0011806860566139221,0.4899235665798187,,284.2802695631981,test,2,,,,,,,281.7947798073292,282.3102026581764,282.29349691420794,282.29349691420794,282.6438670307398,283.29393837600946,283.1443945094943,284.29794753342867,right,1,0.5956288352608681,0.35,,,,,,,,,,,s026,001,2024-08-12_13h16.05.800,simplestop_skeleton,2022.2.2,60.300860651885706,
None,None,,,,,,,,,1,0,1,0,6,0,24,3,,,,,,,,,284.28070160746574,go,squareblack.png,right,0.35,,,,,,,,,,,,,,,,,,0.0011847466230392456,0.4898393899202347,,286.7830253317952,test,2,,,,,,,284.29794753342867,284.81300534307957,284.7962111532688,284.7962111532688,285.1467773914337,285.7968892902136,285.64722499996424,286.8019796386361,right,1,0.5908695310354233,0.35,,,,,,,,,,,s026,001,2024-08-12_13h16.05.800,simplestop_skeleton,2022.2.2,60.300860651885706,
$currentCorrectResponse,$currentGoStim,,,,,,,,,1,0,1,0,6,1,25,0,,,,,,,,,286.78351636976004,go,squareblack.png,right,0.35,,,,,,,,,,,,,,,,,,0.0014081001281738281,0.48967378586530685,,289.2857678383589,test,2,,,,,,,286.8019796386361,287.31594520807266,287.299222625792,287.299222625792,287.6496106162667,288.29983212798834,288.1494259610772,289.3052458688617,right,1,0.37875059992074966,0.35,,,,,,,,,,,s026,001,2024-08-12_13h16.05.800,simplestop_skeleton,2022.2.2,60.300860651885706,
None,None,,,,,,,,,1,0,1,0,6,2,26,1,,,,,,,,,289.2862122654915,stop,circleblack.png,left,0.35,,,,,,,,,,,,,,,,,,0.0019436106085777283,0.4897177368402481,0.8405040204524994,291.7889122143388,test,2,,,,,,,289.3052458688617,289.81867503374815,289.8021363541484,289.8021363541484,290.15229488164186,290.802654966712,290.6531824991107,291.80748157948256,left,1,0.47156909853219986,0.3,,,,,,,,,,,s026,001,2024-08-12_13h16.05.800,simplestop_skeleton,2022.2.2,60.300860651885706,
$currentCorrectResponse,$currentGoStim,,,,,,,,,1,0,1,0,6,3,27,0,,,,,,,,,291.7893498688936,go,circleblack.png,left,0.3,,,,,,,,,,,,,,,,,,0.001392170786857605,0.4895842745900154,,294.29147578030825,test,2,,,,,,,291.80748157948256,292.3216215670109,292.3048307597637,292.3048307597637,292.6049932986498,293.3059749752283,293.10554395616055,294.3105359300971,left,1,0.6599596738815308,0.3,,,,,,,,,,,s026,001,2024-08-12_13h16.05.800,simplestop_skeleton,2022.2.2,60.300860651885706,
None,None,,,,,,,,,1,0,1,0,7,0,28,2,,,,,,,,,294.29190853983164,go,squareblack.png,right,0.3,,,,,,,,,,,,,,,,,,0.0017773881554603577,0.490050345659256,,296.7938857227564,test,2,,,,,,,294.3105359300971,294.8241517096758,294.8075202703476,294.8075202703476,295.1077358946204,295.8083429262042,295.6081620231271,296.813161149621,right,1,0.6845936253666878,0.3,,,,,,,,,,,s026,001,2024-08-12_13h16.05.800,simplestop_skeleton,2022.2.2,60.300860651885706,
$currentCorrectResponse,$currentGoStim,,,,,,,,,1,0,1,0,7,1,29,0,,,,,,,,,296.7943318337202,go,circleblack.png,left,0.3,,,,,,,,,,,,,,,,,,0.0019348859786987305,0.4900417700409889,,299.2967905551195,test,2,,,,,,,296.813161149621,297.3267658650875,297.3101374581456,297.3101374581456,297.61040169745684,298.3111159428954,298.11105013638735,299.3160069435835,left,1,0.7305807694792747,0.3,,,,,,,,,,,s026,001,2024-08-12_13h16.05.800,simplestop_skeleton,2022.2.2,60.300860651885706,
None,None,,,,,,,,,1,0,1,0,7,2,30,3,,,,,,,,,299.2972344905138,stop,squareblack.png,right,0.3,,,,,,,,,,,,,,,,,,0.001666821539402008,0.4901232272386551,0.7904618084430695,301.7998193949461,test,2,,,,,,,299.3160069435835,299.8297790288925,299.8129641264677,299.8129641264677,300.1132031530142,300.8139244541526,300.61416363716125,301.8190822452307,None,0,,0.35,,,,,,,,,,,s026,001,2024-08-12_13h16.05.800,simplestop_skeleton,2022.2.2,60.300860651885706,
$currentCorrectResponse,$currentGoStim,,,,,,,,,1,0,1,0,7,3,31,0,,,,,,,,,301.8002596721053,go,circleblack.png,left,0.35,,,,,,,,,,,,,,,,,,0.0019752904772758484,0.4898854121565819,,304.30229391902685,test,2,,,,,,,301.8190822452307,302.3322813808918,302.3157094568014,302.3157094568014,302.66623239964247,303.31663440167904,303.1667915582657,304.32072085887194,left,1,0.6059452146291733,0.35,,,,,,,,,,,s026,001,2024-08-12_13h16.05.800,simplestop_skeleton,2022.2.2,60.300860651885706,
$currentCorrectResponse,$currentGoStim,,,,,,,,,1,0,1,0,8,0,32,0,,,,,,,,,304.30273650586605,stop,circleblack.png,left,0.35,,,,,,,,,,,,,,,,,,0.0012409314513206482,0.48995114862918854,0.8404450416564941,306.8051376864314,test,2,,,,,,,304.32072085887194,304.835108846426,304.8185938000679,304.8185938000679,305.1691487133503,305.81960589438677,305.6692884489894,306.8242827504873,None,0,,0.4,,,,,,,,,,,s026,001,2024-08-12_13h16.05.800,simplestop_skeleton,2022.2.2,60.300860651885706,
None,None,,,,,,,,,1,0,1,0,8,1,33,1,,,,,,,,,306.8055842295289,stop,squareblack.png,right,0.4,,,,,,,,,,,,,,,,,,0.001626327633857727,0.48975758254528046,0.8903562650084496,309.3080268353224,test,2,,,,,,,306.8242827504873,307.33787646889687,307.3213640078902,307.3213640078902,307.7217168584466,308.3224607408047,308.2221881002188,309.3273121342063,None,0,,0.45,,,,,,,,,,,s026,001,2024-08-12_13h16.05.800,simplestop_skeleton,2022.2.2,60.300860651885706,
None,None,,,,,,,,,1,0,1,0,8,2,34,1,,,,,,,,,309.30845458060503,go,circleblack.png,left,0.45,,,,,,,,,,,,,,,,,,0.0018010959029197693,0.490011602640152,,311.81045876443386,test,2,,,,,,,309.3273121342063,309.84077160805464,309.82398081570864,309.82398081570864,310.2743486016989,310.8240960761905,310.7749070301652,311.82981664687395,left,1,0.6839454844594002,0.45,,,,,,,,,,,s026,001,2024-08-12_13h16.05.800,simplestop_skeleton,2022.2.2,60.300860651885706,
None,None,,,,,,,,,1,0,1,0,8,3,35,2,,,,,,,,,311.81090727448463,go,squareblack.png,right,0.45,,,,,,,,,,,,,,,,,,0.0017812550067901611,0.49003057181835175,,314.3132512792945,test,2,,,,,,,311.82981664687395,312.3435227572918,312.32672319561243,312.32672319561243,312.7771067172289,313.3278471529484,313.2774828746915,314.33243756741285,right,1,0.8790553733706474,0.45,,,,,,,,,,,s026,001,2024-08-12_13h16.05.800,simplestop_skeleton,2022.2.2,60.300860651885706,
None,None,,,,,,,,,1,0,1,0,9,0,36,2,,,,,,,,,314.313695281744,go,circleblack.png,left,0.45,,,,,,,,,,,,,,,,,,0.0018264800310134888,0.4899877980351448,,316.81624541431665,test,2,,,,,,,314.33243756741285,314.8460362404585,314.8294113576412,314.8294113576412,315.27999471873045,315.82994635403156,315.78018313646317,316.8347351178527,left,1,0.5333996340632439,0.45,,,,,,,,,,,s026,001,2024-08-12_13h16.05.800,simplestop_skeleton,2022.2.2,60.300860651885706,
None,None,,,,,,,,,1,0,1,0,9,1,37,1,,,,,,,,,316.81668128073215,stop,circleblack.png,left,0.45,,,,,,,,,,,,,,,,,,0.0013666152954101562,0.4898049756884575,0.9402163997292519,319.31931015104055,test,2,,,,,,,316.8347351178527,317.3489106371999,317.3323441967368,317.3323441967368,317.7827345505357,318.33274395763874,318.2830810546875,319.33868235349655,left,1,0.5558331236243248,0.4,,,,,,,,,,,s026,001,2024-08-12_13h16.05.800,simplestop_skeleton,2022.2.2,60.300860651885706,
None,None,,,,,,,,,1,0,1,0,9,2,38,3,,,,,,,,,319.3197319880128,go,squareblack.png,right,0.4,,,,,,,,,,,,,,,,,,0.001803070306777954,0.48955483734607697,,321.82167057693005,test,2,,,,,,,319.33868235349655,319.8515008613467,319.8350016847253,319.8350016847253,320.2354827001691,320.8361802101135,320.73636093735695,321.84085158258677,right,1,0.7019345089793205,0.4,,,,,,,,,,,s026,001,2024-08-12_13h16.05.800,simplestop_skeleton,2022.2.2,60.300860651885706,
$currentCorrectResponse,$currentGoStim,,,,,,,,,1,0,1,0,9,3,39,0,,,,,,,,,321.82210752367973,go,circleblack.png,left,0.4,,,,,,,,,,,,,,,,,,0.0018138289451599121,0.49006637930870056,,324.3243865817785,test,2,,,,,,,321.84085158258677,322.35442849993706,322.33811374008656,322.33811374008656,322.73821687698364,323.3382340669632,323.23891995102167,324.34322533756495,left,1,0.6126480847597122,0.4,,,,,,,,,,,s026,001,2024-08-12_13h16.05.800,simplestop_skeleton,2022.2.2,60.300860651885706,
None,None,,,,,,,,,1,0,1,0,10,0,40,2,,,,,,,,,324.32482275366783,stop,circleblack.png,left,0.4,,,,,,,,,,,,,,,,,,0.001305602490901947,0.49016690999269485,0.8901440873742104,326.8270883858204,test,2,,,,,,,324.34322533756495,324.85731042921543,324.84069476276636,324.84069476276636,325.2409345880151,325.8415859937668,325.7413760051131,326.8463679254055,None,0,,0.45,,,,,,,,,,,s026,001,2024-08-12_13h16.05.800,simplestop_skeleton,2022.2.2,60.300860651885706,
$currentCorrectResponse,$currentGoStim,,,,,,,,,1,0,1,0,10,1,41,0,,,,,,,,,326.8275319188833,stop,squareblack.png,right,0.45,,,,,,,,,,,,,,,,,,0.0017343908548355103,0.48982658237218857,0.9405217692255974,329.329715564847,test,2,,,,,,,326.8463679254055,327.35990788042545,327.34308149665594,327.34308149665594,327.7936837077141,328.34423772990704,328.29415429383516,329.34734373539686,None,0,,0.5,,,,,,,,,,,s026,001,2024-08-12_13h16.05.800,simplestop_skeleton,2022.2.2,60.300860651885706,
None,None,,,,,,,,,1,0,1,0,10,2,42,2,,,,,,,,,329.3301604539156,go,squareblack.png,right,0.5,,,,,,,,,,,,,,,,,,0.0012007281184196472,0.49008267372846603,,331.83294201642275,test,2,,,,,,,329.34734373539686,329.86269196122885,329.8460026755929,329.8460026755929,330.3467905819416,330.84609735012054,330.84609735012054,331.85198449343443,right,1,0.6813537552952766,0.5,,,,,,,,,,,s026,001,2024-08-12_13h16.05.800,simplestop_skeleton,2022.2.2,60.300860651885706,
None,None,,,,,,,,,1,0,1,0,10,3,43,1,,,,,,,,,331.8333776816726,go,circleblack.png,left,0.5,,,,,,,,,,,,,,,,,,0.0018294230103492737,0.48991822451353073,,334.3353429213166,test,2,,,,,,,331.85198449343443,332.3655110448599,332.34898671507835,332.34898671507835,332.8493656143546,333.348660774529,333.348660774529,334.35426913946867,left,1,0.6458392590284348,0.5,,,,,,,,,,,s026,001,2024-08-12_13h16.05.800,simplestop_skeleton,2022.2.2,60.300860651885706,
$currentCorrectResponse,$currentGoStim,,,,,,,,,1,0,1,0,11,0,44,0,,,,,,,,,334.3357644379139,go,squareblack.png,right,0.5,,,,,,,,,,,,,,,,,,0.0017416775226593018,0.4900619313120842,,336.8383877798915,test,2,,,,,,,334.35426913946867,334.8684496805072,334.8515345081687,334.8515345081687,335.35226019471884,335.8548916056752,335.8548916056752,336.85747181624174,right,1,0.7690772414207458,0.5,,,,,,,,,,,s026,001,2024-08-12_13h16.05.800,simplestop_skeleton,2022.2.2,60.300860651885706,
None,None,,,,,,,,,1,0,1,0,11,1,45,1,,,,,,,,,336.8388250693679,go,circleblack.png,left,0.5,,,,,,,,,,,,,,,,,,0.0017960742115974426,0.48974597454071045,,339.34104681015015,test,2,,,,,,,336.85747181624174,337.37134673446417,337.3544575795531,337.3544575795531,337.85477651655674,338.35821682214737,338.35821682214737,339.36015997827053,left,1,0.775641493499279,0.5,,,,,,,,,,,s026,001,2024-08-12_13h16.05.800,simplestop_skeleton,2022.2.2,60.300860651885706,
None,None,,,,,,,,,1,0,1,0,11,2,46,2,,,,,,,,,339.3415376543999,stop,squareblack.png,right,0.5,,,,,,,,,,,,,,,,,,0.0016757845878601074,0.4898264706134796,0.9904114529490471,341.84415554255247,test,2,,,,,,,339.36015997827053,339.87379314005375,339.8572624027729,339.8572624027729,340.35762467235327,340.85820995271206,340.85820995271206,341.8627657815814,right,1,0.8302312418818474,0.45,,,,,,,,,,,s026,001,2024-08-12_13h16.05.800,simplestop_skeleton,2022.2.2,60.300860651885706,
None,None,,,,,,,,,1,0,1,0,11,3,47,3,,,,,,,,,341.84459145367146,go,squareblack.png,right,0.45,,,,,,,,,,,,,,,,,,0.0013404414057731628,0.4896794855594635,,344.34647200256586,test,2,,,,,,,341.8627657815814,342.3764807507396,342.35976776480675,342.35976776480675,342.8102932870388,343.3596670255065,343.31100925803185,344.3620967641473,right,1,0.6579767316579819,0.45,,,,,,,,,,,s026,001,2024-08-12_13h16.05.800,simplestop_skeleton,2022.2.2,60.300860651885706,
,,,,,,,,,,1,0,1,0,,,,,,,,,,,,,,,,,,,,,,,,,,,,,,,,,,,,,,,,,,,,,,,,,,,,,,,,,,,344.3620967641473,344.3620967641473,return,11.672069162130356,"[{'fileName': 'squareblack.png', 'correct_response': 'right', 'condition': 'go'}, {'fileName': 'squareblack.png', 'correct_response': 'right', 'condition': 'go'}, {'fileName': 'circleblack.png', 'correct_response': 'left', 'condition': 'stop'}, {'fileName': 'circleblack.png', 'correct_response': 'left', 'condition': 'go'}, {'fileName': 'circleblack.png', 'correct_response': 'left', 'condition': 'go'}, {'fileName': 'squareblack.png', 'correct_response': 'right', 'condition': 'go'}, {'fileName': 'squareblack.png', 'correct_response': 'right', 'condition': 'go'}, {'fileName': 'circleblack.png', 'correct_response': 'left', 'condition': 'go'}, {'fileName': 'squareblack.png', 'correct_response': 'right', 'condition': 'stop'}, {'fileName': 'circleblack.png', 'correct_response': 'left', 'condition': 'go'}, {'fileName': 'circleblack.png', 'correct_response': 'left', 'condition': 'stop'}, {'fileName': 'squareblack.png', 'correct_response': 'right', 'condition': 'stop'}, {'fileName': 'squareblack.png', 'correct_response': 'right', 'condition': 'stop'}, {'fileName': 'circleblack.png', 'correct_response': 'left', 'condition': 'go'}, {'fileName': 'squareblack.png', 'correct_response': 'right', 'condition': 'go'}, {'fileName': 'circleblack.png', 'correct_response': 'left', 'condition': 'stop'}, {'fileName': 'squareblack.png', 'correct_response': 'right', 'condition': 'stop'}, {'fileName': 'circleblack.png', 'correct_response': 'left', 'condition': 'go'}, {'fileName': 'squareblack.png', 'correct_response': 'right', 'condition': 'go'}, {'fileName': 'squareblack.png', 'correct_response': 'right', 'condition': 'go'}, {'fileName': 'circleblack.png', 'correct_response': 'left', 'condition': 'go'}, {'fileName': 'circleblack.png', 'correct_response': 'left', 'condition': 'stop'}, {'fileName': 'squareblack.png', 'correct_response': 'right', 'condition': 'go'}, {'fileName': 'circleblack.png', 'correct_response': 'left', 'condition': 'go'}, {'fileName': 'circleblack.png', 'correct_response': 'left', 'condition': 'go'}, {'fileName': 'squareblack.png', 'correct_response': 'right', 'condition': 'go'}, {'fileName': 'circleblack.png', 'correct_response': 'left', 'condition': 'stop'}, {'fileName': 'squareblack.png', 'correct_response': 'right', 'condition': 'go'}, {'fileName': 'squareblack.png', 'correct_response': 'right', 'condition': 'stop'}, {'fileName': 'circleblack.png', 'correct_response': 'left', 'condition': 'stop'}, {'fileName': 'squareblack.png', 'correct_response': 'right', 'condition': 'stop'}, {'fileName': 'squareblack.png', 'correct_response': 'right', 'condition': 'go'}, {'fileName': 'circleblack.png', 'correct_response': 'left', 'condition': 'go'}, {'fileName': 'circleblack.png', 'correct_response': 'left', 'condition': 'go'}, {'fileName': 'circleblack.png', 'correct_response': 'left', 'condition': 'go'}, {'fileName': 'squareblack.png', 'correct_response': 'right', 'condition': 'go'}, {'fileName': 'squareblack.png', 'correct_response': 'right', 'condition': 'go'}, {'fileName': 'circleblack.png', 'correct_response': 'left', 'condition': 'stop'}, {'fileName': 'circleblack.png', 'correct_response': 'left', 'condition': 'stop'}, {'fileName': 'circleblack.png', 'correct_response': 'left', 'condition': 'go'}, {'fileName': 'squareblack.png', 'correct_response': 'right', 'condition': 'go'}, {'fileName': 'circleblack.png', 'correct_response': 'left', 'condition': 'go'}, {'fileName': 'squareblack.png', 'correct_response': 'right', 'condition': 'go'}, {'fileName': 'circleblack.png', 'correct_response': 'left', 'condition': 'go'}, {'fileName': 'squareblack.png', 'correct_response': 'right', 'condition': 'stop'}, {'fileName': 'circleblack.png', 'correct_response': 'left', 'condition': 'go'}, {'fileName': 'squareblack.png', 'correct_response': 'right', 'condition': 'go'}, {'fileName': 'squareblack.png', 'correct_response': 'right', 'condition': 'stop'}]",,,,,,s026,001,2024-08-12_13h16.05.800,simplestop_skeleton,2022.2.2,60.300860651885706,
None,None,,,,,,,,,2,0,2,0,0,0,0,2,,,,,,,,,356.0509669408202,go,squareblack.png,right,0.45,,,,,,,,,,,,,,,,,,0.0012148916721343994,0.49830159544944763,,358.5624670907855,test,3,,,,,,,356.0690810531378,356.575569935143,356.575569935143,356.575569935143,357.02613323926926,357.5766536593437,357.52658723294735,358.581308118999,right,1,0.8003036007285118,0.45,,,,,,,,,,,s026,001,2024-08-12_13h16.05.800,simplestop_skeleton,2022.2.2,60.300860651885706,
None,None,,,,,,,,,2,0,2,0,0,1,1,2,,,,,,,,,358.56300039589405,go,squareblack.png,right,0.45,,,,,,,,,,,,,,,,,,0.0013641342520713806,0.489674873650074,,361.06499319523573,test,3,,,,,,,358.581308118999,359.09504825621843,359.0784044191241,359.0784044191241,359.52865163236856,360.079648680985,360.028055369854,361.0840945318341,right,1,0.5663668066263199,0.45,,,,,,,,,,,s026,001,2024-08-12_13h16.05.800,simplestop_skeleton,2022.2.2,60.300860651885706,
None,None,,,,,,,,,2,0,2,0,0,2,2,1,,,,,,,,,361.0654285028577,stop,circleblack.png,left,0.45,,,,,,,,,,,,,,,,,,0.0018663480877876282,0.48970209807157516,0.9403501749038696,363.5677131563425,test,3,,,,,,,361.0840945318341,361.59763619303703,361.5809765160084,361.5809765160084,362.03131613880396,362.5820505693555,362.53240144252777,363.58661273121834,None,0,,0.5,,,,,,,,,,,s026,001,2024-08-12_13h16.05.800,simplestop_skeleton,2022.2.2,60.300860651885706,
None,None,,,,,,,,,2,0,2,0,0,3,3,3,,,,,,,,,363.5681407004595,go,circleblack.png,left,0.5,,,,,,,,,,,,,,,,,,0.0013252198696136475,0.4898928999900818,,366.07060297578573,test,3,,,,,,,363.58661273121834,364.1003596559167,364.08389611542225,364.08389611542225,364.5842212289572,365.0848586112261,365.0848586112261,366.08817856758833,left,1,0.734793558716774,0.5,,,,,,,,,,,s026,001,2024-08-12_13h16.05.800,simplestop_skeleton,2022.2.2,60.300860651885706,
None,None,,,,,,,,,2,0,2,0,1,0,4,3,,,,,,,,,366.0710409209132,go,circleblack.png,left,0.5,,,,,,,,,,,,,,,,,,0.0014299005270004272,0.48981257528066635,,368.5735078677535,test,3,,,,,,,366.08817856758833,366.60356935858727,366.5866506025195,366.5866506025195,367.0873015895486,367.58763348311186,367.58763348311186,368.5927664041519,left,1,0.8183995708823204,0.5,,,,,,,,,,,s026,001,2024-08-12_13h16.05.800,simplestop_skeleton,2022.2.2,60.300860651885706,
None,None,,,,,,,,,2,0,2,0,1,1,5,3,,,,,,,,,368.57393480092287,go,squareblack.png,right,0.5,,,,,,,,,,,,,,,,,,0.0018640384078025818,0.48970433324575424,,371.07591612637043,test,3,,,,,,,368.5927664041519,369.10606200248003,369.0892189666629,369.0892189666629,369.5902167260647,370.0889869853854,370.10641085356474,371.09438367187977,right,1,0.713119626045227,0.5,,,,,,,,,,,s026,001,2024-08-12_13h16.05.800,simplestop_skeleton,2022.2.2,60.300860651885706,
None,None,,,,,,,,,2,0,2,0,1,2,6,2,,,,,,,,,371.0763655230403,go,squareblack.png,right,0.5,,,,,,,,,,,,,,,,,,0.0012455955147743225,0.48983509093523026,,373.57872727513313,test,3,,,,,,,371.09438367187977,371.6087577417493,371.5919359251857,371.5919359251857,372.09252566844225,372.5924931317568,372.5924931317568,373.59827553480864,right,1,0.5097964107990265,0.5,,,,,,,,,,,s026,001,2024-08-12_13h16.05.800,simplestop_skeleton,2022.2.2,60.300860651885706,
None,None,,,,,,,,,2,0,2,0,1,3,7,2,,,,,,,,,373.5791539102793,go,circleblack.png,left,0.5,,,,,,,,,,,,,,,,,,0.0019631236791610718,0.4897228628396988,,376.08186596632004,test,3,,,,,,,373.59827553480864,374.1115447357297,374.09485913068056,374.09485913068056,374.5953592285514,375.09443348646164,375.09443348646164,376.1008363440633,left,1,0.676291823387146,0.5,,,,,,,,,,,s026,001,2024-08-12_13h16.05.800,simplestop_skeleton,2022.2.2,60.300860651885706,
None,None,,,,,,,,,2,0,2,0,2,0,8,3,,,,,,,,,376.0823055058718,stop,squareblack.png,right,0.5,,,,,,,,,,,,,,,,,,0.0017373934388160706,0.489721342921257,0.9901732802391052,378.58462931215763,test,3,,,,,,,376.1008363440633,376.61462523043156,376.5975235328078,376.5975235328078,377.09827845543623,377.59892477095127,377.59892477095127,378.60387712717056,None,0,,0.55,,,,,,,,,,,s026,001,2024-08-12_13h16.05.800,simplestop_skeleton,2022.2.2,60.300860651885706,
None,None,,,,,,,,,2,0,2,0,2,1,9,2,,,,,,,,,378.58506958931684,go,circleblack.png,left,0.55,,,,,,,,,,,,,,,,,,0.0019201934337615967,0.4894837588071823,,381.08733040094376,test,3,,,,,,,378.60387712717056,379.1170140504837,379.1005132570863,379.1005132570863,379.65110155195,380.100368745625,380.1511877402663,381.1058420315385,left,1,0.6344994828104973,0.55,,,,,,,,,,,s026,001,2024-08-12_13h16.05.800,simplestop_skeleton,2022.2.2,60.300860651885706,
None,None,,,,,,,,,2,0,2,0,2,2,10,3,,,,,,,,,381.08776661008596,stop,circleblack.png,left,0.55,,,,,,,,,,,,,,,,,,0.0013917535543441772,0.48942868411540985,1.0404490604996681,383.5900265350938,test,3,,,,,,,381.1058420315385,381.61981681734324,381.60306296497583,381.60306296497583,382.1538965329528,382.6028866842389,382.653498634696,383.6092948690057,left,1,0.6418775618076324,0.5,,,,,,,,,,,s026,001,2024-08-12_13h16.05.800,simplestop_skeleton,2022.2.2,60.300860651885706,
None,None,,,,,,,,,2,0,2,0,2,3,11,1,,,,,,,,,383.5904625952244,stop,squareblack.png,right,0.5,,,,,,,,,,,,,,,,,,0.0016702190041542053,0.48955804854631424,0.9901634305715561,386.0926016122103,test,3,,,,,,,383.6092948690057,384.12259670346975,384.10597705096006,384.10597705096006,384.60636921972036,385.10698579251766,385.10698579251766,386.1114174723625,right,1,0.6959096416831017,0.45,,,,,,,,,,,s026,001,2024-08-12_13h16.05.800,simplestop_skeleton,2022.2.2,60.300860651885706,
None,None,,,,,,,,,2,0,2,0,3,0,12,1,,,,,,,,,386.0930300876498,stop,squareblack.png,right,0.45,,,,,,,,,,,,,,,,,,0.0013032183051109314,0.4895404428243637,0.9401145800948143,388.59546661376953,test,3,,,,,,,386.1114174723625,386.62554198503494,386.60892368108034,386.60892368108034,387.05927434563637,387.6101459264755,387.55984852463007,388.6145876571536,None,0,,0.5,,,,,,,,,,,s026,001,2024-08-12_13h16.05.800,simplestop_skeleton,2022.2.2,60.300860651885706,
$currentCorrectResponse,$currentGoStim,,,,,,,,,2,0,2,0,3,1,13,0,,,,,,,,,388.59591119736433,go,circleblack.png,left,0.5,,,,,,,,,,,,,,,,,,0.0017152130603790283,0.4896434023976326,,391.0982435196638,test,3,,,,,,,388.6145876571536,389.1282061561942,389.1116949915886,389.1116949915886,389.61225578933954,390.1116219162941,390.1116219162941,391.11760172247887,left,1,0.705640472471714,0.5,,,,,,,,,,,s026,001,2024-08-12_13h16.05.800,simplestop_skeleton,2022.2.2,60.300860651885706,
None,None,,,,,,,,,2,0,2,0,3,2,14,1,,,,,,,,,391.09867112338543,go,squareblack.png,right,0.5,,,,,,,,,,,,,,,,,,0.0017392635345458984,0.4895557835698128,,393.60092432051897,test,3,,,,,,,391.11760172247887,391.63085244596004,391.6141255646944,391.6141255646944,392.11460354179144,392.6154402643442,392.6154402643442,393.62008894234896,right,1,0.8514416962862015,0.5,,,,,,,,,,,s026,001,2024-08-12_13h16.05.800,simplestop_skeleton,2022.2.2,60.300860651885706,
$currentCorrectResponse,$currentGoStim,,,,,,,,,2,0,2,0,3,3,15,0,,,,,,,,,393.6013607904315,stop,circleblack.png,left,0.5,,,,,,,,,,,,,,,,,,0.001893647015094757,0.4898197278380394,0.9902953654527664,396.1038054302335,test,3,,,,,,,393.62008894234896,394.1335711181164,394.116743914783,394.116743914783,394.61742616444826,395.1179851144552,395.1179851144552,396.12363893538713,None,0,,0.55,,,,,,,,,,,s026,001,2024-08-12_13h16.05.800,simplestop_skeleton,2022.2.2,60.300860651885706,
$currentCorrectResponse,$currentGoStim,,,,,,,,,2,0,2,0,4,0,16,0,,,,,,,,,396.1042470559478,stop,squareblack.png,right,0.55,,,,,,,,,,,,,,,,,,0.0017729997634887695,0.4891154617071152,1.0398953258991241,398.6066185981035,test,3,,,,,,,396.12363893538713,396.63669131696224,396.61970999091864,396.61970999091864,397.1703835129738,397.62090519070625,397.67089001089334,398.6257198601961,right,1,0.7398801743984222,0.5,,,,,,,,,,,s026,001,2024-08-12_13h16.05.800,simplestop_skeleton,2022.2.2,60.300860651885706,
$currentCorrectResponse,$currentGoStim,,,,,,,,,2,0,2,0,4,1,17,0,,,,,,,,,398.6070527806878,go,circleblack.png,left,0.5,,,,,,,,,,,,,,,,,,0.0017888545989990234,0.4898598790168762,,401.1091112419963,test,3,,,,,,,398.6257198601961,399.1390215680003,399.1226610019803,399.1226610019803,399.6230998262763,400.12234450131655,400.12234450131655,401.1280834376812,left,1,0.664285235106945,0.5,,,,,,,,,,,s026,001,2024-08-12_13h16.05.800,simplestop_skeleton,2022.2.2,60.300860651885706,
$currentCorrectResponse,$currentGoStim,,,,,,,,,2,0,2,0,4,2,18,0,,,,,,,,,401.1096187531948,go,squareblack.png,right,0.5,,,,,,,,,,,,,,,,,,0.0016033053398132324,0.48980946093797684,,403.6117611601949,test,3,,,,,,,401.1280834376812,401.64198584109545,401.6251912564039,401.6251912564039,402.1256527751684,402.6263291761279,402.6263291761279,403.6306888535619,right,1,0.7563352957367897,0.5,,,,,,,,,,,s026,001,2024-08-12_13h16.05.800,simplestop_skeleton,2022.2.2,60.300860651885706,
None,None,,,,,,,,,2,0,2,0,4,3,19,3,,,,,,,,,403.61218808591366,go,squareblack.png,right,0.5,,,,,,,,,,,,,,,,,,0.0011851191520690918,0.4897393211722374,,406.1146915256977,test,3,,,,,,,403.6306888535619,404.1444123759866,404.1277400255203,404.1277400255203,404.6285615488887,405.1303011402488,405.1303011402488,406.13402516394854,right,1,0.7353525161743164,0.5,,,,,,,,,,,s026,001,2024-08-12_13h16.05.800,simplestop_skeleton,2022.2.2,60.300860651885706,
None,None,,,,,,,,,2,0,2,0,5,0,20,1,,,,,,,,,406.11511904001236,go,circleblack.png,left,0.5,,,,,,,,,,,,,,,,,,0.001871354877948761,0.489997535943985,,408.6174529865384,test,3,,,,,,,406.13402516394854,406.64786046743393,406.63073302060366,406.63073302060366,407.1315017417073,407.6313899382949,407.6313899382949,408.6364277601242,left,1,0.5395554155111313,0.5,,,,,,,,,,,s026,001,2024-08-12_13h16.05.800,simplestop_skeleton,2022.2.2,60.300860651885706,
None,None,,,,,,,,,2,0,2,0,5,1,21,2,,,,,,,,,408.6178830638528,stop,circleblack.png,left,0.5,,,,,,,,,,,,,,,,,,0.0013181418180465698,0.4897557869553566,0.9904670864343643,411.1203118041158,test,3,,,,,,,408.6364277601242,409.15014420449734,409.1335060596466,409.1335060596466,409.6340452283621,410.1345771998167,410.1345771998167,411.1392451822758,None,0,,0.55,,,,,,,,,,,s026,001,2024-08-12_13h16.05.800,simplestop_skeleton,2022.2.2,60.300860651885706,
None,None,,,,,,,,,2,0,2,0,5,2,22,1,,,,,,,,,411.120743252337,go,squareblack.png,right,0.55,,,,,,,,,,,,,,,,,,0.0016465634107589722,0.48980384320020676,,413.62293443083763,test,3,,,,,,,411.1392451822758,411.6528970003128,411.63618586957455,411.63618586957455,412.186785005033,412.63750695437193,412.68741646409035,413.64232362806797,right,1,0.8069490343332291,0.55,,,,,,,,,,,s026,001,2024-08-12_13h16.05.800,simplestop_skeleton,2022.2.2,60.300860651885706,
None,None,,,,,,,,,2,0,2,0,5,3,23,1,,,,,,,,,413.62337259948254,go,circleblack.png,left,0.55,,,,,,,,,,,,,,,,,,0.0019063055515289307,0.489785335958004,,416.12576825916767,test,3,,,,,,,413.64232362806797,414.1556324288249,414.13914389163256,414.13914389163256,414.6898856982589,415.13958337157965,415.18954484164715,416.1441400051117,left,1,0.5348135456442833,0.55,,,,,,,,,,,s026,001,2024-08-12_13h16.05.800,simplestop_skeleton,2022.2.2,60.300860651885706,
None,None,,,,,,,,,2,0,2,0,6,0,24,1,,,,,,,,,416.1262055635452,go,circleblack.png,left,0.55,,,,,,,,,,,,,,,,,,0.0012529119849205017,0.490088626742363,,418.6289042979479,test,3,,,,,,,416.1441400051117,416.65872126072645,416.64168448001146,416.64168448001146,417.19248601049185,417.6423508375883,417.69261905550957,418.6479429677129,left,1,0.3997918963432312,0.55,,,,,,,,,,,s026,001,2024-08-12_13h16.05.800,simplestop_skeleton,2022.2.2,60.300860651885706,
None,None,,,,,,,,,2,0,2,0,6,1,25,1,,,,,,,,,418.62933418899775,go,squareblack.png,right,0.55,,,,,,,,,,,,,,,,,,0.0017872005701065063,0.4893706664443016,,421.1311197578907,test,3,,,,,,,418.6479429677129,419.1615824177861,419.1444562673569,419.1444562673569,419.695101544261,420.14434070140123,420.19624711573124,421.15040846168995,right,1,0.6059373989701271,0.55,,,,,,,,,,,s026,001,2024-08-12_13h16.05.800,simplestop_skeleton,2022.2.2,60.300860651885706,
None,None,,,,,,,,,2,0,2,0,6,2,26,3,,,,,,,,,421.1315462961793,stop,circleblack.png,left,0.55,,,,,,,,,,,,,,,,,,0.0018042251467704773,0.4899269714951515,1.0405230149626732,423.6341575011611,test,3,,,,,,,421.15040846168995,421.6641551554203,421.64728866517544,421.64728866517544,422.19771456718445,422.64707063138485,422.697802439332,423.65317545831203,left,1,0.646439716219902,0.5,,,,,,,,,,,s026,001,2024-08-12_13h16.05.800,simplestop_skeleton,2022.2.2,60.300860651885706,
$currentCorrectResponse,$currentGoStim,,,,,,,,,2,0,2,0,6,3,27,0,,,,,,,,,423.6345816105604,go,squareblack.png,right,0.5,,,,,,,,,,,,,,,,,,0.001627206802368164,0.4895249307155609,,426.1370391100645,test,3,,,,,,,423.65317545831203,424.16654492914677,424.1500215679407,424.1500215679407,424.6504251733422,425.15054478496313,425.15054478496313,426.1546271070838,right,1,0.5239976570010185,0.5,,,,,,,,,,,s026,001,2024-08-12_13h16.05.800,simplestop_skeleton,2022.2.2,60.300860651885706,
None,None,,,,,,,,,2,0,2,0,7,0,28,1,,,,,,,,,426.13747353851795,stop,squareblack.png,right,0.5,,,,,,,,,,,,,,,,,,0.0012422651052474976,0.4897577539086342,0.9901921153068542,428.63963340967894,test,3,,,,,,,426.1546271070838,426.6695693433285,426.65281722694635,426.65281722694635,427.15334852039814,427.654146283865,427.654146283865,428.6587733924389,None,0,,0.55,,,,,,,,,,,s026,001,2024-08-12_13h16.05.800,simplestop_skeleton,2022.2.2,60.300860651885706,
None,None,,,,,,,,,2,0,2,0,7,1,29,2,,,,,,,,,428.6400723904371,stop,circleblack.png,left,0.55,,,,,,,,,,,,,,,,,,0.001878790557384491,0.4900112673640251,1.0406818762421608,431.1423039957881,test,3,,,,,,,428.6587733924389,429.1722426265478,429.15580677241087,429.15580677241087,429.7068751603365,430.1593210250139,430.2221290767193,431.1612226217985,left,1,0.71696437895298,0.5,,,,,,,,,,,s026,001,2024-08-12_13h16.05.800,simplestop_skeleton,2022.2.2,60.300860651885706,
$currentCorrectResponse,$currentGoStim,,,,,,,,,2,0,2,0,7,2,30,0,,,,,,,,,431.142737865448,stop,squareblack.png,right,0.5,,,,,,,,,,,,,,,,,,0.0016718953847885132,0.48993510752916336,0.9906679689884186,433.64503763616085,test,3,,,,,,,431.1612226217985,431.6752367094159,431.65832374989986,431.65832374989986,432.1592339873314,432.6590059697628,432.6590059697628,433.6627562120557,right,1,0.489691361784935,0.45,,,,,,,,,,,s026,001,2024-08-12_13h16.05.800,simplestop_skeleton,2022.2.2,60.300860651885706,
None,None,,,,,,,,,2,0,2,0,7,3,31,1,,,,,,,,,433.6454635411501,go,squareblack.png,right,0.45,,,,,,,,,,,,,,,,,,0.00124378502368927,0.4897483289241791,,436.14770909398794,test,3,,,,,,,433.6627562120557,434.1778180450201,434.1612467467785,434.1612467467785,434.6116440296173,435.1623128950596,435.11227675527334,436.1671565026045,right,1,1.1946721374988556,0.45,,,,,,,,,,,s026,001,2024-08-12_13h16.05.800,simplestop_skeleton,2022.2.2,60.300860651885706,
None,None,,,,,,,,,2,0,2,0,8,0,32,3,,,,,,,,,436.14815554767847,go,circleblack.png,left,0.45,,,,,,,,,,,,,,,,,,0.001770898699760437,0.4896047115325928,,438.6503880172968,test,3,,,,,,,436.1671565026045,436.68058302253485,436.66387547552586,436.66387547552586,437.1141948327422,437.6641375347972,437.61444599181414,438.6695132032037,left,1,0.46940751373767853,0.45,,,,,,,,,,,s026,001,2024-08-12_13h16.05.800,simplestop_skeleton,2022.2.2,60.300860651885706,
None,None,,,,,,,,,2,0,2,0,8,1,33,2,,,,,,,,,438.6508236974478,go,circleblack.png,left,0.45,,,,,,,,,,,,,,,,,,0.0012715235352516174,0.48981883376836777,,441.15333174169064,test,3,,,,,,,438.6695132032037,439.1832055002451,439.1663324087858,439.1663324087858,439.6170279979706,440.16704096645117,440.117245554924,441.1721121072769,left,1,0.4046074375510216,0.45,,,,,,,,,,,s026,001,2024-08-12_13h16.05.800,simplestop_skeleton,2022.2.2,60.300860651885706,
$currentCorrectResponse,$currentGoStim,,,,,,,,,2,0,2,0,8,2,34,0,,,,,,,,,441.1537553742528,go,circleblack.png,left,0.45,,,,,,,,,,,,,,,,,,0.0012773498892784119,0.4897231310606003,,443.6558104828,test,3,,,,,,,441.1721121072769,441.68584153056145,441.6691474542022,441.6691474542022,442.11985920369625,442.67036505788565,442.6205004900694,443.67525085806847,left,1,0.8076966404914856,0.45,,,,,,,,,,,s026,001,2024-08-12_13h16.05.800,simplestop_skeleton,2022.2.2,60.300860651885706,
$currentCorrectResponse,$currentGoStim,,,,,,,,,2,0,2,0,8,3,35,0,,,,,,,,,443.6562320739031,go,squareblack.png,right,0.45,,,,,,,,,,,,,,,,,,0.0018266290426254272,0.4898737818002701,,446.1585211083293,test,3,,,,,,,443.67525085806847,444.18868354707956,444.1722905561328,444.1722905561328,444.6224568411708,445.1732548624277,445.1231582313776,446.1767694428563,right,1,0.8232000321149826,0.45,,,,,,,,,,,s026,001,2024-08-12_13h16.05.800,simplestop_skeleton,2022.2.2,60.300860651885706,
None,None,,,,,,,,,2,0,2,0,9,0,36,2,,,,,,,,,446.15894612669945,go,squareblack.png,right,0.45,,,,,,,,,,,,,,,,,,0.0012707486748695374,0.48987671732902527,,448.66140757501125,test,3,,,,,,,446.1767694428563,446.69156039506197,446.67485082149506,446.67485082149506,447.12526351213455,447.67603090405464,447.6256829723716,448.68047861754894,right,1,1.0216501206159592,0.45,,,,,,,,,,,s026,001,2024-08-12_13h16.05.800,simplestop_skeleton,2022.2.2,60.300860651885706,
None,None,,,,,,,,,2,0,2,0,9,1,37,2,,,,,,,,,448.6618360951543,stop,circleblack.png,left,0.45,,,,,,,,,,,,,,,,,,0.001835368573665619,0.48988359421491623,0.9405551627278328,451.16420762985945,test,3,,,,,,,448.68047861754894,449.19428089261055,449.1775822713971,449.1775822713971,449.62802381813526,450.17795191705227,450.12814711779356,451.1831571236253,left,1,0.4765309616923332,0.4,,,,,,,,,,,s026,001,2024-08-12_13h16.05.800,simplestop_skeleton,2022.2.2,60.300860651885706,
None,None,,,,,,,,,2,0,2,0,9,2,38,3,,,,,,,,,451.16463274508715,stop,circleblack.png,left,0.4,,,,,,,,,,,,,,,,,,0.0013100281357765198,0.4898598864674568,0.8901979178190231,453.667279407382,test,3,,,,,,,451.1831571236253,451.6968464702368,451.68047112971544,451.68047112971544,452.0807292535901,452.68069034814835,452.5805946961045,453.68492186814547,left,1,0.34336160123348236,0.35,,,,,,,,,,,s026,001,2024-08-12_13h16.05.800,simplestop_skeleton,2022.2.2,60.300860651885706,
$currentCorrectResponse,$currentGoStim,,,,,,,,,2,0,2,0,9,3,39,0,,,,,,,,,453.66771960258484,go,circleblack.png,left,0.35,,,,,,,,,,,,,,,,,,0.0013490021228790283,0.48939329385757446,,456.1699045971036,test,3,,,,,,,453.68492186814547,454.19968220591545,454.1831563487649,454.1831563487649,454.5334580615163,455.18371245265007,455.03349954634905,456.1890072748065,left,1,0.39784956723451614,0.35,,,,,,,,,,,s026,001,2024-08-12_13h16.05.800,simplestop_skeleton,2022.2.2,60.300860651885706,
None,None,,,,,,,,,2,0,2,0,10,0,40,3,,,,,,,,,456.170336343348,go,squareblack.png,right,0.35,,,,,,,,,,,,,,,,,,0.0016733333468437195,0.4898267835378647,,458.6726828292012,test,3,,,,,,,456.1890072748065,456.70268961787224,456.686044678092,456.686044678092,457.03648092597723,457.68627332895994,457.53631192445755,458.69182942807674,right,1,0.32294778525829315,0.35,,,,,,,,,,,s026,001,2024-08-12_13h16.05.800,simplestop_skeleton,2022.2.2,60.300860651885706,
None,None,,,,,,,,,2,0,2,0,10,1,41,3,,,,,,,,,458.67311300337315,go,circleblack.png,left,0.35,,,,,,,,,,,,,,,,,,0.001786835491657257,0.48988688737154007,,461.1754802018404,test,3,,,,,,,458.69182942807674,459.20567490160465,459.18867430090904,459.18867430090904,459.5392877086997,460.18937661498785,460.03899101912975,461.1948656886816,left,1,0.35639242082834244,0.35,,,,,,,,,,,s026,001,2024-08-12_13h16.05.800,simplestop_skeleton,2022.2.2,60.300860651885706,
$currentCorrectResponse,$currentGoStim,,,,,,,,,2,0,2,0,10,2,42,0,,,,,,,,,461.17591801285744,go,squareblack.png,right,0.35,,,,,,,,,,,,,,,,,,0.0016644373536109924,0.4891800656914711,,463.6781966164708,test,3,,,,,,,461.1948656886816,461.7076670974493,461.6909402087331,461.6909402087331,462.0417291224003,462.6925475075841,462.54235257953405,463.69742454588413,right,1,0.892691969871521,0.35,,,,,,,,,,,s026,001,2024-08-12_13h16.05.800,simplestop_skeleton,2022.2.2,60.300860651885706,
None,None,,,,,,,,,2,0,2,0,10,3,43,1,,,,,,,,,463.6786266863346,go,circleblack.png,left,0.35,,,,,,,,,,,,,,,,,,0.0018341392278671265,0.48966825753450394,,466.18107265233994,test,3,,,,,,,463.69742454588413,464.2108036130667,464.194250382483,464.194250382483,464.5444813147187,465.195383451879,465.04509522765875,466.2000807002187,left,1,0.7436498403549194,0.35,,,,,,,,,,,s026,001,2024-08-12_13h16.05.800,simplestop_skeleton,2022.2.2,60.300860651885706,
None,None,,,,,,,,,2,0,2,0,11,0,44,2,,,,,,,,,466.1815140545368,stop,squareblack.png,right,0.35,,,,,,,,,,,,,,,,,,0.0017518848180770874,0.4895446375012398,0.840140737593174,468.68380405008793,test,3,,,,,,,466.2000807002187,466.713615603745,466.6970924511552,466.6970924511552,467.0474969148636,467.69830249249935,467.5479795113206,468.70303639024496,None,0,,0.4,,,,,,,,,,,s026,001,2024-08-12_13h16.05.800,simplestop_skeleton,2022.2.2,60.300860651885706,
$currentCorrectResponse,$currentGoStim,,,,,,,,,2,0,2,0,11,1,45,0,,,,,,,,,468.68424996733665,go,circleblack.png,left,0.4,,,,,,,,,,,,,,,,,,0.001762382686138153,0.4898480921983719,,471.18657625466585,test,3,,,,,,,468.70303639024496,469.216396830976,469.1999420002103,469.1999420002103,469.60022073984146,470.2004163712263,470.09945192188025,471.2058737054467,left,1,0.5251025706529617,0.4,,,,,,,,,,,s026,001,2024-08-12_13h16.05.800,simplestop_skeleton,2022.2.2,60.300860651885706,
None,None,,,,,,,,,2,0,2,0,11,2,46,3,,,,,,,,,471.1870090588927,go,squareblack.png,right,0.4,,,,,,,,,,,,,,,,,,0.0019230842590332031,0.48959117382764816,,473.68932178616524,test,3,,,,,,,471.2058737054467,471.719144500792,471.7025294601917,471.7025294601917,472.1031823903322,472.704837217927,472.60348212718964,473.7067050561309,right,1,0.7011154145002365,0.4,,,,,,,,,,,s026,001,2024-08-12_13h16.05.800,simplestop_skeleton,2022.2.2,60.300860651885706,
None,None,,,,,,,,,2,0,2,0,11,3,47,2,,,,,,,,,473.6897477209568,stop,squareblack.png,right,0.4,,,,,,,,,,,,,,,,,,0.0012039095163345337,0.48985327035188675,0.8902292400598526,476.1921419799328,test,3,,,,,,,473.7067050561309,474.22195233404636,474.2052024900913,474.2052024900913,474.60568756610155,475.20638059079647,475.1062611117959,476.2076033130288,None,0,,0.45,,,,,,,,,,,s026,001,2024-08-12_13h16.05.800,simplestop_skeleton,2022.2.2,60.300860651885706,
