corrGoResp,shape,practiceBlocks.thisRepN,practiceBlocks.thisTrialN,practiceBlocks.thisN,practiceBlocks.thisIndex,practiceTrials.thisRepN,practiceTrials.thisTrialN,practiceTrials.thisN,practiceTrials.thisIndex,stopBlocks.thisRepN,stopBlocks.thisTrialN,stopBlocks.thisN,stopBlocks.thisIndex,testTrials.thisRepN,testTrials.thisTrialN,testTrials.thisN,testTrials.thisIndex,stopPracTrialList,Test Block: 1,welcome.started,start_exp.started,start_exp.keys,start_exp.rt,instrStopText.started,start_prac.started,StartTrialTimeStamp,trialType,goStim,correctResponse,ssd,fixation.started,rules.started,goStim.started,goResp.started,fixation.stopped,stopSignal.started,stopSignal.stopped,goStim.stopped,goResp.stopped,rules.stopped,goResp.keys,goResp.corr,goResp.rt,text.started,rules_2.started,text.stopped,rules_2.stopped,fixationOnset,goStimOnset,stopSignalOnset,EndTrialTimeStamp,Phase,Block,text_5.started,key_resp_3.started,key_resp_3.keys,key_resp_3.rt,key_resp.started,testText.started,test_fixation.started,test_fixation.stopped,goStim_test.started,goResp_test.started,stopSignal_test.started,stopSignal_test.stopped,goStim_test.stopped,goResp_test.stopped,goResp_test.keys,goResp_test.corr,goResp_test.rt,EndingSSD,text_6.started,key_resp_4.started,key_resp_4.keys,key_resp_4.rt,Test Block: 2,Test Block: 3,ending_text.started,end_resp.started,end_resp.keys,end_resp.rt,participant,session,date,expName,psychopyVersion,frameRate,
,,,,,,,,,,,,,,,,,,"[{'fileName': 'squareblack.png', 'correct_response': 'right', 'condition': 'go'}, {'fileName': 'squareblack.png', 'correct_response': 'right', 'condition': 'go'}, {'fileName': 'circleblack.png', 'correct_response': 'left', 'condition': 'go'}, {'fileName': 'circleblack.png', 'correct_response': 'left', 'condition': 'go'}, {'fileName': 'circleblack.png', 'correct_response': 'left', 'condition': 'go'}, {'fileName': 'squareblack.png', 'correct_response': 'right', 'condition': 'go'}, {'fileName': 'squareblack.png', 'correct_response': 'right', 'condition': 'stop'}, {'fileName': 'circleblack.png', 'correct_response': 'left', 'condition': 'stop'}, {'fileName': 'circleblack.png', 'correct_response': 'left', 'condition': 'stop'}, {'fileName': 'squareblack.png', 'correct_response': 'right', 'condition': 'stop'}, {'fileName': 'circleblack.png', 'correct_response': 'left', 'condition': 'go'}, {'fileName': 'squareblack.png', 'correct_response': 'right', 'condition': 'go'}, {'fileName': 'squareblack.png', 'correct_response': 'right', 'condition': 'go'}, {'fileName': 'squareblack.png', 'correct_response': 'right', 'condition': 'go'}, {'fileName': 'squareblack.png', 'correct_response': 'right', 'condition': 'go'}, {'fileName': 'circleblack.png', 'correct_response': 'left', 'condition': 'go'}, {'fileName': 'circleblack.png', 'correct_response': 'left', 'condition': 'stop'}, {'fileName': 'squareblack.png', 'correct_response': 'right', 'condition': 'stop'}, {'fileName': 'circleblack.png', 'correct_response': 'left', 'condition': 'stop'}, {'fileName': 'circleblack.png', 'correct_response': 'left', 'condition': 'go'}, {'fileName': 'circleblack.png', 'correct_response': 'left', 'condition': 'go'}, {'fileName': 'circleblack.png', 'correct_response': 'left', 'condition': 'go'}, {'fileName': 'squareblack.png', 'correct_response': 'right', 'condition': 'stop'}, {'fileName': 'squareblack.png', 'correct_response': 'right', 'condition': 'go'}]","[{'fileName': 'squareblack.png', 'correct_response': 'right', 'condition': 'stop'}, {'fileName': 'circleblack.png', 'correct_response': 'left', 'condition': 'stop'}, {'fileName': 'squareblack.png', 'correct_response': 'right', 'condition': 'go'}, {'fileName': 'circleblack.png', 'correct_response': 'left', 'condition': 'go'}, {'fileName': 'squareblack.png', 'correct_response': 'right', 'condition': 'stop'}, {'fileName': 'circleblack.png', 'correct_response': 'left', 'condition': 'stop'}, {'fileName': 'squareblack.png', 'correct_response': 'right', 'condition': 'go'}, {'fileName': 'circleblack.png', 'correct_response': 'left', 'condition': 'go'}, {'fileName': 'squareblack.png', 'correct_response': 'right', 'condition': 'go'}, {'fileName': 'squareblack.png', 'correct_response': 'right', 'condition': 'go'}, {'fileName': 'circleblack.png', 'correct_response': 'left', 'condition': 'go'}, {'fileName': 'circleblack.png', 'correct_response': 'left', 'condition': 'go'}, {'fileName': 'squareblack.png', 'correct_response': 'right', 'condition': 'go'}, {'fileName': 'circleblack.png', 'correct_response': 'left', 'condition': 'go'}, {'fileName': 'squareblack.png', 'correct_response': 'right', 'condition': 'stop'}, {'fileName': 'circleblack.png', 'correct_response': 'left', 'condition': 'stop'}, {'fileName': 'circleblack.png', 'correct_response': 'left', 'condition': 'go'}, {'fileName': 'squareblack.png', 'correct_response': 'right', 'condition': 'stop'}, {'fileName': 'squareblack.png', 'correct_response': 'right', 'condition': 'go'}, {'fileName': 'circleblack.png', 'correct_response': 'left', 'condition': 'go'}, {'fileName': 'squareblack.png', 'correct_response': 'right', 'condition': 'go'}, {'fileName': 'circleblack.png', 'correct_response': 'left', 'condition': 'stop'}, {'fileName': 'squareblack.png', 'correct_response': 'right', 'condition': 'go'}, {'fileName': 'circleblack.png', 'correct_response': 'left', 'condition': 'go'}, {'fileName': 'circleblack.png', 'correct_response': 'left', 'condition': 'stop'}, {'fileName': 'squareblack.png', 'correct_response': 'right', 'condition': 'go'}, {'fileName': 'circleblack.png', 'correct_response': 'left', 'condition': 'stop'}, {'fileName': 'circleblack.png', 'correct_response': 'left', 'condition': 'go'}, {'fileName': 'circleblack.png', 'correct_response': 'left', 'condition': 'go'}, {'fileName': 'circleblack.png', 'correct_response': 'left', 'condition': 'go'}, {'fileName': 'squareblack.png', 'correct_response': 'right', 'condition': 'stop'}, {'fileName': 'circleblack.png', 'correct_response': 'left', 'condition': 'go'}, {'fileName': 'squareblack.png', 'correct_response': 'right', 'condition': 'go'}, {'fileName': 'squareblack.png', 'correct_response': 'right', 'condition': 'go'}, {'fileName': 'squareblack.png', 'correct_response': 'right', 'condition': 'go'}, {'fileName': 'squareblack.png', 'correct_response': 'right', 'condition': 'stop'}, {'fileName': 'squareblack.png', 'correct_response': 'right', 'condition': 'go'}, {'fileName': 'squareblack.png', 'correct_response': 'right', 'condition': 'stop'}, {'fileName': 'squareblack.png', 'correct_response': 'right', 'condition': 'stop'}, {'fileName': 'circleblack.png', 'correct_response': 'left', 'condition': 'go'}, {'fileName': 'circleblack.png', 'correct_response': 'left', 'condition': 'go'}, {'fileName': 'circleblack.png', 'correct_response': 'left', 'condition': 'stop'}, {'fileName': 'circleblack.png', 'correct_response': 'left', 'condition': 'go'}, {'fileName': 'squareblack.png', 'correct_response': 'right', 'condition': 'go'}, {'fileName': 'circleblack.png', 'correct_response': 'left', 'condition': 'stop'}, {'fileName': 'squareblack.png', 'correct_response': 'right', 'condition': 'go'}, {'fileName': 'circleblack.png', 'correct_response': 'left', 'condition': 'go'}, {'fileName': 'squareblack.png', 'correct_response': 'right', 'condition': 'go'}]",2955.529962223023,2955.529962223023,return,1.9279456064105034,,,,,,,,,,,,,,,,,,,,,,,,,,,,,,,,,,,,,,,,,,,,,,,,,,,,,,,,,,,s025,001,2024-08-08_15h16.00.058,simplestop_skeleton,2022.2.2,59.8382769851145,
None,None,0,0,0,0,0,0,0,2,,,,,,,,,,,,,,,2957.5015540495515,2957.5015540495515,3012.003069791943,go,squareblack.png,right,0.35,3012.026078596711,3012.026078596711,3012.512850679457,3012.512850679457,3012.5293762236834,3012.86325693503,3013.3662882968783,3013.5140024907887,3014.5149419493973,3014.5317307002842,right,1,0.8118830807507038,3014.5317307002842,3014.5317307002842,3015.0361871272326,3015.0361871272326,0.0028830915689468384,0.48314136639237404,0.8335204012691975,3015.016553301364,practice,1,,,,,,,,,,,,,,,,,,,,,,,,,,,,,s025,001,2024-08-08_15h16.00.058,simplestop_skeleton,2022.2.2,59.8382769851145,
None,None,0,0,0,0,0,1,1,1,,,,,,,,,,,,,,,,,3015.0171007700264,go,squareblack.png,right,0.35,3015.0361871272326,3015.0361871272326,3015.532932251692,3015.532932251692,3015.5496024675667,3015.883435063064,3016.399105347693,3016.5327518992126,3017.533637356013,3017.5502893663943,right,1,0.43147170171141624,3017.5502893663943,3017.5502893663943,3018.0587822943926,3018.0587822943926,0.0012957118451595306,0.48960697650909424,0.8397744968533516,3018.035145673901,practice,1,,,,,,,,,,,,,,,,,,,,,,,,,,,,,s025,001,2024-08-08_15h16.00.058,simplestop_skeleton,2022.2.2,59.8382769851145,
$currentCorrectResponse,$currentGoStim,0,0,0,0,0,2,2,0,,,,,,,,,,,,,,,,,3018.0355674922466,go,circleblack.png,left,0.35,3018.0587822943926,3018.0587822943926,3018.5516010411084,3018.5516010411084,3018.568269252777,3018.901938125491,3019.4022158272564,3019.5524158664048,3020.5553188323975,3020.5719614066184,left,1,0.4395948015153408,3020.5719614066184,3020.5719614066184,,,0.007668487727642059,0.48954204097390175,0.8399870991706848,3021.0714372843504,practice,1,,,,,,,,,,,,,,,,,,,,,,,,,,,,,s025,001,2024-08-08_15h16.00.058,simplestop_skeleton,2022.2.2,59.8382769851145,
None,None,0,0,0,0,0,3,3,3,,,,,,,,,,,,,,,,,3021.071867324412,go,circleblack.png,left,0.35,3021.08934475109,3021.08934475109,3021.587891679257,3021.587891679257,3021.6046335101128,3021.938363302499,3022.4390847831964,3022.589211784303,3023.590248618275,3023.590248618275,left,1,0.3914448954164982,3023.590248618275,3023.590248618275,,,0.0012420974671840668,0.490045391023159,0.8403467908501625,3024.0749674364924,practice,1,,,,,,,,,,,,,,,,,,,,,,,,,,,,,s025,001,2024-08-08_15h16.00.058,simplestop_skeleton,2022.2.2,59.8382769851145,
$currentCorrectResponse,$currentGoStim,0,0,0,0,1,0,4,0,,,,,,,,,,,,,,,,,3024.0754077360034,go,circleblack.png,left,0.35,3024.0932155437768,3024.0932155437768,3024.5914250835776,3024.5914250835776,3024.608141541481,3024.942060548812,3025.4422231912613,3025.592499360442,3026.593699119985,3026.593699119985,left,1,0.34618398547172546,3026.593699119985,3026.593699119985,3027.096194714308,3027.096194714308,0.0013595446944236755,0.4898458272218704,0.8399908021092415,3027.078281402588,practice,1,,,,,,,,,,,,,,,,,,,,,,,,,,,,,s025,001,2024-08-08_15h16.00.058,simplestop_skeleton,2022.2.2,59.8382769851145,
None,None,0,0,0,0,1,1,5,2,,,,,,,,,,,,,,,,,3027.078706227243,go,squareblack.png,right,0.35,3027.096194714308,3027.096194714308,3027.5945146009326,3027.5945146009326,3027.611207038164,3027.9450917318463,3028.4457067996264,3028.595666591078,3029.5973400324583,3029.5973400324583,right,1,0.4057434983551502,3029.5973400324583,3029.5973400324583,3030.101303886622,3030.101303886622,0.0017091482877731323,0.4899829663336277,0.8404785469174385,3030.0817829333246,practice,1,,,,,,,,,,,,,,,,,,,,,,,,,,,,,s025,001,2024-08-08_15h16.00.058,simplestop_skeleton,2022.2.2,59.8382769851145,
None,None,0,0,0,0,1,2,6,2,,,,,,,,,,,,,,,,,3030.0822214484215,stop,squareblack.png,right,0.35,3030.101303886622,3030.101303886622,3030.5978729203343,3030.5978729203343,3030.614621296525,3030.948225300759,3031.448731161654,3031.5998755916953,3032.5999874286354,3032.6167700886726,right,1,0.5189036205410957,3032.6167700886726,3032.6167700886726,3033.119603510946,3033.119603510946,0.0013991929590702057,0.48823801428079605,0.838722001761198,3033.101593684405,practice,1,,,,,,,,,,,,,,,,,,,,,,,,,,,,,s025,001,2024-08-08_15h16.00.058,simplestop_skeleton,2022.2.2,59.8382769851145,
None,None,0,0,0,0,1,3,7,3,,,,,,,,,,,,,,,,,3033.102057762444,stop,circleblack.png,left,0.3,3033.119603510946,3033.119603510946,3033.617961369455,3033.617961369455,3033.634576190263,3033.918395061046,3034.4187409952283,3034.618896532804,3035.621891222894,3035.621891222894,left,1,0.3584289699792862,3035.621891222894,3035.621891222894,,,0.0017786435782909393,0.49023234099149704,0.7903438434004784,3036.1216970421374,practice,1,,,,,,,,,,,,,,,,,,,,,,,,,,,,,s025,001,2024-08-08_15h16.00.058,simplestop_skeleton,2022.2.2,59.8382769851145,
$currentCorrectResponse,$currentGoStim,0,0,0,0,2,0,8,0,,,,,,,,,,,,,,,,,3036.1221451684833,stop,circleblack.png,left,0.25,3036.140091970563,3036.140091970563,3036.6378632187843,3036.6378632187843,3036.654514759779,3036.888117905706,3037.3887229412794,3037.6390849612653,3038.639952003956,3038.639952003956,left,1,0.408207718282938,3038.639952003956,3038.639952003956,3039.143046092242,3039.143046092242,0.0013060756027698517,0.48934073001146317,0.7396221421658993,3039.1249475963414,practice,1,,,,,,,,,,,,,,,,,,,,,,,,,,,,,s025,001,2024-08-08_15h16.00.058,simplestop_skeleton,2022.2.2,59.8382769851145,
None,None,0,0,0,0,2,1,9,2,,,,,,,,,,,,,,,,,3039.1254033744335,stop,squareblack.png,right,0.2,3039.143046092242,3039.143046092242,3039.641551759094,3039.641551759094,3039.6579474918544,3039.841633234173,3040.341876309365,3040.642244067043,3041.643426131457,3041.643426131457,left,0,0.3845309093594551,3041.643426131457,3041.643426131457,3042.145974136889,3042.145974136889,0.001683063805103302,0.49008622393012047,0.6902771815657616,3042.1280699260533,practice,1,,,,,,,,,,,,,,,,,,,,,,,,,,,,,s025,001,2024-08-08_15h16.00.058,simplestop_skeleton,2022.2.2,59.8382769851145,
None,None,0,0,0,0,2,2,10,3,,,,,,,,,,,,,,,,,3042.1284882351756,go,circleblack.png,left,0.15,3042.145974136889,3042.145974136889,3042.644496947527,3042.644496947527,3042.6611177138984,3042.794801041484,3043.295390114188,3043.6456901170313,3044.6466492041945,3044.6466492041945,left,1,0.7931758053600788,3044.6466492041945,3044.6466492041945,,,0.0016995631158351898,0.4901615083217621,0.6402804590761662,3045.132273901254,practice,1,,,,,,,,,,,,,,,,,,,,,,,,,,,,,s025,001,2024-08-08_15h16.00.058,simplestop_skeleton,2022.2.2,59.8382769851145,
None,None,0,0,0,0,2,3,11,1,,,,,,,,,,,,,,,,,3045.1327240802348,go,squareblack.png,right,0.15,3045.151653755456,3045.151653755456,3045.6480448506773,3045.6480448506773,3045.6647508330643,3045.7981896474957,3046.2985875308514,3046.6489267647266,3047.650229740888,3047.666938059032,right,1,0.3544830232858658,3047.666938059032,3047.666938059032,3048.1690600700676,3048.1690600700676,0.00176943838596344,0.48904551565647125,0.6391980014741421,3048.1515528038144,practice,1,,,,,,,,,,,,,,,,,,,,,,,,,,,,,s025,001,2024-08-08_15h16.00.058,simplestop_skeleton,2022.2.2,59.8382769851145,
$currentCorrectResponse,$currentGoStim,0,0,0,0,3,0,12,0,,,,,,,,,,,,,,,,,3048.152012784034,go,squareblack.png,right,0.15,3048.1690600700676,3048.1690600700676,3048.667843889445,3048.667843889445,3048.6844888180494,3048.818270854652,3049.318646207452,3049.669105529785,3050.6701198183,3050.6701198183,right,1,0.6032841354608536,3050.6701198183,3050.6701198183,,,0.0011690370738506317,0.4897460378706455,0.6402856633067131,3051.156061720103,practice,1,,,,,,,,,,,,,,,,,,,,,,,,,,,,,s025,001,2024-08-08_15h16.00.058,simplestop_skeleton,2022.2.2,59.8382769851145,
None,None,0,0,0,0,3,1,13,1,,,,,,,,,,,,,,,,,3051.1565259359777,go,squareblack.png,right,0.15,3051.175146136433,3051.175146136433,3051.6713283732533,3051.6713283732533,3051.688010148704,3051.8214255310595,3052.3218540214,3052.6727215349674,3053.673526633531,3053.690219461918,right,1,0.38357409089803696,3053.690219461918,3053.690219461918,3054.1923505589366,3054.1923505589366,0.0014940276741981506,0.4881858602166176,0.6380601078271866,3054.1748127788305,practice,1,,,,,,,,,,,,,,,,,,,,,,,,,,,,,s025,001,2024-08-08_15h16.00.058,simplestop_skeleton,2022.2.2,59.8382769851145,
None,None,0,0,0,0,3,2,14,2,,,,,,,,,,,,,,,,,3054.175438068807,go,squareblack.png,right,0.15,3054.1923505589366,3054.1923505589366,3054.6910873278975,3054.6910873278975,3054.7078551501036,3054.8413505144417,3055.342178158462,3055.6922884061933,3056.6933701373637,3056.6933701373637,right,1,0.5929846949875355,3056.6933701373637,3056.6933701373637,,,0.0011709406971931458,0.4899366796016693,0.6401625424623489,3057.179838269949,practice,1,,,,,,,,,,,,,,,,,,,,,,,,,,,,,s025,001,2024-08-08_15h16.00.058,simplestop_skeleton,2022.2.2,59.8382769851145,
$currentCorrectResponse,$currentGoStim,0,0,0,0,3,3,15,0,,,,,,,,,,,,,,,,,3057.180315133184,go,circleblack.png,left,0.15,3057.202478695661,3057.202478695661,3057.694440409541,3057.694440409541,3057.711055185646,3057.844642896205,3058.345230463892,3058.6955833025277,3059.696600969881,3059.713287178427,left,1,0.5092107430100441,3059.713287178427,3059.713287178427,3060.2153736762702,3060.2153736762702,0.003285501152276993,0.4873930476605892,0.6374781765043736,3060.1981208845973,practice,1,,,,,,,,,,,,,,,,,,,,,,,,,,,,,s025,001,2024-08-08_15h16.00.058,simplestop_skeleton,2022.2.2,59.8382769851145,
None,None,0,0,0,0,4,0,16,3,,,,,,,,,,,,,,,,,3060.198542714119,stop,circleblack.png,left,0.15,3060.2153736762702,3060.2153736762702,3060.714505869895,3060.714505869895,3060.714505869895,3060.86474557966,3061.3653759509325,3061.715517323464,3062.7170353867114,3062.7170353867114,None,0,,3062.7170353867114,3062.7170353867114,3063.2204465456307,3063.2204465456307,0.001300804316997528,0.49018047749996185,0.6404072791337967,3063.2016585953534,practice,1,,,,,,,,,,,,,,,,,,,,,,,,,,,,,s025,001,2024-08-08_15h16.00.058,simplestop_skeleton,2022.2.2,59.8382769851145,
None,None,0,0,0,0,4,1,17,1,,,,,,,,,,,,,,,,,3063.202103123069,stop,squareblack.png,right,0.2,3063.2204465456307,3063.2204465456307,3063.7177188917994,3063.7177188917994,3063.7343535758555,3063.9179360195994,3064.4184932224452,3064.71899677068,3065.7198456041515,3065.7198456041515,None,0,,3065.7198456041515,3065.7198456041515,,,0.0017992369830608368,0.4894690029323101,0.6896202601492405,3066.207451708615,practice,1,,,,,,,,,,,,,,,,,,,,,,,,,,,,,s025,001,2024-08-08_15h16.00.058,simplestop_skeleton,2022.2.2,59.8382769851145,
None,None,0,0,0,0,4,2,18,3,,,,,,,,,,,,,,,,,3066.207873724401,stop,circleblack.png,left,0.25,3066.224776379764,3066.224776379764,3066.722864933312,3066.722864933312,3066.739583399147,3066.971609931439,3067.4718399718404,3067.7221567332745,3068.7250008657575,3068.7250008657575,None,0,,3068.7250008657575,3068.7250008657575,,,0.0022514648735523224,0.48931336030364037,0.7379599884152412,3069.2247379384935,practice,1,,,,,,,,,,,,,,,,,,,,,,,,,,,,,s025,001,2024-08-08_15h16.00.058,simplestop_skeleton,2022.2.2,59.8382769851145,
None,None,0,0,0,0,4,3,19,1,,,,,,,,,,,,,,,,,3069.225173447281,go,circleblack.png,left,0.3,3069.243398692459,3069.243398692459,3069.741050168872,3069.741050168872,3069.757783703506,3070.0413911528885,3070.5422523356974,3070.74234488979,3071.7432316839695,3071.7432316839695,left,1,0.47732191532850266,3071.7432316839695,3071.7432316839695,3072.245231114328,3072.245231114328,0.0013129599392414093,0.4896118491888046,0.789904996752739,3072.2280772589147,practice,1,,,,,,,,,,,,,,,,,,,,,,,,,,,,,s025,001,2024-08-08_15h16.00.058,simplestop_skeleton,2022.2.2,59.8382769851145,
$currentCorrectResponse,$currentGoStim,0,0,0,0,5,0,20,0,,,,,,,,,,,,,,,,,3072.228489011526,go,circleblack.png,left,0.3,3072.245231114328,3072.245231114328,3072.7447564713657,3072.7447564713657,3072.7447564713657,3073.044855322689,3073.5452091805637,3073.7455172128975,3074.7483945414424,3074.7483945414424,left,1,0.5975905917584896,3074.7483945414424,3074.7483945414424,,,0.001268535852432251,0.49029460549354553,0.790719673037529,3075.247793890536,practice,1,,,,,,,,,,,,,,,,,,,,,,,,,,,,,s025,001,2024-08-08_15h16.00.058,simplestop_skeleton,2022.2.2,59.8382769851145,
None,None,0,0,0,0,5,1,21,1,,,,,,,,,,,,,,,,,3075.248224403709,go,circleblack.png,left,0.3,3075.265138171613,3075.265138171613,3075.7644157744944,3075.7644157744944,3075.7644157744944,3076.065079856664,3076.5653383135796,3076.7656839974225,3077.7665415145457,3077.7665415145457,left,1,0.5956163667142391,3077.7665415145457,3077.7665415145457,3078.275904428214,3078.275904428214,0.001232389360666275,0.4901968650519848,0.7906843237578869,3078.2513045594096,practice,1,,,,,,,,,,,,,,,,,,,,,,,,,,,,,s025,001,2024-08-08_15h16.00.058,simplestop_skeleton,2022.2.2,59.8382769851145,
None,None,0,0,0,0,5,2,22,3,,,,,,,,,,,,,,,,,3078.251723777503,stop,squareblack.png,right,0.3,3078.275904428214,3078.275904428214,3078.7680052667856,3078.7680052667856,3078.7845191024244,3079.067905742675,3079.568642001599,3079.768737513572,3080.770100247115,3080.7868003323674,None,0,,3080.7868003323674,3080.7868003323674,3081.3028441891074,3081.3028441891074,0.007624492049217224,0.4899505116045475,0.7900761030614376,3081.271506059915,practice,1,,,,,,,,,,,,,,,,,,,,,,,,,,,,,s025,001,2024-08-08_15h16.00.058,simplestop_skeleton,2022.2.2,59.8382769851145,
None,None,0,0,0,0,5,3,23,2,,,,,,,,,,,,,,,,,3081.271927367896,go,squareblack.png,right,0.35,3081.3028441891074,3081.3028441891074,3081.787755254656,3081.787755254656,3081.8043996728957,3082.138932790607,3082.6387299634516,3082.7888787686825,3083.7898195646703,3083.806603755802,right,1,0.6310838498175144,3083.806603755802,3083.806603755802,,,0.0012121833860874176,0.49008724465966225,0.8410528227686882,3084.2913008295,practice,1,,,,,,,,,,,,,,,,,,,,,,,,,,,,,s025,001,2024-08-08_15h16.00.058,simplestop_skeleton,2022.2.2,59.8382769851145,
,,0,0,0,0,,,,,,,,,,,,,"[{'fileName': 'circleblack.png', 'correct_response': 'left', 'condition': 'go'}, {'fileName': 'circleblack.png', 'correct_response': 'left', 'condition': 'go'}, {'fileName': 'circleblack.png', 'correct_response': 'left', 'condition': 'stop'}, {'fileName': 'squareblack.png', 'correct_response': 'right', 'condition': 'go'}, {'fileName': 'squareblack.png', 'correct_response': 'right', 'condition': 'stop'}, {'fileName': 'squareblack.png', 'correct_response': 'right', 'condition': 'go'}, {'fileName': 'squareblack.png', 'correct_response': 'right', 'condition': 'stop'}, {'fileName': 'squareblack.png', 'correct_response': 'right', 'condition': 'go'}, {'fileName': 'circleblack.png', 'correct_response': 'left', 'condition': 'go'}, {'fileName': 'circleblack.png', 'correct_response': 'left', 'condition': 'go'}, {'fileName': 'squareblack.png', 'correct_response': 'right', 'condition': 'go'}, {'fileName': 'circleblack.png', 'correct_response': 'left', 'condition': 'stop'}, {'fileName': 'circleblack.png', 'correct_response': 'left', 'condition': 'stop'}, {'fileName': 'squareblack.png', 'correct_response': 'right', 'condition': 'go'}, {'fileName': 'circleblack.png', 'correct_response': 'left', 'condition': 'go'}, {'fileName': 'squareblack.png', 'correct_response': 'right', 'condition': 'stop'}, {'fileName': 'squareblack.png', 'correct_response': 'right', 'condition': 'go'}, {'fileName': 'circleblack.png', 'correct_response': 'left', 'condition': 'go'}, {'fileName': 'squareblack.png', 'correct_response': 'right', 'condition': 'go'}, {'fileName': 'circleblack.png', 'correct_response': 'left', 'condition': 'stop'}, {'fileName': 'squareblack.png', 'correct_response': 'right', 'condition': 'stop'}, {'fileName': 'circleblack.png', 'correct_response': 'left', 'condition': 'go'}, {'fileName': 'squareblack.png', 'correct_response': 'right', 'condition': 'go'}, {'fileName': 'circleblack.png', 'correct_response': 'left', 'condition': 'go'}]",,,,,,,,,,,,,,,,,,,,,,,,,,,,,,,,,,,,3084.3089773617685,3084.3089773617685,return,2.3858525827527046,,,,,,,,,,,,,,,,,,,,,,,,,s025,001,2024-08-08_15h16.00.058,simplestop_skeleton,2022.2.2,59.8382769851145,
None,None,,,,,,,,,0,0,0,0,0,0,0,1,,,,,,,,,3089.84129543975,stop,squareblack.png,right,0.35,,,,,,,,,,,,,,,,,,0.0025680437684059143,0.49694211781024933,0.8469798415899277,3092.3521834500134,test,1,,,,,3086.726601164788,3086.726601164788,3089.86073987931,3090.365380052477,3090.365380052477,3090.365380052477,3090.715868640691,3091.2160925380886,3091.3661508597434,3092.3765057213604,right,1,0.5207221023738384,0.3,,,,,,,,,,,s025,001,2024-08-08_15h16.00.058,simplestop_skeleton,2022.2.2,59.8382769851145,
None,None,,,,,,,,,0,0,0,0,0,1,1,2,,,,,,,,,3092.352732077241,stop,circleblack.png,left,0.3,,,,,,,,,,,,,,,,,,0.007667720317840576,0.48932773992419243,0.78970967233181,3094.854809049517,test,1,,,,,,,3092.3765057213604,3092.8847424797714,3092.8679725527763,3092.8679725527763,3093.168163307011,3093.6687894016504,3093.869076061994,3094.873736694455,None,0,,0.35,,,,,,,,,,,s025,001,2024-08-08_15h16.00.058,simplestop_skeleton,2022.2.2,59.8382769851145,
None,None,,,,,,,,,0,0,0,0,0,2,2,2,,,,,,,,,3094.855248246342,go,squareblack.png,right,0.35,,,,,,,,,,,,,,,,,,0.0015464648604393005,0.48948195576667786,,3097.3560929000378,test,1,,,,,,,3094.873736694455,3095.387527536601,3095.3707577325404,3095.3707577325404,3095.7211399897933,3096.2217302918434,3096.370403703302,3097.3737250566483,right,1,0.6733792424201965,0.35,,,,,,,,,,,s025,001,2024-08-08_15h16.00.058,simplestop_skeleton,2022.2.2,59.8382769851145,
None,None,,,,,,,,,0,0,0,0,0,3,3,1,,,,,,,,,3097.3565538860857,go,circleblack.png,left,0.35,,,,,,,,,,,,,,,,,,0.0017726756632328033,0.489375751465559,,3099.8586786836386,test,1,,,,,,,3097.3737250566483,3097.888700801879,3097.872129149735,3097.872129149735,3098.222445998341,3098.7248008437455,3098.873413849622,3099.875752866268,left,1,0.6690524592995644,0.35,,,,,,,,,,,s025,001,2024-08-08_15h16.00.058,simplestop_skeleton,2022.2.2,59.8382769851145,
None,None,,,,,,,,,0,0,0,0,1,0,4,3,,,,,,,,,3099.859122220427,stop,squareblack.png,right,0.35,,,,,,,,,,,,,,,,,,0.0016364678740501404,0.4912584275007248,0.8402459770441055,3102.3615486733615,test,1,,,,,,,3099.875752866268,3100.3763098567724,3100.3763098567724,3100.3763098567724,3100.72537593171,3101.2259324230254,3101.3761410713196,3102.3808666840196,None,0,,0.4,,,,,,,,,,,s025,001,2024-08-08_15h16.00.058,simplestop_skeleton,2022.2.2,59.8382769851145,
None,None,,,,,,,,,0,0,0,0,1,1,5,1,,,,,,,,,3102.3619912825525,stop,circleblack.png,left,0.4,,,,,,,,,,,,,,,,,,0.002003464847803116,0.4897598326206207,0.8891102038323879,3104.8653362952173,test,1,,,,,,,3102.3808666840196,3102.895510222763,3102.8787125349045,3102.8787125349045,3103.2782239355147,3103.779029559344,3103.878692507744,3104.8835844285786,left,1,0.5180072300136089,0.35,,,,,,,,,,,s025,001,2024-08-08_15h16.00.058,simplestop_skeleton,2022.2.2,59.8382769851145,
$currentCorrectResponse,$currentGoStim,,,,,,,,,0,0,0,0,1,2,6,0,,,,,,,,,3104.8657911084592,go,squareblack.png,right,0.35,,,,,,,,,,,,,,,,,,0.0017350390553474426,0.48851777240633965,,3107.367350947112,test,1,,,,,,,3104.8835844285786,3105.3972533755004,3105.3805635385215,3105.3805635385215,3105.731345642358,3106.2313565798104,3106.381433404982,3107.3855569660664,right,1,0.6034330502152443,0.35,,,,,,,,,,,s025,001,2024-08-08_15h16.00.058,simplestop_skeleton,2022.2.2,59.8382769851145,
$currentCorrectResponse,$currentGoStim,,,,,,,,,0,0,0,0,1,3,7,0,,,,,,,,,3107.367852911353,go,circleblack.png,left,0.35,,,,,,,,,,,,,,,,,,0.0019136257469654083,0.4888436794281006,,3109.869776815176,test,1,,,,,,,3107.3855569660664,3107.8997440114617,3107.8830637335777,3107.8830637335777,3108.23348897323,3108.7341163121164,3108.884999964386,3109.88695121184,left,1,0.6502262279391289,0.35,,,,,,,,,,,s025,001,2024-08-08_15h16.00.058,simplestop_skeleton,2022.2.2,59.8382769851145,
$currentCorrectResponse,$currentGoStim,,,,,,,,,0,0,0,0,2,0,8,0,,,,,,,,,3109.8702151291072,go,squareblack.png,right,0.35,,,,,,,,,,,,,,,,,,0.0016225352883338928,0.4900052733719349,,3112.3725959323347,test,1,,,,,,,3109.88695121184,3110.402469225228,3110.3858494646847,3110.3858494646847,3110.736259430647,3111.2386125326157,3111.3870846033096,3112.389295965433,right,1,0.6967109628021717,0.35,,,,,,,,,,,s025,001,2024-08-08_15h16.00.058,simplestop_skeleton,2022.2.2,59.8382769851145,
None,None,,,,,,,,,0,0,0,0,2,1,9,2,,,,,,,,,3112.3730632588267,go,squareblack.png,right,0.35,,,,,,,,,,,,,,,,,,0.0012133046984672546,0.48963430151343346,,3114.8756504915655,test,1,,,,,,,3112.389295965433,3112.888546910137,3112.888546910137,3112.888546910137,3113.2409424372017,3113.7565627992153,3113.8899079039693,3114.892922580242,right,1,0.6168586201965809,0.35,,,,,,,,,,,s025,001,2024-08-08_15h16.00.058,simplestop_skeleton,2022.2.2,59.8382769851145,
None,None,,,,,,,,,0,0,0,0,2,2,10,2,,,,,,,,,3114.876083433628,go,circleblack.png,left,0.35,,,,,,,,,,,,,,,,,,0.001896146684885025,0.4913751669228077,,3117.380071837455,test,1,,,,,,,3114.892922580242,3115.3932423368096,3115.3932423368096,3115.3932423368096,3115.7419617399573,3116.242307778448,3116.392508685589,3117.4007769338787,left,1,0.5836204178631306,0.35,,,,,,,,,,,s025,001,2024-08-08_15h16.00.058,simplestop_skeleton,2022.2.2,59.8382769851145,
None,None,,,,,,,,,0,0,0,0,2,3,11,3,,,,,,,,,3117.3805388845503,go,circleblack.png,left,0.35,,,,,,,,,,,,,,,,,,0.002330746501684189,0.48728056252002716,,3119.881202675402,test,1,,,,,,,3117.4007769338787,3117.9111011102796,3117.8943619839847,3117.8943619839847,3118.244555287063,3118.745181169361,3118.8953481279314,3119.899543493986,left,1,0.5568645000457764,0.35,,,,,,,,,,,s025,001,2024-08-08_15h16.00.058,simplestop_skeleton,2022.2.2,59.8382769851145,
None,None,,,,,,,,,0,0,0,0,3,0,12,1,,,,,,,,,3119.8816737532616,go,squareblack.png,right,0.35,,,,,,,,,,,,,,,,,,0.0017395205795764923,0.48885462805628777,,3122.383859526366,test,1,,,,,,,3119.899543493986,3120.413647480309,3120.397052075714,3120.397052075714,3120.747256528586,3121.2478089034557,3121.3992260433733,3122.4011295214295,right,1,0.5734984390437603,0.35,,,,,,,,,,,s025,001,2024-08-08_15h16.00.058,simplestop_skeleton,2022.2.2,59.8382769851145,
None,None,,,,,,,,,0,0,0,0,3,1,13,2,,,,,,,,,3122.384310118854,go,circleblack.png,left,0.35,,,,,,,,,,,,,,,,,,0.0017823725938796997,0.48940444737672806,,3124.8863288871944,test,1,,,,,,,3122.4011295214295,3122.916386395693,3122.8996953330934,3122.8996953330934,3123.250066332519,3123.752513386309,3123.9009958021343,3124.9035976305604,left,1,0.6488092914223671,0.35,,,,,,,,,,,s025,001,2024-08-08_15h16.00.058,simplestop_skeleton,2022.2.2,59.8382769851145,
$currentCorrectResponse,$currentGoStim,,,,,,,,,0,0,0,0,3,2,14,0,,,,,,,,,3124.886766526848,stop,squareblack.png,right,0.35,,,,,,,,,,,,,,,,,,0.0015749000012874603,0.4908386692404747,0.8403842933475971,3127.3893764205277,test,1,,,,,,,3124.9035976305604,3125.403112448752,3125.403112448752,3125.403112448752,3125.7529772780836,3126.253520537168,3126.403733879328,3127.4069082327187,None,0,,0.4,,,,,,,,,,,s025,001,2024-08-08_15h16.00.058,simplestop_skeleton,2022.2.2,59.8382769851145,
None,None,,,,,,,,,0,0,0,0,3,3,15,2,,,,,,,,,3127.3898177035153,stop,circleblack.png,left,0.4,,,,,,,,,,,,,,,,,,0.0017263777554035187,0.49116671830415726,0.8899010270833969,3129.894198909402,test,1,,,,,,,3127.4069082327187,3127.907046608627,3127.907046608627,3127.907046608627,3128.3057873025537,3128.806328151375,3128.9062066711485,3129.9150143302977,None,0,,0.45,,,,,,,,,,,s025,001,2024-08-08_15h16.00.058,simplestop_skeleton,2022.2.2,59.8382769851145,
$currentCorrectResponse,$currentGoStim,,,,,,,,,0,0,0,0,4,0,16,0,,,,,,,,,3129.8946688994765,go,circleblack.png,left,0.45,,,,,,,,,,,,,,,,,,0.0020001567900180817,0.48633160442113876,,3132.394981317222,test,1,,,,,,,3129.9150143302977,3130.4247886426747,3130.408196847886,3130.408196847886,3130.858413670212,3131.358961470425,3131.4090292677283,3132.413342051208,left,1,0.5833484940230846,0.45,,,,,,,,,,,s025,001,2024-08-08_15h16.00.058,simplestop_skeleton,2022.2.2,59.8382769851145,
None,None,,,,,,,,,0,0,0,0,4,1,17,3,,,,,,,,,3132.395436692983,stop,squareblack.png,right,0.45,,,,,,,,,,,,,,,,,,0.0017209239304065704,0.4889359176158905,0.9395334720611572,3134.897777263075,test,1,,,,,,,3132.413342051208,3132.927359879017,3132.9106556139886,3132.9106556139886,3133.361204445362,3133.861805524677,3133.9124877490103,3134.9145577326417,right,1,0.5850056856870651,0.4,,,,,,,,,,,s025,001,2024-08-08_15h16.00.058,simplestop_skeleton,2022.2.2,59.8382769851145,
$currentCorrectResponse,$currentGoStim,,,,,,,,,0,0,0,0,4,2,18,0,,,,,,,,,3134.8982274346054,go,squareblack.png,right,0.4,,,,,,,,,,,,,,,,,,0.0012175366282463074,0.4891539067029953,,3137.400150857866,test,1,,,,,,,3134.9145577326417,3135.430283743888,3135.413433685899,3135.413433685899,3135.8150917999446,3136.3146452493966,3136.414746582508,3137.4173963926733,right,1,0.7745461650192738,0.4,,,,,,,,,,,s025,001,2024-08-08_15h16.00.058,simplestop_skeleton,2022.2.2,59.8382769851145,
None,None,,,,,,,,,0,0,0,0,4,3,19,2,,,,,,,,,3137.400594647974,go,circleblack.png,left,0.4,,,,,,,,,,,,,,,,,,0.001840353012084961,0.48990778625011444,,3139.9028655327857,test,1,,,,,,,3137.4173963926733,3137.932946495712,3137.9164649024606,3137.9164649024606,3138.3185499086976,3138.834141816944,3138.9173947907984,3139.9201362878084,left,1,0.6843217946588993,0.4,,,,,,,,,,,s025,001,2024-08-08_15h16.00.058,simplestop_skeleton,2022.2.2,59.8382769851145,
None,None,,,,,,,,,0,0,0,0,5,0,20,1,,,,,,,,,3139.9033048301935,go,squareblack.png,right,0.4,,,,,,,,,,,,,,,,,,0.001627448946237564,0.49162769317626953,,3142.4070680327713,test,1,,,,,,,3139.9201362878084,3140.4207529611886,3140.4207529611886,3140.4207529611886,3140.8196743130684,3141.319969199598,3141.4201160781085,3142.4278012104332,right,1,0.6887144073843956,0.4,,,,,,,,,,,s025,001,2024-08-08_15h16.00.058,simplestop_skeleton,2022.2.2,59.8382769851145,
None,None,,,,,,,,,0,0,0,0,5,1,21,3,,,,,,,,,3142.407522276044,stop,circleblack.png,left,0.4,,,,,,,,,,,,,,,,,,0.0025057420134544373,0.48768652603030205,0.8879708722233772,3144.908943619579,test,1,,,,,,,3142.4278012104332,3142.9387063346803,3142.9220779277384,3142.9220779277384,3143.3221700415015,3143.8227313943207,3143.922915235162,3144.927102252841,left,1,0.4207601435482502,0.35,,,,,,,,,,,s025,001,2024-08-08_15h16.00.058,simplestop_skeleton,2022.2.2,59.8382769851145,
$currentCorrectResponse,$currentGoStim,,,,,,,,,0,0,0,0,5,2,22,0,,,,,,,,,3144.9094161093235,go,squareblack.png,right,0.35,,,,,,,,,,,,,,,,,,0.0016815625131130219,0.4888565205037594,,3147.411247264594,test,1,,,,,,,3144.927102252841,3145.441131990403,3145.424503169954,3145.424503169954,3145.774941738695,3146.2755204439163,3146.4266923107207,3147.4285310953856,right,1,0.6772859804332256,0.35,,,,,,,,,,,s025,001,2024-08-08_15h16.00.058,simplestop_skeleton,2022.2.2,59.8382769851145,
None,None,,,,,,,,,0,0,0,0,5,3,23,3,,,,,,,,,3147.4116970412433,go,circleblack.png,left,0.35,,,,,,,,,,,,,,,,,,0.0017092488706111908,0.4896957539021969,,3149.914037991315,test,1,,,,,,,3147.4285310953856,3147.943966228515,3147.927297241986,3147.927297241986,3148.277658674866,3148.7800931409,3148.930295776576,3149.9309936910868,left,1,0.5939811170101166,0.35,,,,,,,,,,,s025,001,2024-08-08_15h16.00.058,simplestop_skeleton,2022.2.2,59.8382769851145,
None,None,,,,,,,,,0,0,0,0,6,0,24,1,,,,,,,,,3149.914481628686,stop,circleblack.png,left,0.35,,,,,,,,,,,,,,,,,,0.0012268275022506714,0.49339108169078827,0.8414742350578308,3152.4168938696384,test,1,,,,,,,3149.9309936910868,3150.43114778772,3150.43114778772,3150.43114778772,3150.782044354826,3151.2812155149877,3151.431429348886,3152.435078624636,left,1,0.5033915042877197,0.3,,,,,,,,,,,s025,001,2024-08-08_15h16.00.058,simplestop_skeleton,2022.2.2,59.8382769851145,
None,None,,,,,,,,,0,0,0,0,6,1,25,2,,,,,,,,,3152.4173396602273,go,squareblack.png,right,0.3,,,,,,,,,,,,,,,,,,0.0016260668635368347,0.490497101098299,,3154.920460179448,test,1,,,,,,,3152.435078624636,3152.933745034039,3152.933745034039,3152.933745034039,3153.235029004514,3153.7505765892565,3153.9339697510004,3154.938083305955,right,1,0.6326639764010906,0.3,,,,,,,,,,,s025,001,2024-08-08_15h16.00.058,simplestop_skeleton,2022.2.2,59.8382769851145,
None,None,,,,,,,,,0,0,0,0,6,2,26,3,,,,,,,,,3154.920924272388,stop,circleblack.png,left,0.3,,,,,,,,,,,,,,,,,,0.0017984509468078613,0.4886336140334606,0.7890785932540894,3157.4226232990623,test,1,,,,,,,3154.938083305955,3155.452431060374,3155.4357528202236,3155.4357528202236,3155.7361377850175,3156.2364256232977,3156.4367048740387,3157.4412012323737,None,0,,0.35,,,,,,,,,,,s025,001,2024-08-08_15h16.00.058,simplestop_skeleton,2022.2.2,59.8382769851145,
None,None,,,,,,,,,0,0,0,0,6,3,27,2,,,,,,,,,3157.4231566898525,go,circleblack.png,left,0.35,,,,,,,,,,,,,,,,,,0.0013507269322872162,0.48859523981809616,,3159.9254493266344,test,1,,,,,,,3157.4412012323737,3157.95500915125,3157.938628550619,3157.938628550619,3158.2886891402304,3158.789223808795,3158.9396328628063,3159.9453408420086,left,1,0.5363102555274963,0.35,,,,,,,,,,,s025,001,2024-08-08_15h16.00.058,simplestop_skeleton,2022.2.2,59.8382769851145,
None,None,,,,,,,,,0,0,0,0,7,0,28,3,,,,,,,,,3159.9259296543896,go,circleblack.png,left,0.35,,,,,,,,,,,,,,,,,,0.0018149912357330322,0.48752423375844955,,3162.427731949836,test,1,,,,,,,3159.9453408420086,3160.457698788494,3160.4411229528487,3160.4411229528487,3160.791442245245,3161.292263481766,3161.4423931613564,3162.4445913285017,left,1,0.6424892023205757,0.35,,,,,,,,,,,s025,001,2024-08-08_15h16.00.058,simplestop_skeleton,2022.2.2,59.8382769851145,
None,None,,,,,,,,,0,0,0,0,7,1,29,3,,,,,,,,,3162.4281703941524,go,circleblack.png,left,0.35,,,,,,,,,,,,,,,,,,0.0012484900653362274,0.48953090608119965,,3164.9305497296154,test,1,,,,,,,3162.4445913285017,3162.943816021085,3162.943816021085,3162.943816021085,3163.294967468828,3163.794854424894,3163.9452335201204,3164.9526053592563,left,1,0.49953341111540794,0.35,,,,,,,,,,,s025,001,2024-08-08_15h16.00.058,simplestop_skeleton,2022.2.2,59.8382769851145,
None,None,,,,,,,,,0,0,0,0,7,2,30,1,,,,,,,,,3164.9309908226132,stop,squareblack.png,right,0.35,,,,,,,,,,,,,,,,,,0.00722368061542511,0.4899326488375664,0.8403008505702019,3167.434140473604,test,1,,,,,,,3164.9526053592563,3165.4633053280413,3165.4466379359365,3165.4466379359365,3165.7972084879875,3166.2977736480534,3166.4476433061063,3167.454248290509,None,0,,0.4,,,,,,,,,,,s025,001,2024-08-08_15h16.00.058,simplestop_skeleton,2022.2.2,59.8382769851145,
None,None,,,,,,,,,0,0,0,0,7,3,31,3,,,,,,,,,3167.434588447213,go,circleblack.png,left,0.4,,,,,,,,,,,,,,,,,,0.002551555633544922,0.4873802550137043,,3169.9382288903,test,1,,,,,,,3167.454248290509,3167.966211799532,3167.949493262917,3167.949493262917,3168.350010294467,3168.8503957390785,3168.9505079463124,3169.9593386538327,left,1,0.6760607175529003,0.4,,,,,,,,,,,s025,001,2024-08-08_15h16.00.058,simplestop_skeleton,2022.2.2,59.8382769851145,
None,None,,,,,,,,,0,0,0,0,8,0,32,1,,,,,,,,,3169.938705585897,go,squareblack.png,right,0.4,,,,,,,,,,,,,,,,,,0.002366781234741211,0.4865516610443592,,3172.4391455203295,test,1,,,,,,,3169.9593386538327,3170.469035614282,3170.4524227678776,3170.4524227678776,3170.8525677137077,3171.3535014614463,3171.4562166444957,3172.456768218428,right,1,0.5550639480352402,0.4,,,,,,,,,,,s025,001,2024-08-08_15h16.00.058,simplestop_skeleton,2022.2.2,59.8382769851145,
None,None,,,,,,,,,0,0,0,0,8,1,33,3,,,,,,,,,3172.439594592899,go,squareblack.png,right,0.4,,,,,,,,,,,,,,,,,,0.0012473836541175842,0.4890647642314434,,3174.9418201595545,test,1,,,,,,,3172.456768218428,3172.971634659916,3172.9549745731056,3172.9549745731056,3173.3553419709206,3173.857231810689,3173.9570275098085,3174.9586357809603,right,1,0.6017390675842762,0.4,,,,,,,,,,,s025,001,2024-08-08_15h16.00.058,simplestop_skeleton,2022.2.2,59.8382769851145,
None,None,,,,,,,,,0,0,0,0,8,2,34,1,,,,,,,,,3174.9422657713294,go,squareblack.png,right,0.4,,,,,,,,,,,,,,,,,,0.0011707618832588196,0.4895291142165661,,3177.444382082671,test,1,,,,,,,3174.9586357809603,3175.457639258355,3175.457639258355,3175.457639258355,3175.858895186335,3176.358774650842,3176.459057994187,3177.461064621806,right,1,0.513864204287529,0.4,,,,,,,,,,,s025,001,2024-08-08_15h16.00.058,simplestop_skeleton,2022.2.2,59.8382769851145,
$currentCorrectResponse,$currentGoStim,,,,,,,,,0,0,0,0,8,3,35,0,,,,,,,,,3177.444868031889,stop,squareblack.png,right,0.4,,,,,,,,,,,,,,,,,,0.0012014470994472504,0.4897058270871639,0.8919148594141006,3179.947515293956,test,1,,,,,,,3177.461064621806,3177.960524905473,3177.960524905473,3177.960524905473,3178.362654540688,3178.878527816385,3178.9617396965623,3179.9647218436003,None,0,,0.45,,,,,,,,,,,s025,001,2024-08-08_15h16.00.058,simplestop_skeleton,2022.2.2,59.8382769851145,
None,None,,,,,,,,,0,0,0,0,9,0,36,3,,,,,,,,,3179.947960011661,go,squareblack.png,right,0.45,,,,,,,,,,,,,,,,,,0.0011645294725894928,0.4892018772661686,,3182.451818920672,test,1,,,,,,,3179.9647218436003,3180.4800475761294,3180.4634408243,3180.4634408243,3180.913840826601,3181.414300311357,3181.464327376336,3182.4722764119506,right,1,0.6136423982679844,0.45,,,,,,,,,,,s025,001,2024-08-08_15h16.00.058,simplestop_skeleton,2022.2.2,59.8382769851145,
$currentCorrectResponse,$currentGoStim,,,,,,,,,0,0,0,0,9,1,37,0,,,,,,,,,3182.452409915626,stop,squareblack.png,right,0.45,,,,,,,,,,,,,,,,,,0.0019474029541015625,0.48692695796489716,0.9370278082787991,3184.9530286565423,test,1,,,,,,,3182.4722764119506,3182.9828279688954,3182.9661720208824,3182.9661720208824,3183.416421815753,3183.91695625335,3183.9670407772064,3184.97068535164,right,1,0.5384998247027397,0.4,,,,,,,,,,,s025,001,2024-08-08_15h16.00.058,simplestop_skeleton,2022.2.2,59.8382769851145,
None,None,,,,,,,,,0,0,0,0,9,2,38,1,,,,,,,,,3184.953475702554,stop,squareblack.png,right,0.4,,,,,,,,,,,,,,,,,,0.001243937760591507,0.4886509105563164,0.8892359435558319,3187.455565929413,test,1,,,,,,,3184.97068535164,3185.4853950068355,3185.4687590934336,3185.4687590934336,3185.869164880365,3186.369715668261,3186.4713317640126,3187.478282690048,right,1,0.4878583811223507,0.35,,,,,,,,,,,s025,001,2024-08-08_15h16.00.058,simplestop_skeleton,2022.2.2,59.8382769851145,
$currentCorrectResponse,$currentGoStim,,,,,,,,,0,0,0,0,9,3,39,0,,,,,,,,,3187.4560090638697,go,circleblack.png,left,0.35,,,,,,,,,,,,,,,,,,0.00776190310716629,0.489439208060503,,3189.9582570642233,test,1,,,,,,,3187.478282690048,3187.9881365038455,3187.9714300893247,3187.9714300893247,3188.322012718767,3188.82253921777,3188.972719691694,3189.975123539567,left,1,0.5721521824598312,0.35,,,,,,,,,,,s025,001,2024-08-08_15h16.00.058,simplestop_skeleton,2022.2.2,59.8382769851145,
None,None,,,,,,,,,0,0,0,0,10,0,40,2,,,,,,,,,3189.9587104581296,go,circleblack.png,left,0.35,,,,,,,,,,,,,,,,,,0.00123654305934906,0.49008719995617867,,3192.4610618576407,test,1,,,,,,,3189.975123539567,3190.4744058176875,3190.4744058176875,3190.4744058176875,3190.825782392174,3191.325418204069,3191.475517682731,3192.477688744664,left,1,0.4660981483757496,0.35,,,,,,,,,,,s025,001,2024-08-08_15h16.00.058,simplestop_skeleton,2022.2.2,59.8382769851145,
$currentCorrectResponse,$currentGoStim,,,,,,,,,0,0,0,0,10,1,41,0,,,,,,,,,3192.461516313255,stop,circleblack.png,left,0.35,,,,,,,,,,,,,,,,,,0.0012147650122642517,0.49035148695111275,0.840489324182272,3194.9639605097473,test,1,,,,,,,3192.477688744664,3192.9778542891145,3192.9778542891145,3192.9778542891145,3193.327877279371,3193.827860277146,3193.9780652932823,3194.9805149398744,left,1,0.5503802411258221,0.3,,,,,,,,,,,s025,001,2024-08-08_15h16.00.058,simplestop_skeleton,2022.2.2,59.8382769851145,
None,None,,,,,,,,,0,0,0,0,10,2,42,1,,,,,,,,,3194.9643909670413,go,circleblack.png,left,0.3,,,,,,,,,,,,,,,,,,0.001221679151058197,0.48965321481227875,,3197.4694069996476,test,1,,,,,,,3194.9805149398744,3195.47992426157,3195.47992426157,3195.47992426157,3195.7802721709013,3196.2805715948343,3196.4808313697577,3197.4951082766056,left,1,0.5364320278167725,0.3,,,,,,,,,,,s025,001,2024-08-08_15h16.00.058,simplestop_skeleton,2022.2.2,59.8382769851145,
$currentCorrectResponse,$currentGoStim,,,,,,,,,0,0,0,0,10,3,43,0,,,,,,,,,3197.4702134616673,go,squareblack.png,right,0.3,,,,,,,,,,,,,,,,,,0.002754703164100647,0.49888863787055016,,3199.9864824675024,test,1,,,,,,,3197.4951082766056,3197.9993649311364,3197.9993649311364,3197.9993649311364,3198.2995929196477,3198.8001652508974,3199.0003712773323,3200.0049950554967,right,1,0.7932568490505219,0.3,,,,,,,,,,,s025,001,2024-08-08_15h16.00.058,simplestop_skeleton,2022.2.2,59.8382769851145,
None,None,,,,,,,,,0,0,0,0,11,0,44,1,,,,,,,,,3199.9869428761303,stop,circleblack.png,left,0.3,,,,,,,,,,,,,,,,,,0.00192202627658844,0.4886685721576214,0.7889216132462025,3202.488859336823,test,1,,,,,,,3200.0049950554967,3200.5186098515987,3200.5019331648946,3200.5019331648946,3200.8022770509124,3201.3028247468174,3201.5044601783156,3202.506458785385,None,0,,0.35,,,,,,,,,,,s025,001,2024-08-08_15h16.00.058,simplestop_skeleton,2022.2.2,59.8382769851145,
None,None,,,,,,,,,0,0,0,0,11,1,45,2,,,,,,,,,3202.4893022477627,go,squareblack.png,right,0.35,,,,,,,,,,,,,,,,,,0.0016063861548900604,0.48934752494096756,,3204.9913338646293,test,1,,,,,,,3202.506458785385,3203.0214454494417,3203.0046540535986,3203.0046540535986,3203.355128236115,3203.855792749673,3204.006028071046,3205.008743222803,right,1,0.7346456609666348,0.35,,,,,,,,,,,s025,001,2024-08-08_15h16.00.058,simplestop_skeleton,2022.2.2,59.8382769851145,
None,None,,,,,,,,,0,0,0,0,11,2,46,3,,,,,,,,,3204.991775110364,go,circleblack.png,left,0.35,,,,,,,,,,,,,,,,,,0.0017639249563217163,0.49087002500891685,,3207.4941539540887,test,1,,,,,,,3205.008743222803,3205.508601397276,3205.508601397276,3205.508601397276,3205.8592817895114,3206.3585414364934,3206.5088611394167,3207.5113407485187,left,1,1.044749591499567,0.35,,,,,,,,,,,s025,001,2024-08-08_15h16.00.058,simplestop_skeleton,2022.2.2,59.8382769851145,
None,None,,,,,,,,,0,0,0,0,11,3,47,2,,,,,,,,,3207.494610335678,go,squareblack.png,right,0.35,,,,,,,,,,,,,,,,,,0.0016590692102909088,0.491309255361557,,3209.996904168278,test,1,,,,,,,3207.5113407485187,3208.011339150369,3208.011339150369,3208.011339150369,3208.3608251586556,3208.861087296158,3209.011377185583,3210.0213941559196,right,1,0.5995502583682537,0.35,,,,,,,,,,,s025,001,2024-08-08_15h16.00.058,simplestop_skeleton,2022.2.2,59.8382769851145,
,,,,,,,,,,0,0,0,0,,,,,,"[{'fileName': 'circleblack.png', 'correct_response': 'left', 'condition': 'go'}, {'fileName': 'squareblack.png', 'correct_response': 'right', 'condition': 'go'}, {'fileName': 'squareblack.png', 'correct_response': 'right', 'condition': 'go'}, {'fileName': 'circleblack.png', 'correct_response': 'left', 'condition': 'stop'}, {'fileName': 'circleblack.png', 'correct_response': 'left', 'condition': 'go'}, {'fileName': 'squareblack.png', 'correct_response': 'right', 'condition': 'go'}, {'fileName': 'squareblack.png', 'correct_response': 'right', 'condition': 'go'}, {'fileName': 'circleblack.png', 'correct_response': 'left', 'condition': 'stop'}, {'fileName': 'circleblack.png', 'correct_response': 'left', 'condition': 'go'}, {'fileName': 'squareblack.png', 'correct_response': 'right', 'condition': 'stop'}, {'fileName': 'circleblack.png', 'correct_response': 'left', 'condition': 'go'}, {'fileName': 'squareblack.png', 'correct_response': 'right', 'condition': 'stop'}, {'fileName': 'squareblack.png', 'correct_response': 'right', 'condition': 'go'}, {'fileName': 'circleblack.png', 'correct_response': 'left', 'condition': 'go'}, {'fileName': 'circleblack.png', 'correct_response': 'left', 'condition': 'go'}, {'fileName': 'squareblack.png', 'correct_response': 'right', 'condition': 'go'}, {'fileName': 'circleblack.png', 'correct_response': 'left', 'condition': 'go'}, {'fileName': 'squareblack.png', 'correct_response': 'right', 'condition': 'stop'}, {'fileName': 'circleblack.png', 'correct_response': 'left', 'condition': 'stop'}, {'fileName': 'circleblack.png', 'correct_response': 'left', 'condition': 'go'}, {'fileName': 'circleblack.png', 'correct_response': 'left', 'condition': 'stop'}, {'fileName': 'squareblack.png', 'correct_response': 'right', 'condition': 'go'}, {'fileName': 'squareblack.png', 'correct_response': 'right', 'condition': 'go'}, {'fileName': 'squareblack.png', 'correct_response': 'right', 'condition': 'stop'}, {'fileName': 'squareblack.png', 'correct_response': 'right', 'condition': 'go'}, {'fileName': 'squareblack.png', 'correct_response': 'right', 'condition': 'go'}, {'fileName': 'circleblack.png', 'correct_response': 'left', 'condition': 'go'}, {'fileName': 'squareblack.png', 'correct_response': 'right', 'condition': 'stop'}, {'fileName': 'circleblack.png', 'correct_response': 'left', 'condition': 'go'}, {'fileName': 'circleblack.png', 'correct_response': 'left', 'condition': 'stop'}, {'fileName': 'squareblack.png', 'correct_response': 'right', 'condition': 'go'}, {'fileName': 'circleblack.png', 'correct_response': 'left', 'condition': 'go'}, {'fileName': 'circleblack.png', 'correct_response': 'left', 'condition': 'go'}, {'fileName': 'squareblack.png', 'correct_response': 'right', 'condition': 'stop'}, {'fileName': 'squareblack.png', 'correct_response': 'right', 'condition': 'go'}, {'fileName': 'circleblack.png', 'correct_response': 'left', 'condition': 'stop'}, {'fileName': 'circleblack.png', 'correct_response': 'left', 'condition': 'stop'}, {'fileName': 'circleblack.png', 'correct_response': 'left', 'condition': 'go'}, {'fileName': 'circleblack.png', 'correct_response': 'left', 'condition': 'go'}, {'fileName': 'squareblack.png', 'correct_response': 'right', 'condition': 'go'}, {'fileName': 'circleblack.png', 'correct_response': 'left', 'condition': 'go'}, {'fileName': 'squareblack.png', 'correct_response': 'right', 'condition': 'stop'}, {'fileName': 'squareblack.png', 'correct_response': 'right', 'condition': 'go'}, {'fileName': 'squareblack.png', 'correct_response': 'right', 'condition': 'go'}, {'fileName': 'circleblack.png', 'correct_response': 'left', 'condition': 'stop'}, {'fileName': 'squareblack.png', 'correct_response': 'right', 'condition': 'stop'}, {'fileName': 'squareblack.png', 'correct_response': 'right', 'condition': 'go'}, {'fileName': 'circleblack.png', 'correct_response': 'left', 'condition': 'go'}]",,,,,,,,,,,,,,,,,,,,,,,,,,,,,,,,,,,,,,,,,,,,,,,,,,,,,3210.0213941559196,3210.0213941559196,return,4.9560836404562,,,,,,,s025,001,2024-08-08_15h16.00.058,simplestop_skeleton,2022.2.2,59.8382769851145,
None,None,,,,,,,,,1,0,1,0,0,0,0,1,,,,,,,,,3215.010373879224,go,circleblack.png,left,0.35,,,,,,,,,,,,,,,,,,0.0025780126452445984,0.49817468598484993,,3217.522044379264,test,2,,,,,,,3215.029367659241,3215.535180799663,3215.535180799663,3215.535180799663,3215.8855259865522,3216.3863079845905,3216.536390658468,3217.539490941912,left,1,0.6996232606470585,0.35,,,,,,,,,,,s025,001,2024-08-08_15h16.00.058,simplestop_skeleton,2022.2.2,59.8382769851145,
None,None,,,,,,,,,1,0,1,0,0,1,1,3,,,,,,,,,3217.522601943463,go,squareblack.png,right,0.35,,,,,,,,,,,,,,,,,,0.0016016773879528046,0.48938897997140884,,3220.0247077941895,test,2,,,,,,,3217.539490941912,3218.05526374653,3218.0379874408245,3218.0379874408245,3218.3890398405492,3218.8890953548253,3219.0392016358674,3220.0414019599557,right,1,0.41154129058122635,0.35,,,,,,,,,,,s025,001,2024-08-08_15h16.00.058,simplestop_skeleton,2022.2.2,59.8382769851145,
$currentCorrectResponse,$currentGoStim,,,,,,,,,1,0,1,0,0,2,2,0,,,,,,,,,3220.0251560769975,go,squareblack.png,right,0.35,,,,,,,,,,,,,,,,,,0.0011584870517253876,0.49000582844018936,,3222.5294423401356,test,2,,,,,,,3220.0414019599557,3220.541307069361,3220.541307069361,3220.541307069361,3220.8912262655795,3221.3918892256916,3221.541939627379,3222.552816398442,right,1,0.36655984818935394,0.35,,,,,,,,,,,s025,001,2024-08-08_15h16.00.058,simplestop_skeleton,2022.2.2,59.8382769851145,
$currentCorrectResponse,$currentGoStim,,,,,,,,,1,0,1,0,0,3,3,0,,,,,,,,,3222.5298944078386,stop,circleblack.png,left,0.35,,,,,,,,,,,,,,,,,,0.007953699678182602,0.4876682758331299,0.8380837477743626,3225.0323919579387,test,2,,,,,,,3222.552816398442,3223.0604639314115,3223.0436641685665,3223.0436641685665,3223.394083995372,3223.8945215269923,3224.0447351820767,3225.052726637572,left,1,0.4889669455587864,0.3,,,,,,,,,,,s025,001,2024-08-08_15h16.00.058,simplestop_skeleton,2022.2.2,59.8382769851145,
$currentCorrectResponse,$currentGoStim,,,,,,,,,1,0,1,0,1,0,4,0,,,,,,,,,3225.0328605361283,go,circleblack.png,left,0.3,,,,,,,,,,,,,,,,,,0.002116803079843521,0.4868854954838753,,3227.533414669335,test,2,,,,,,,3225.052726637572,3225.5632467009127,3225.5464395061135,3225.5464395061135,3225.8466314412653,3226.347227409482,3226.547314014286,3227.5513828210533,left,1,0.6636023260653019,0.3,,,,,,,,,,,s025,001,2024-08-08_15h16.00.058,simplestop_skeleton,2022.2.2,59.8382769851145,
$currentCorrectResponse,$currentGoStim,,,,,,,,,1,0,1,0,1,1,5,0,,,,,,,,,3227.533876553178,go,squareblack.png,right,0.3,,,,,,,,,,,,,,,,,,0.0017019249498844147,0.4890437200665474,,3230.035779442638,test,2,,,,,,,3227.5513828210533,3228.0656933635473,3228.0490348748863,3228.0490348748863,3228.349468294531,3228.8498859740794,3229.0507763437927,3230.0525263100863,right,1,0.579910896718502,0.3,,,,,,,,,,,s025,001,2024-08-08_15h16.00.058,simplestop_skeleton,2022.2.2,59.8382769851145,
None,None,,,,,,,,,1,0,1,0,1,2,6,3,,,,,,,,,3230.036213878542,go,squareblack.png,right,0.3,,,,,,,,,,,,,,,,,,0.0011873580515384674,0.48971472308039665,,3232.538491666317,test,2,,,,,,,3230.0525263100863,3230.551849119365,3230.551849119365,3230.551849119365,3230.8520952276886,3231.3528895005584,3231.5530541464686,3232.556128628552,right,1,0.6339430399239063,0.3,,,,,,,,,,,s025,001,2024-08-08_15h16.00.058,simplestop_skeleton,2022.2.2,59.8382769851145,
None,None,,,,,,,,,1,0,1,0,1,3,7,3,,,,,,,,,3232.5390077009797,stop,circleblack.png,left,0.3,,,,,,,,,,,,,,,,,,0.0018222033977508545,0.4897100254893303,0.790912352502346,3235.0412204414606,test,2,,,,,,,3232.556128628552,3233.0715737976134,3233.0548908412457,3233.0548908412457,3233.3555955812335,3233.8557199016213,3234.05585231632,3235.05786787346,None,0,,0.35,,,,,,,,,,,s025,001,2024-08-08_15h16.00.058,simplestop_skeleton,2022.2.2,59.8382769851145,
None,None,,,,,,,,,1,0,1,0,2,0,8,2,,,,,,,,,3235.0416674651206,go,circleblack.png,left,0.35,,,,,,,,,,,,,,,,,,0.0012352876365184784,0.49058234319090843,,3237.5439997576177,test,2,,,,,,,3235.05786787346,3235.558060325682,3235.558060325682,3235.558060325682,3235.9079146832228,3236.408474404365,3236.5583566837013,3237.5613495595753,left,1,0.5734087191522121,0.35,,,,,,,,,,,s025,001,2024-08-08_15h16.00.058,simplestop_skeleton,2022.2.2,59.8382769851145,
$currentCorrectResponse,$currentGoStim,,,,,,,,,1,0,1,0,2,1,9,0,,,,,,,,,3237.5444827228785,stop,squareblack.png,right,0.35,,,,,,,,,,,,,,,,,,0.001665942370891571,0.49152687191963196,0.8404594622552395,3240.0486440062523,test,2,,,,,,,3237.5613495595753,3238.061857189983,3238.061857189983,3238.061857189983,3238.4107184782624,3238.9109474644065,3239.061047591269,3240.069056391716,right,1,0.5352017097175121,0.3,,,,,,,,,,,s025,001,2024-08-08_15h16.00.058,simplestop_skeleton,2022.2.2,59.8382769851145,
None,None,,,,,,,,,1,0,1,0,2,2,10,3,,,,,,,,,3240.0490746684372,go,circleblack.png,left,0.3,,,,,,,,,,,,,,,,,,0.0025518126785755157,0.4876110814511776,,3242.549957398325,test,2,,,,,,,3240.069056391716,3240.579711917788,3240.563110254705,3240.563110254705,3240.863528393209,3241.363675210625,3241.5639273114502,3242.56800487265,left,1,0.5373352468013763,0.3,,,,,,,,,,,s025,001,2024-08-08_15h16.00.058,simplestop_skeleton,2022.2.2,59.8382769851145,
None,None,,,,,,,,,1,0,1,0,2,3,11,2,,,,,,,,,3242.5504092276096,stop,squareblack.png,right,0.3,,,,,,,,,,,,,,,,,,0.0017293021082878113,0.48930543661117554,0.7892595715820789,3245.0525596141815,test,2,,,,,,,3242.56800487265,3243.082210678607,3243.0656353496015,3243.0656353496015,3243.3658851385117,3243.8665943033993,3244.0666514076293,3245.0703263282776,None,0,,0.35,,,,,,,,,,,s025,001,2024-08-08_15h16.00.058,simplestop_skeleton,2022.2.2,59.8382769851145,
None,None,,,,,,,,,1,0,1,0,3,0,12,1,,,,,,,,,3245.05308015272,go,squareblack.png,right,0.35,,,,,,,,,,,,,,,,,,0.0012401826679706573,0.4887254610657692,,3247.554923631251,test,2,,,,,,,3245.0703263282776,3245.585065379739,3245.568282853812,3245.568282853812,3245.9187774173915,3246.4194213598967,3246.569489233196,3247.572563584894,right,1,0.8479458317160606,0.35,,,,,,,,,,,s025,001,2024-08-08_15h16.00.058,simplestop_skeleton,2022.2.2,59.8382769851145,
None,None,,,,,,,,,1,0,1,0,3,1,13,3,,,,,,,,,3247.5553769506514,go,circleblack.png,left,0.35,,,,,,,,,,,,,,,,,,0.0019103437662124634,0.4896911233663559,,3250.057700678706,test,2,,,,,,,3247.572563584894,3248.08772553131,3248.0711285956204,3248.0711285956204,3248.4235036447644,3248.938838876784,3249.072406221181,3250.074690360576,left,1,0.659274835139513,0.35,,,,,,,,,,,s025,001,2024-08-08_15h16.00.058,simplestop_skeleton,2022.2.2,59.8382769851145,
None,None,,,,,,,,,1,0,1,0,3,2,14,1,,,,,,,,,3250.0581364780664,go,circleblack.png,left,0.35,,,,,,,,,,,,,,,,,,0.0012327171862125397,0.48967501893639565,,3252.5608952641487,test,2,,,,,,,3250.074690360576,3250.573763485998,3250.573763485998,3250.573763485998,3250.925997491926,3251.441582761705,3251.5753527358174,3252.5801529809833,left,1,0.6139084845781326,0.35,,,,,,,,,,,s025,001,2024-08-08_15h16.00.058,simplestop_skeleton,2022.2.2,59.8382769851145,
None,None,,,,,,,,,1,0,1,0,3,3,15,1,,,,,,,,,3252.5615423098207,go,squareblack.png,right,0.35,,,,,,,,,,,,,,,,,,0.0025601089000701904,0.48849206417798996,,3255.0632250122726,test,2,,,,,,,3252.5801529809833,3253.0941533893347,3253.077338207513,3253.077338207513,3253.4287797659636,3253.944415166974,3254.07760463655,3255.080858182162,right,1,0.667175754904747,0.35,,,,,,,,,,,s025,001,2024-08-08_15h16.00.058,simplestop_skeleton,2022.2.2,59.8382769851145,
$currentCorrectResponse,$currentGoStim,,,,,,,,,1,0,1,0,4,0,16,0,,,,,,,,,3255.0636739060283,go,circleblack.png,left,0.35,,,,,,,,,,,,,,,,,,0.0020351558923721313,0.49149078130722046,,3257.566852334887,test,2,,,,,,,3255.080858182162,3255.581319786608,3255.581319786608,3255.581319786608,3255.929947219789,3256.430262196809,3256.597070246935,3257.58740157634,left,1,0.6645653769373894,0.35,,,,,,,,,,,s025,001,2024-08-08_15h16.00.058,simplestop_skeleton,2022.2.2,59.8382769851145,
None,None,,,,,,,,,1,0,1,0,4,1,17,3,,,,,,,,,3257.567309908569,stop,squareblack.png,right,0.35,,,,,,,,,,,,,,,,,,0.0018053464591503143,0.4883841797709465,0.838887732475996,3260.0692980624735,test,2,,,,,,,3257.58740157634,3258.0990546792746,3258.082403384149,3258.082403384149,3258.4325630404055,3258.9329800754786,3259.0832511261106,3260.0874993801117,None,0,,0.4,,,,,,,,,,,s025,001,2024-08-08_15h16.00.058,simplestop_skeleton,2022.2.2,59.8382769851145,
None,None,,,,,,,,,1,0,1,0,4,2,18,1,,,,,,,,,3260.0697695687413,stop,circleblack.png,left,0.4,,,,,,,,,,,,,,,,,,0.0018971972167491913,0.48908110707998276,0.889387171715498,3262.5721295252442,test,2,,,,,,,3260.0874993801117,3260.6016071252525,3260.5851357616484,3260.5851357616484,3260.9853109121323,3261.485947277397,3261.5861492604017,3262.5896634086967,None,0,,0.45,,,,,,,,,,,s025,001,2024-08-08_15h16.00.058,simplestop_skeleton,2022.2.2,59.8382769851145,
None,None,,,,,,,,,1,0,1,0,4,3,19,2,,,,,,,,,3262.5725777447224,go,circleblack.png,left,0.45,,,,,,,,,,,,,,,,,,0.0013033300638198853,0.48866428807377815,,3265.0742881149054,test,2,,,,,,,3262.5896634086967,3263.1043651923537,3263.0876863598824,3263.0876863598824,3263.5381728112698,3264.0399159118533,3264.0899660028517,3265.091029521078,left,1,1.007703222334385,0.45,,,,,,,,,,,s025,001,2024-08-08_15h16.00.058,simplestop_skeleton,2022.2.2,59.8382769851145,
None,None,,,,,,,,,1,0,1,0,5,0,20,1,,,,,,,,,3265.074724074453,stop,circleblack.png,left,0.45,,,,,,,,,,,,,,,,,,0.0012359991669654846,0.48973749577999115,0.9402977712452412,3267.5772255063057,test,2,,,,,,,3265.091029521078,3265.5903828442097,3265.5903828442097,3265.5903828442097,3266.0408624336123,3266.54335783422,3266.5933624207973,3267.5982941687107,None,0,,0.5,,,,,,,,,,,s025,001,2024-08-08_15h16.00.058,simplestop_skeleton,2022.2.2,59.8382769851145,
None,None,,,,,,,,,1,0,1,0,5,1,21,3,,,,,,,,,3267.5776592046022,go,squareblack.png,right,0.5,,,,,,,,,,,,,,,,,,0.005153592675924301,0.4887530989944935,,3270.0798806399107,test,2,,,,,,,3267.5982941687107,3268.1099242717028,3268.093111317605,3268.093111317605,3268.595067150891,3269.0945335924625,3269.0945335924625,3270.096634462476,right,1,0.6604057103395462,0.5,,,,,,,,,,,s025,001,2024-08-08_15h16.00.058,simplestop_skeleton,2022.2.2,59.8382769851145,
None,None,,,,,,,,,1,0,1,0,5,2,22,2,,,,,,,,,3270.080349240452,go,squareblack.png,right,0.5,,,,,,,,,,,,,,,,,,0.001156136393547058,0.4898049421608448,,3272.5825698412955,test,2,,,,,,,3270.096634462476,3270.595884516835,3270.595884516835,3270.595884516835,3271.098343446851,3271.6139341779053,3271.597253538668,3272.599885288626,right,1,0.7293657287955284,0.5,,,,,,,,,,,s025,001,2024-08-08_15h16.00.058,simplestop_skeleton,2022.2.2,59.8382769851145,
None,None,,,,,,,,,1,0,1,0,5,3,23,1,,,,,,,,,3272.583000984043,stop,squareblack.png,right,0.5,,,,,,,,,,,,,,,,,,0.0011664405465126038,0.4908856973052025,0.9905894175171852,3275.0864692516625,test,2,,,,,,,3272.599885288626,3273.1005944795907,3273.1005944795907,3273.1005944795907,3273.599385704845,3274.0998337194324,3274.0998337194324,3275.104071032256,right,1,0.5090628303587437,0.45,,,,,,,,,,,s025,001,2024-08-08_15h16.00.058,simplestop_skeleton,2022.2.2,59.8382769851145,
None,None,,,,,,,,,1,0,1,0,6,0,24,3,,,,,,,,,3275.0868949964643,go,squareblack.png,right,0.45,,,,,,,,,,,,,,,,,,0.001483384519815445,0.49011949077248573,,3277.5900451391935,test,2,,,,,,,3275.104071032256,3275.601613279432,3275.601613279432,3275.601613279432,3276.0521382652223,3276.5525041744113,3276.6025065667927,3277.610545091331,right,1,0.646315261721611,0.45,,,,,,,,,,,s025,001,2024-08-08_15h16.00.058,simplestop_skeleton,2022.2.2,59.8382769851145,
None,None,,,,,,,,,1,0,1,0,6,1,25,2,,,,,,,,,3277.5905083566904,go,squareblack.png,right,0.45,,,,,,,,,,,,,,,,,,0.0022646375000476837,0.4871731400489807,,3280.091218087822,test,2,,,,,,,3277.610545091331,3278.121204469353,3278.1043657027185,3278.1043657027185,3278.5546897239983,3279.05542903021,3279.1053007617593,3280.1149023734033,right,1,0.6912304349243641,0.45,,,,,,,,,,,s025,001,2024-08-08_15h16.00.058,simplestop_skeleton,2022.2.2,59.8382769851145,
None,None,,,,,,,,,1,0,1,0,6,2,26,3,,,,,,,,,3280.0916839390993,go,circleblack.png,left,0.45,,,,,,,,,,,,,,,,,,0.00802590325474739,0.48886655271053314,,3282.593849044293,test,2,,,,,,,3280.1149023734033,3280.6235946156085,3280.606930539012,3280.606930539012,3281.057626683265,3281.558075353503,3281.6082124188542,3282.611959833652,left,1,0.692011721432209,0.45,,,,,,,,,,,s025,001,2024-08-08_15h16.00.058,simplestop_skeleton,2022.2.2,59.8382769851145,
None,None,,,,,,,,,1,0,1,0,6,3,27,1,,,,,,,,,3282.5942885279655,stop,squareblack.png,right,0.45,,,,,,,,,,,,,,,,,,0.0017339065670967102,0.48917319253087044,0.939743734896183,3285.0971388332546,test,2,,,,,,,3282.611959833652,3283.1266310960054,3283.1097056679428,3283.1097056679428,3283.5602604039013,3284.0617649257183,3284.1120016165078,3285.113989815116,None,0,,0.5,,,,,,,,,,,s025,001,2024-08-08_15h16.00.058,simplestop_skeleton,2022.2.2,59.8382769851145,
None,None,,,,,,,,,1,0,1,0,7,0,28,3,,,,,,,,,3285.0975851751864,go,circleblack.png,left,0.5,,,,,,,,,,,,,,,,,,0.0017540007829666138,0.4890730567276478,,3287.5991641655564,test,2,,,,,,,3285.113989815116,3285.6291882656515,3285.6125309430063,3285.6125309430063,3286.113150022924,3286.6137255728245,3286.6137255728245,3287.6160978786647,left,1,0.6239114440977573,0.5,,,,,,,,,,,s025,001,2024-08-08_15h16.00.058,simplestop_skeleton,2022.2.2,59.8382769851145,
None,None,,,,,,,,,1,0,1,0,7,1,29,1,,,,,,,,,3287.5996103547513,stop,circleblack.png,left,0.5,,,,,,,,,,,,,,,,,,0.0012424439191818237,0.49016663432121277,0.9918943233788013,3290.102324977517,test,2,,,,,,,3287.6160978786647,3288.1155147738755,3288.1155147738755,3288.1155147738755,3288.6179354563355,3289.133280996233,3289.116571970284,3290.1196568906307,left,1,0.3686145208775997,0.45,,,,,,,,,,,s025,001,2024-08-08_15h16.00.058,simplestop_skeleton,2022.2.2,59.8382769851145,
None,None,,,,,,,,,1,0,1,0,7,2,30,2,,,,,,,,,3290.1027814634144,go,squareblack.png,right,0.45,,,,,,,,,,,,,,,,,,0.0016124136745929718,0.49011118337512016,,3292.6047679930925,test,2,,,,,,,3290.1196568906307,3290.619340494275,3290.619340494275,3290.619340494275,3291.0687060058117,3291.5690616481006,3291.619074534625,3292.622065190226,right,1,0.6484610550105572,0.45,,,,,,,,,,,s025,001,2024-08-08_15h16.00.058,simplestop_skeleton,2022.2.2,59.8382769851145,
$currentCorrectResponse,$currentGoStim,,,,,,,,,1,0,1,0,7,3,31,0,,,,,,,,,3292.6052096784115,go,circleblack.png,left,0.45,,,,,,,,,,,,,,,,,,0.0017608106136322021,0.49152372032403946,,3295.1083644777536,test,2,,,,,,,3292.622065190226,3293.12266241014,3293.12266241014,3293.12266241014,3293.571446802467,3294.071777932346,3294.1218332238495,3295.1260715164244,left,1,0.5943074449896812,0.45,,,,,,,,,,,s025,001,2024-08-08_15h16.00.058,simplestop_skeleton,2022.2.2,59.8382769851145,
$currentCorrectResponse,$currentGoStim,,,,,,,,,1,0,1,0,8,0,32,0,,,,,,,,,3295.1088110134006,go,circleblack.png,left,0.45,,,,,,,,,,,,,,,,,,0.0013140812516212463,0.4885643422603607,,3297.6124402433634,test,2,,,,,,,3295.1260715164244,3295.6403513774276,3295.623744096607,3295.623744096607,3296.0740881860256,3296.5745737701654,3296.624614968896,3297.6338588297367,left,1,0.5376028716564178,0.45,,,,,,,,,,,s025,001,2024-08-08_15h16.00.058,simplestop_skeleton,2022.2.2,59.8382769851145,
None,None,,,,,,,,,1,0,1,0,8,1,33,2,,,,,,,,,3297.6129174232483,stop,squareblack.png,right,0.45,,,,,,,,,,,,,,,,,,0.002468463033437729,0.4864615611732006,0.9367864280939102,3300.1135786361992,test,2,,,,,,,3297.6338588297367,3298.1432577446103,3298.126486763358,3298.126486763358,3298.576815329492,3299.0773010514677,3299.127421911806,3300.1311455331743,right,1,0.6058066673576832,0.4,,,,,,,,,,,s025,001,2024-08-08_15h16.00.058,simplestop_skeleton,2022.2.2,59.8382769851145,
None,None,,,,,,,,,1,0,1,0,8,2,34,1,,,,,,,,,3300.1140320040286,go,squareblack.png,right,0.4,,,,,,,,,,,,,,,,,,0.0013982206583023071,0.4887310676276684,,3302.616081699729,test,2,,,,,,,3300.1311455331743,3300.64576767385,3300.6289418525994,3300.6289418525994,3301.029485080391,3301.531728230417,3301.6310327723622,3302.634543865919,right,1,0.69087203592062,0.4,,,,,,,,,,,s025,001,2024-08-08_15h16.00.058,simplestop_skeleton,2022.2.2,59.8382769851145,
$currentCorrectResponse,$currentGoStim,,,,,,,,,1,0,1,0,8,3,35,0,,,,,,,,,3302.6165216863155,stop,circleblack.png,left,0.4,,,,,,,,,,,,,,,,,,0.0018837600946426392,0.4890151806175709,0.8894629143178463,3305.1187615022063,test,2,,,,,,,3302.634543865919,3303.1484633907676,3303.1318070665,3303.1318070665,3303.532250791788,3304.0329431705177,3304.1338741257787,3305.1498039215803,left,1,0.5472512356936932,0.35,,,,,,,,,,,s025,001,2024-08-08_15h16.00.058,simplestop_skeleton,2022.2.2,59.8382769851145,
None,None,,,,,,,,,1,0,1,0,9,0,36,2,,,,,,,,,3305.119201067835,stop,circleblack.png,left,0.35,,,,,,,,,,,,,,,,,,0.0012448467314243317,0.4897242970764637,0.840620581060648,3307.621609020978,test,2,,,,,,,3305.1498039215803,3305.651206675917,3305.634601689875,3305.634601689875,3305.987887341529,3306.502416949719,3306.6360203661025,3307.638546783477,None,0,,0.4,,,,,,,,,,,s025,001,2024-08-08_15h16.00.058,simplestop_skeleton,2022.2.2,59.8382769851145,
$currentCorrectResponse,$currentGoStim,,,,,,,,,1,0,1,0,9,1,37,0,,,,,,,,,3307.6220425777137,go,circleblack.png,left,0.4,,,,,,,,,,,,,,,,,,0.0012546367943286896,0.4893040396273136,,3310.1241296827793,test,2,,,,,,,3307.638546783477,3308.1545506566763,3308.137470148504,3308.137470148504,3308.538745056838,3309.038422781974,3309.138598717749,3310.1413998678327,left,1,0.5553423762321472,0.4,,,,,,,,,,,s025,001,2024-08-08_15h16.00.058,simplestop_skeleton,2022.2.2,59.8382769851145,
None,None,,,,,,,,,1,0,1,0,9,2,38,2,,,,,,,,,3310.1245767846704,go,circleblack.png,left,0.4,,,,,,,,,,,,,,,,,,0.0012256614863872528,0.4900042451918125,,3312.6267610378563,test,2,,,,,,,3310.1413998678327,3310.656915385276,3310.6401169486344,3310.6401169486344,3311.0423621945083,3311.5579640977085,3311.6413865722716,3312.6462892219424,left,1,0.6686517670750618,0.4,,,,,,,,,,,s025,001,2024-08-08_15h16.00.058,simplestop_skeleton,2022.2.2,59.8382769851145,
$currentCorrectResponse,$currentGoStim,,,,,,,,,1,0,1,0,9,3,39,0,,,,,,,,,3312.627210266888,go,squareblack.png,right,0.4,,,,,,,,,,,,,,,,,,0.004677634686231613,0.4912632182240486,,3315.1296808831394,test,2,,,,,,,3312.6462892219424,3313.1611793786287,3313.1441580206156,3313.1441580206156,3313.5434405468404,3314.0440237522125,3314.143935494125,3315.147008549422,right,1,0.6084071584045887,0.4,,,,,,,,,,,s025,001,2024-08-08_15h16.00.058,simplestop_skeleton,2022.2.2,59.8382769851145,
None,None,,,,,,,,,1,0,1,0,10,0,40,3,,,,,,,,,3315.1301448456943,go,circleblack.png,left,0.4,,,,,,,,,,,,,,,,,,0.0016671419143676758,0.49179263040423393,,3317.6324148774147,test,2,,,,,,,3315.147008549422,3315.647489171475,3315.647489171475,3315.647489171475,3316.0462307073176,3316.54665626958,3316.6466953866184,3317.6506239436567,left,1,0.6028506979346275,0.4,,,,,,,,,,,s025,001,2024-08-08_15h16.00.058,simplestop_skeleton,2022.2.2,59.8382769851145,
None,None,,,,,,,,,1,0,1,0,10,1,41,2,,,,,,,,,3317.632897812873,stop,squareblack.png,right,0.4,,,,,,,,,,,,,,,,,,0.0016984082758426666,0.48911920189857483,0.8893469646573067,3320.13558088243,test,2,,,,,,,3317.6506239436567,3318.165260311216,3318.1486522369087,3318.1486522369087,3318.548830330372,3319.0494161210954,3319.1495236828923,3320.1534093804657,None,0,,0.45,,,,,,,,,,,s025,001,2024-08-08_15h16.00.058,simplestop_skeleton,2022.2.2,59.8382769851145,
None,None,,,,,,,,,1,0,1,0,10,2,42,2,,,,,,,,,3320.1360384486616,go,squareblack.png,right,0.45,,,,,,,,,,,,,,,,,,0.0012329667806625366,0.48878077045083046,,3322.6382081992924,test,2,,,,,,,3320.1534093804657,3320.6681333333254,3320.651629678905,3320.651629678905,3321.1016123108566,3321.602164376527,3321.652600888163,3322.6559276245534,right,1,0.6563722752034664,0.45,,,,,,,,,,,s025,001,2024-08-08_15h16.00.058,simplestop_skeleton,2022.2.2,59.8382769851145,
None,None,,,,,,,,,1,0,1,0,10,3,43,1,,,,,,,,,3322.6386537738144,go,squareblack.png,right,0.45,,,,,,,,,,,,,,,,,,0.0012341104447841644,0.4889098107814789,,3325.1409598477185,test,2,,,,,,,3322.6559276245534,3323.1706980355084,3323.153962813318,3323.153962813318,3323.6044189333916,3324.10497424379,3324.15580720827,3325.165246579796,right,1,0.6425355151295662,0.45,,,,,,,,,,,s025,001,2024-08-08_15h16.00.058,simplestop_skeleton,2022.2.2,59.8382769851145,
None,None,,,,,,,,,1,0,1,0,11,0,44,1,,,,,,,,,3325.14141343534,stop,circleblack.png,left,0.45,,,,,,,,,,,,,,,,,,0.008227601647377014,0.48857857286930084,0.9389950074255466,3327.64383001253,test,2,,,,,,,3325.165246579796,3325.6735251508653,3325.6568618044257,3325.6568618044257,3326.107101175934,3326.6078964062035,3326.65788763389,3327.6608169153333,left,1,0.6590852737426758,0.4,,,,,,,,,,,s025,001,2024-08-08_15h16.00.058,simplestop_skeleton,2022.2.2,59.8382769851145,
None,None,,,,,,,,,1,0,1,0,11,1,45,3,,,,,,,,,3327.6442802511156,stop,squareblack.png,right,0.4,,,,,,,,,,,,,,,,,,0.001969609409570694,0.489166758954525,0.890559196472168,3330.1464151777327,test,2,,,,,,,3327.6608169153333,3328.176053073257,3328.159458696842,3328.159458696842,3328.5605769604445,3329.060594525188,3329.1606974825263,3330.163407739252,None,0,,0.45,,,,,,,,,,,s025,001,2024-08-08_15h16.00.058,simplestop_skeleton,2022.2.2,59.8382769851145,
None,None,,,,,,,,,1,0,1,0,11,2,46,2,,,,,,,,,3330.1471171714365,go,squareblack.png,right,0.45,,,,,,,,,,,,,,,,,,0.001170329749584198,0.48938069865107536,,3332.64887400344,test,2,,,,,,,3330.163407739252,3330.678962908685,3330.662323258817,3330.662323258817,3331.1145644932985,3331.6136145070195,3331.6635513864458,3332.6711756512523,right,1,0.7677862606942654,0.45,,,,,,,,,,,s025,001,2024-08-08_15h16.00.058,simplestop_skeleton,2022.2.2,59.8382769851145,
$currentCorrectResponse,$currentGoStim,,,,,,,,,1,0,1,0,11,3,47,0,,,,,,,,,3332.649325374514,go,circleblack.png,left,0.45,,,,,,,,,,,,,,,,,,0.007447369396686554,0.490722481161356,,3335.1523867473006,test,2,,,,,,,3332.6711756512523,3333.182514719665,3333.1657948717475,3333.1657948717475,3333.615577824414,3334.1163489483297,3334.1661713309586,3335.1676250211895,left,1,0.791420079767704,0.45,,,,,,,,,,,s025,001,2024-08-08_15h16.00.058,simplestop_skeleton,2022.2.2,59.8382769851145,
,,,,,,,,,,1,0,1,0,,,,,,,,,,,,,,,,,,,,,,,,,,,,,,,,,,,,,,,,,,,,,,,,,,,,,,,,,,,3335.1676250211895,3335.1676250211895,return,2.3233828023076057,"[{'fileName': 'circleblack.png', 'correct_response': 'left', 'condition': 'go'}, {'fileName': 'circleblack.png', 'correct_response': 'left', 'condition': 'stop'}, {'fileName': 'squareblack.png', 'correct_response': 'right', 'condition': 'go'}, {'fileName': 'circleblack.png', 'correct_response': 'left', 'condition': 'go'}, {'fileName': 'circleblack.png', 'correct_response': 'left', 'condition': 'stop'}, {'fileName': 'squareblack.png', 'correct_response': 'right', 'condition': 'go'}, {'fileName': 'squareblack.png', 'correct_response': 'right', 'condition': 'go'}, {'fileName': 'squareblack.png', 'correct_response': 'right', 'condition': 'stop'}, {'fileName': 'squareblack.png', 'correct_response': 'right', 'condition': 'go'}, {'fileName': 'circleblack.png', 'correct_response': 'left', 'condition': 'go'}, {'fileName': 'squareblack.png', 'correct_response': 'right', 'condition': 'stop'}, {'fileName': 'circleblack.png', 'correct_response': 'left', 'condition': 'go'}, {'fileName': 'circleblack.png', 'correct_response': 'left', 'condition': 'go'}, {'fileName': 'squareblack.png', 'correct_response': 'right', 'condition': 'stop'}, {'fileName': 'squareblack.png', 'correct_response': 'right', 'condition': 'stop'}, {'fileName': 'circleblack.png', 'correct_response': 'left', 'condition': 'go'}, {'fileName': 'circleblack.png', 'correct_response': 'left', 'condition': 'stop'}, {'fileName': 'squareblack.png', 'correct_response': 'right', 'condition': 'go'}, {'fileName': 'squareblack.png', 'correct_response': 'right', 'condition': 'go'}, {'fileName': 'circleblack.png', 'correct_response': 'left', 'condition': 'go'}, {'fileName': 'squareblack.png', 'correct_response': 'right', 'condition': 'go'}, {'fileName': 'circleblack.png', 'correct_response': 'left', 'condition': 'stop'}, {'fileName': 'squareblack.png', 'correct_response': 'right', 'condition': 'go'}, {'fileName': 'circleblack.png', 'correct_response': 'left', 'condition': 'go'}, {'fileName': 'squareblack.png', 'correct_response': 'right', 'condition': 'go'}, {'fileName': 'squareblack.png', 'correct_response': 'right', 'condition': 'go'}, {'fileName': 'squareblack.png', 'correct_response': 'right', 'condition': 'go'}, {'fileName': 'squareblack.png', 'correct_response': 'right', 'condition': 'stop'}, {'fileName': 'squareblack.png', 'correct_response': 'right', 'condition': 'stop'}, {'fileName': 'circleblack.png', 'correct_response': 'left', 'condition': 'stop'}, {'fileName': 'circleblack.png', 'correct_response': 'left', 'condition': 'go'}, {'fileName': 'circleblack.png', 'correct_response': 'left', 'condition': 'go'}, {'fileName': 'circleblack.png', 'correct_response': 'left', 'condition': 'go'}, {'fileName': 'circleblack.png', 'correct_response': 'left', 'condition': 'stop'}, {'fileName': 'circleblack.png', 'correct_response': 'left', 'condition': 'go'}, {'fileName': 'squareblack.png', 'correct_response': 'right', 'condition': 'go'}, {'fileName': 'circleblack.png', 'correct_response': 'left', 'condition': 'stop'}, {'fileName': 'circleblack.png', 'correct_response': 'left', 'condition': 'stop'}, {'fileName': 'squareblack.png', 'correct_response': 'right', 'condition': 'go'}, {'fileName': 'circleblack.png', 'correct_response': 'left', 'condition': 'go'}, {'fileName': 'squareblack.png', 'correct_response': 'right', 'condition': 'go'}, {'fileName': 'circleblack.png', 'correct_response': 'left', 'condition': 'go'}, {'fileName': 'squareblack.png', 'correct_response': 'right', 'condition': 'stop'}, {'fileName': 'squareblack.png', 'correct_response': 'right', 'condition': 'stop'}, {'fileName': 'circleblack.png', 'correct_response': 'left', 'condition': 'go'}, {'fileName': 'squareblack.png', 'correct_response': 'right', 'condition': 'go'}, {'fileName': 'squareblack.png', 'correct_response': 'right', 'condition': 'go'}, {'fileName': 'circleblack.png', 'correct_response': 'left', 'condition': 'go'}]",,,,,,s025,001,2024-08-08_15h16.00.058,simplestop_skeleton,2022.2.2,59.8382769851145,
None,None,,,,,,,,,2,0,2,0,0,0,0,2,,,,,,,,,3337.5154118202627,go,circleblack.png,left,0.45,,,,,,,,,,,,,,,,,,0.0013138391077518463,0.49535392597317696,,3340.025530345738,test,3,,,,,,,3337.5325667634606,3338.0370880924165,3338.0370880924165,3338.0370880924165,3338.4876642897725,3338.9880128353834,3339.038028296083,3340.046577718109,left,1,0.4832426980137825,0.45,,,,,,,,,,,s025,001,2024-08-08_15h16.00.058,simplestop_skeleton,2022.2.2,59.8382769851145,
None,None,,,,,,,,,2,0,2,0,0,1,1,3,,,,,,,,,3340.0263440795243,stop,circleblack.png,left,0.45,,,,,,,,,,,,,,,,,,0.001980610191822052,0.4843445494771004,0.9348689280450344,3342.528583470732,test,3,,,,,,,3340.046577718109,3340.556572020054,3340.539940148592,3340.539940148592,3340.990199740976,3341.4908032752573,3341.5409269034863,3342.5541331134737,left,1,0.49136363342404366,0.4,,,,,,,,,,,s025,001,2024-08-08_15h16.00.058,simplestop_skeleton,2022.2.2,59.8382769851145,
None,None,,,,,,,,,2,0,2,0,0,2,2,2,,,,,,,,,3342.529031328857,go,squareblack.png,right,0.4,,,,,,,,,,,,,,,,,,0.007345572113990784,0.4869346357882023,,3345.0295713618398,test,3,,,,,,,3342.5541331134737,3343.05941490829,3343.0427020043135,3343.0427020043135,3343.4429421126842,3343.943494282663,3344.0435288101435,3345.0482227168977,right,1,0.7497158460319042,0.4,,,,,,,,,,,s025,001,2024-08-08_15h16.00.058,simplestop_skeleton,2022.2.2,59.8382769851145,
None,None,,,,,,,,,2,0,2,0,0,3,3,1,,,,,,,,,3345.030022535473,go,circleblack.png,left,0.4,,,,,,,,,,,,,,,,,,0.001969020813703537,0.4889708533883095,,3347.532363433391,test,3,,,,,,,3345.0482227168977,3345.562211174518,3345.5454302579165,3345.5454302579165,3345.9457254335284,3346.446307770908,3346.5494326911867,3347.549904946238,left,1,0.675081018358469,0.4,,,,,,,,,,,s025,001,2024-08-08_15h16.00.058,simplestop_skeleton,2022.2.2,59.8382769851145,
None,None,,,,,,,,,2,0,2,0,1,0,4,3,,,,,,,,,3347.5328244641423,stop,circleblack.png,left,0.4,,,,,,,,,,,,,,,,,,0.0012953877449035645,0.489053126424551,0.8894949033856392,3350.0351585000753,test,3,,,,,,,3347.549904946238,3348.064704194665,3348.0480316132307,3348.0480316132307,3348.448516264558,3348.951537851244,3349.0497045107186,3350.052548442036,None,0,,0.45,,,,,,,,,,,s025,001,2024-08-08_15h16.00.058,simplestop_skeleton,2022.2.2,59.8382769851145,
None,None,,,,,,,,,2,0,2,0,1,1,5,3,,,,,,,,,3350.0355926454067,go,squareblack.png,right,0.45,,,,,,,,,,,,,,,,,,0.00217597559094429,0.48927541077136993,,3352.537433426827,test,3,,,,,,,3350.052548442036,3350.5674898140132,3350.5507827475667,3350.5507827475667,3351.0042319856584,3351.518798135221,3351.5519633367658,3352.5542679801583,right,1,0.7163932286202908,0.45,,,,,,,,,,,s025,001,2024-08-08_15h16.00.058,simplestop_skeleton,2022.2.2,59.8382769851145,
None,None,,,,,,,,,2,0,2,0,1,2,6,1,,,,,,,,,3352.537904165685,go,squareblack.png,right,0.45,,,,,,,,,,,,,,,,,,0.0011994950473308563,0.4897298067808151,,3355.0402659885585,test,3,,,,,,,3352.5542679801583,3353.053490407765,3353.053490407765,3353.053490407765,3353.5049627274275,3354.004754114896,3354.054810464382,3355.05712389946,right,1,0.5526359491050243,0.45,,,,,,,,,,,s025,001,2024-08-08_15h16.00.058,simplestop_skeleton,2022.2.2,59.8382769851145,
None,None,,,,,,,,,2,0,2,0,1,3,7,3,,,,,,,,,3355.040715403855,stop,squareblack.png,right,0.45,,,,,,,,,,,,,,,,,,0.0011607743799686432,0.48981018364429474,0.9417965821921825,3357.5432824119925,test,3,,,,,,,3355.05712389946,3355.556698806584,3355.556698806584,3355.556698806584,3356.0086231455207,3356.5243675373495,3356.5576793327928,3357.560005068779,right,1,0.4455348253250122,0.4,,,,,,,,,,,s025,001,2024-08-08_15h16.00.058,simplestop_skeleton,2022.2.2,59.8382769851145,
$currentCorrectResponse,$currentGoStim,,,,,,,,,2,0,2,0,2,0,8,0,,,,,,,,,3357.543760728091,go,squareblack.png,right,0.4,,,,,,,,,,,,,,,,,,0.0012233592569828033,0.48942453786730766,,3360.045662712306,test,3,,,,,,,3357.560005068779,3358.0613015517592,3358.0613015517592,3358.0613015517592,3358.4613471366465,3358.977061241865,3359.077041078359,3360.068381924182,right,1,0.6664444357156754,0.4,,,,,,,,,,,s025,001,2024-08-08_15h16.00.058,simplestop_skeleton,2022.2.2,59.8382769851145,
None,None,,,,,,,,,2,0,2,0,2,1,9,2,,,,,,,,,3360.046093534678,go,circleblack.png,left,0.4,,,,,,,,,,,,,,,,,,0.007735513150691986,0.4913121797144413,,3362.54883980006,test,3,,,,,,,3360.068381924182,3360.5799371898174,3360.563314061612,3360.563314061612,3360.962570887059,3361.4630348347127,3361.5629234686494,3362.566103171557,left,1,0.7665400169789791,0.4,,,,,,,,,,,s025,001,2024-08-08_15h16.00.058,simplestop_skeleton,2022.2.2,59.8382769851145,
$currentCorrectResponse,$currentGoStim,,,,,,,,,2,0,2,0,2,2,10,0,,,,,,,,,3362.549283247441,stop,squareblack.png,right,0.4,,,,,,,,,,,,,,,,,,0.0016185641288757324,0.4912162646651268,0.8900506310164928,3365.0521856360137,test,3,,,,,,,3362.566103171557,3363.0665021426976,3363.0665021426976,3363.0665021426976,3363.465203244239,3363.965583804995,3364.0656371712685,3365.0704178363085,None,0,,0.45,,,,,,,,,,,s025,001,2024-08-08_15h16.00.058,simplestop_skeleton,2022.2.2,59.8382769851145,
None,None,,,,,,,,,2,0,2,0,2,3,11,1,,,,,,,,,3365.0526433624327,go,circleblack.png,left,0.45,,,,,,,,,,,,,,,,,,0.0017937421798706055,0.48870060220360756,,3367.5559309497476,test,3,,,,,,,3365.0704178363085,3365.5841978266835,3365.56757254526,3365.56757254526,3366.0182539857924,3366.51832767576,3366.568445265293,3367.576257187873,left,1,0.4367322623729706,0.45,,,,,,,,,,,s025,001,2024-08-08_15h16.00.058,simplestop_skeleton,2022.2.2,59.8382769851145,
$currentCorrectResponse,$currentGoStim,,,,,,,,,2,0,2,0,3,0,12,0,,,,,,,,,3367.5563749298453,go,circleblack.png,left,0.45,,,,,,,,,,,,,,,,,,0.0017049014568328857,0.4877129942178726,,3370.056998036802,test,3,,,,,,,3367.576257187873,3368.0870011784136,3368.070350486785,3368.070350486785,3368.5206109806895,3369.0211842246354,3369.0711821094155,3370.075291931629,left,1,0.5733196064829826,0.45,,,,,,,,,,,s025,001,2024-08-08_15h16.00.058,simplestop_skeleton,2022.2.2,59.8382769851145,
None,None,,,,,,,,,2,0,2,0,3,1,13,1,,,,,,,,,3370.057446818799,stop,squareblack.png,right,0.45,,,,,,,,,,,,,,,,,,0.0017206184566020966,0.48932865262031555,0.939532183110714,3372.5600406192243,test,3,,,,,,,3370.075291931629,3370.589830737561,3370.573138333857,3370.573138333857,3371.023381076753,3371.5239131860435,3371.573974393308,3372.5778420865536,right,1,0.5072515457868576,0.4,,,,,,,,,,,s025,001,2024-08-08_15h16.00.058,simplestop_skeleton,2022.2.2,59.8382769851145,
None,None,,,,,,,,,2,0,2,0,3,2,14,1,,,,,,,,,3372.5604896247387,stop,squareblack.png,right,0.4,,,,,,,,,,,,,,,,,,0.0013980083167552948,0.4889840669929981,0.8892973773181438,3375.0627546422184,test,3,,,,,,,3372.5778420865536,3373.0923184752464,3373.0755925625563,3373.0755925625563,3373.4760742783546,3373.9802976101637,3374.0775529034436,3375.0810695774853,None,0,,0.45,,,,,,,,,,,s025,001,2024-08-08_15h16.00.058,simplestop_skeleton,2022.2.2,59.8382769851145,
None,None,,,,,,,,,2,0,2,0,3,3,15,3,,,,,,,,,3375.0631965249777,go,circleblack.png,left,0.45,,,,,,,,,,,,,,,,,,0.001978907734155655,0.48879724368453026,,3377.565405987203,test,3,,,,,,,3375.0810695774853,3375.5950271636248,3375.5783056505024,3375.5783056505024,3376.029123470187,3376.5294830091298,3376.5795177444816,3377.5842211954296,left,1,0.6998451910912991,0.45,,,,,,,,,,,s025,001,2024-08-08_15h16.00.058,simplestop_skeleton,2022.2.2,59.8382769851145,
None,None,,,,,,,,,2,0,2,0,4,0,16,2,,,,,,,,,3377.565844643861,stop,circleblack.png,left,0.45,,,,,,,,,,,,,,,,,,0.0015830546617507935,0.48890281468629837,0.9393715411424637,3380.0681363232434,test,3,,,,,,,3377.5842211954296,3378.0980453193188,3378.0811533778906,3378.0811533778906,3378.5316057242453,3379.0328670442104,3379.082425508648,3380.0857047066092,left,1,0.5809760391712189,0.4,,,,,,,,,,,s025,001,2024-08-08_15h16.00.058,simplestop_skeleton,2022.2.2,59.8382769851145,
None,None,,,,,,,,,2,0,2,0,4,1,17,3,,,,,,,,,3380.068589221686,go,squareblack.png,right,0.4,,,,,,,,,,,,,,,,,,0.0016194283962249756,0.48928384110331535,,3382.570501573384,test,3,,,,,,,3380.0857047066092,3380.6005398593843,3380.583855435252,3380.583855435252,3380.984359357506,3381.484962195158,3381.5851597711444,3382.5869896896183,right,1,0.6417087726294994,0.4,,,,,,,,,,,s025,001,2024-08-08_15h16.00.058,simplestop_skeleton,2022.2.2,59.8382769851145,
None,None,,,,,,,,,2,0,2,0,4,2,18,1,,,,,,,,,3382.5709329247475,go,squareblack.png,right,0.4,,,,,,,,,,,,,,,,,,0.0012013167142868042,0.49009791389107704,,3385.0735010504723,test,3,,,,,,,3382.5869896896183,3383.086647886783,3383.086647886783,3383.086647886783,3383.487844802439,3383.9878902696073,3384.0879434794188,3385.0909262895584,right,1,0.7274966314435005,0.4,,,,,,,,,,,s025,001,2024-08-08_15h16.00.058,simplestop_skeleton,2022.2.2,59.8382769851145,
None,None,,,,,,,,,2,0,2,0,4,3,19,2,,,,,,,,,3385.073949534446,go,circleblack.png,left,0.4,,,,,,,,,,,,,,,,,,0.001799304038286209,0.48946159332990646,,3387.576053407043,test,3,,,,,,,3385.0909262895584,3385.606137469411,3385.589518107474,3385.589518107474,3385.991956397891,3386.507382068783,3386.590766131878,3387.5932891070843,left,1,0.6088063083589077,0.4,,,,,,,,,,,s025,001,2024-08-08_15h16.00.058,simplestop_skeleton,2022.2.2,59.8382769851145,
None,None,,,,,,,,,2,0,2,0,5,0,20,1,,,,,,,,,3387.5765001773834,go,squareblack.png,right,0.4,,,,,,,,,,,,,,,,,,0.0016585402190685272,0.49075009301304817,,3390.0789667852223,test,3,,,,,,,3387.5932891070843,3388.0929881483316,3388.0929881483316,3388.0929881483316,3388.4943912550807,3389.0101763270795,3389.0935416072607,3390.096763048321,right,1,0.8359459452331066,0.4,,,,,,,,,,,s025,001,2024-08-08_15h16.00.058,simplestop_skeleton,2022.2.2,59.8382769851145,
$currentCorrectResponse,$currentGoStim,,,,,,,,,2,0,2,0,5,1,21,0,,,,,,,,,3390.0794022753835,stop,circleblack.png,left,0.4,,,,,,,,,,,,,,,,,,0.0017002224922180176,0.4903281554579735,0.8916816972196102,3392.5830660052598,test,3,,,,,,,3390.096763048321,3390.6126328893006,3390.5961867049336,3390.5961867049336,3390.9955143406987,3391.496178507805,3391.595974601805,3392.602252729237,None,0,,0.45,,,,,,,,,,,s025,001,2024-08-08_15h16.00.058,simplestop_skeleton,2022.2.2,59.8382769851145,
None,None,,,,,,,,,2,0,2,0,5,2,22,2,,,,,,,,,3392.5834979489446,go,squareblack.png,right,0.45,,,,,,,,,,,,,,,,,,0.002509698271751404,0.4880285710096359,,3395.085438273847,test,3,,,,,,,3392.602252729237,3393.1145259439945,3393.0977938584983,3393.0977938584983,3393.548339776695,3394.048802997917,3394.0986889638007,3395.1029870063066,right,1,0.7090860493481159,0.45,,,,,,,,,,,s025,001,2024-08-08_15h16.00.058,simplestop_skeleton,2022.2.2,59.8382769851145,
None,None,,,,,,,,,2,0,2,0,5,3,23,1,,,,,,,,,3395.085875324905,go,circleblack.png,left,0.45,,,,,,,,,,,,,,,,,,0.0018632933497428894,0.48881663754582405,,3397.589735712856,test,3,,,,,,,3395.1029870063066,3395.6173003278673,3395.600662961602,3395.600662961602,3396.051121480763,3396.551550012082,3396.60151194036,3397.6114862933755,left,1,0.6428669728338718,0.45,,,,,,,,,,,s025,001,2024-08-08_15h16.00.058,simplestop_skeleton,2022.2.2,59.8382769851145,
None,None,,,,,,,,,2,0,2,0,6,0,24,2,,,,,,,,,3397.590416021645,go,squareblack.png,right,0.45,,,,,,,,,,,,,,,,,,0.0016749687492847443,0.484236154705286,,3400.0904005244374,test,3,,,,,,,3397.6114862933755,3398.1202404797077,3398.103387411684,3398.103387411684,3398.553796622902,3399.0543433763087,3399.1044100895524,3400.1080038137734,right,1,0.9848033711314201,0.45,,,,,,,,,,,s025,001,2024-08-08_15h16.00.058,simplestop_skeleton,2022.2.2,59.8382769851145,
$currentCorrectResponse,$currentGoStim,,,,,,,,,2,0,2,0,6,1,25,0,,,,,,,,,3400.0908649526536,go,squareblack.png,right,0.45,,,,,,,,,,,,,,,,,,0.001333579421043396,0.4889663942158222,,3402.593117184937,test,3,,,,,,,3400.1080038137734,3400.62290879339,3400.6061665825546,3400.6061665825546,3401.0565401017666,3401.5570680759847,3401.6071684621274,3402.6106642261147,right,1,0.569896649569273,0.45,,,,,,,,,,,s025,001,2024-08-08_15h16.00.058,simplestop_skeleton,2022.2.2,59.8382769851145,
$currentCorrectResponse,$currentGoStim,,,,,,,,,2,0,2,0,6,2,26,0,,,,,,,,,3402.593578875065,go,squareblack.png,right,0.45,,,,,,,,,,,,,,,,,,0.0012329071760177612,0.4890371039509773,,3405.0959414355457,test,3,,,,,,,3402.6106642261147,3403.1256415992975,3403.1091792732477,3403.1091792732477,3403.559256449342,3404.059758901596,3404.1102287583053,3405.1137732043862,right,1,0.547235019505024,0.45,,,,,,,,,,,s025,001,2024-08-08_15h16.00.058,simplestop_skeleton,2022.2.2,59.8382769851145,
$currentCorrectResponse,$currentGoStim,,,,,,,,,2,0,2,0,6,3,27,0,,,,,,,,,3405.096394907683,stop,squareblack.png,right,0.45,,,,,,,,,,,,,,,,,,0.0012632980942726135,0.48876769095659256,0.9392034448683262,3407.5986494906247,test,3,,,,,,,3405.1137732043862,3405.6282108165324,3405.6114881671965,3405.6114881671965,3406.062080796808,3406.5626072846353,3406.6126374155283,3407.6162674352527,right,1,0.5410921759903431,0.4,,,,,,,,,,,s025,001,2024-08-08_15h16.00.058,simplestop_skeleton,2022.2.2,59.8382769851145,
None,None,,,,,,,,,2,0,2,0,7,0,28,3,,,,,,,,,3407.59911441803,stop,squareblack.png,right,0.4,,,,,,,,,,,,,,,,,,0.001262769103050232,0.48900921270251274,0.8893491178750992,3410.1009788252413,test,3,,,,,,,3407.6162674352527,3408.1310367770493,3408.114284273237,3408.114284273237,3408.5146309398115,3409.015254534781,3409.116616651416,3410.1243347600102,None,0,,0.45,,,,,,,,,,,s025,001,2024-08-08_15h16.00.058,simplestop_skeleton,2022.2.2,59.8382769851145,
None,None,,,,,,,,,2,0,2,0,7,1,29,3,,,,,,,,,3410.10141062364,stop,circleblack.png,left,0.45,,,,,,,,,,,,,,,,,,0.008424166589975357,0.4897146597504616,0.940928727388382,3412.6039527207613,test,3,,,,,,,3410.1243347600102,3410.633740387857,3410.6169987358153,3410.6169987358153,3411.07059000805,3411.5862311907113,3411.619952186942,3412.620776616037,None,0,,0.5,,,,,,,,,,,s025,001,2024-08-08_15h16.00.058,simplestop_skeleton,2022.2.2,59.8382769851145,
None,None,,,,,,,,,2,0,2,0,7,2,30,3,,,,,,,,,3412.604396607727,go,circleblack.png,left,0.5,,,,,,,,,,,,,,,,,,0.0012519508600234985,0.48946237564086914,,3415.1063964255154,test,3,,,,,,,3412.620776616037,3413.1365533918142,3413.1198269315064,3413.1198269315064,3413.62137299031,3414.1210828647017,3414.1210828647017,3415.125616107136,left,1,0.6871110014617443,0.5,,,,,,,,,,,s025,001,2024-08-08_15h16.00.058,simplestop_skeleton,2022.2.2,59.8382769851145,
None,None,,,,,,,,,2,0,2,0,7,3,31,3,,,,,,,,,3415.106825027615,go,circleblack.png,left,0.5,,,,,,,,,,,,,,,,,,0.0015361234545707703,0.48860351368784904,,3417.609257284552,test,3,,,,,,,3415.125616107136,3415.639303702861,3415.622550535947,3415.622550535947,3416.124057471752,3416.6238189786673,3416.6238189786673,3417.6259986311197,left,1,0.6129875965416431,0.5,,,,,,,,,,,s025,001,2024-08-08_15h16.00.058,simplestop_skeleton,2022.2.2,59.8382769851145,
$currentCorrectResponse,$currentGoStim,,,,,,,,,2,0,2,0,8,0,32,0,,,,,,,,,3417.6096904054284,go,circleblack.png,left,0.5,,,,,,,,,,,,,,,,,,0.00122760608792305,0.49016033485531807,,3420.112060762942,test,3,,,,,,,3417.6259986311197,3418.1256533563137,3418.1256533563137,3418.1256533563137,3418.627636142075,3419.1433097086847,3419.1267081797123,3420.1287793815136,left,1,0.4862198457121849,0.5,,,,,,,,,,,s025,001,2024-08-08_15h16.00.058,simplestop_skeleton,2022.2.2,59.8382769851145,
None,None,,,,,,,,,2,0,2,0,8,1,33,2,,,,,,,,,3420.112509779632,stop,circleblack.png,left,0.5,,,,,,,,,,,,,,,,,,0.0012936443090438843,0.4897066801786423,0.9920249842107296,3422.6150405183434,test,3,,,,,,,3420.1287793815136,3420.628045730293,3420.628045730293,3420.628045730293,3421.130435705185,3421.6461548395455,3421.6293691769242,3422.6317945681512,left,1,0.5102612972259521,0.45,,,,,,,,,,,s025,001,2024-08-08_15h16.00.058,simplestop_skeleton,2022.2.2,59.8382769851145,
None,None,,,,,,,,,2,0,2,0,8,2,34,1,,,,,,,,,3422.6154922023416,go,circleblack.png,left,0.45,,,,,,,,,,,,,,,,,,0.0012966357171535492,0.48952609300613403,,3425.1175008304417,test,3,,,,,,,3422.6317945681512,3423.1475405171514,3423.1308463066816,3423.1308463066816,3423.5832493416965,3424.0987725034356,3424.13221590966,3425.139595326036,left,1,0.738111175596714,0.45,,,,,,,,,,,s025,001,2024-08-08_15h16.00.058,simplestop_skeleton,2022.2.2,59.8382769851145,
None,None,,,,,,,,,2,0,2,0,8,3,35,1,,,,,,,,,3425.117949575186,go,squareblack.png,right,0.45,,,,,,,,,,,,,,,,,,0.007082685828208923,0.4911174550652504,,3427.6204162463546,test,3,,,,,,,3425.139595326036,3425.6516994275153,3425.6351492479444,3425.6351492479444,3426.0843111388385,3426.584899365902,3426.6349474415183,3427.6389023289084,right,1,0.7506632506847382,0.45,,,,,,,,,,,s025,001,2024-08-08_15h16.00.058,simplestop_skeleton,2022.2.2,59.8382769851145,
None,None,,,,,,,,,2,0,2,0,9,0,36,2,,,,,,,,,3427.620849005878,stop,circleblack.png,left,0.45,,,,,,,,,,,,,,,,,,0.001792754977941513,0.49089113995432854,0.9398604817688465,3430.123314168304,test,3,,,,,,,3427.6389023289084,3428.1381731554866,3428.1381731554866,3428.1381731554866,3428.587091885507,3429.0874219983816,3429.1374641619623,3430.140069101006,left,1,0.654422327876091,0.4,,,,,,,,,,,s025,001,2024-08-08_15h16.00.058,simplestop_skeleton,2022.2.2,59.8382769851145,
None,None,,,,,,,,,2,0,2,0,9,1,37,2,,,,,,,,,3430.12374157086,stop,circleblack.png,left,0.4,,,,,,,,,,,,,,,,,,0.0012701712548732758,0.48967835307121277,0.8900973238050938,3432.6266536973417,test,3,,,,,,,3430.140069101006,3430.639206249267,3430.639206249267,3430.639206249267,3431.0397523380816,3431.540078792721,3431.640302941203,3432.6462592072785,None,0,,0.45,,,,,,,,,,,s025,001,2024-08-08_15h16.00.058,simplestop_skeleton,2022.2.2,59.8382769851145,
None,None,,,,,,,,,2,0,2,0,9,2,38,1,,,,,,,,,3432.6270957812667,go,squareblack.png,right,0.45,,,,,,,,,,,,,,,,,,0.003931999206542969,0.48866138234734535,,3435.13049909845,test,3,,,,,,,3432.6462592072785,3433.1587740555406,3433.1420718096197,3433.1420718096197,3433.592622820288,3434.0929403677583,3434.14295200631,3435.151455156505,right,1,0.6724937371909618,0.45,,,,,,,,,,,s025,001,2024-08-08_15h16.00.058,simplestop_skeleton,2022.2.2,59.8382769851145,
None,None,,,,,,,,,2,0,2,0,9,3,39,3,,,,,,,,,3435.130958918482,go,circleblack.png,left,0.45,,,,,,,,,,,,,,,,,,0.002812463790178299,0.4872383251786232,,3437.634781163186,test,3,,,,,,,3435.151455156505,3435.661605026573,3435.644973259419,3435.644973259419,3436.0952004492283,3436.595634408295,3436.645752225071,3437.654665507376,left,1,0.6356979832053185,0.45,,,,,,,,,,,s025,001,2024-08-08_15h16.00.058,simplestop_skeleton,2022.2.2,59.8382769851145,
$currentCorrectResponse,$currentGoStim,,,,,,,,,2,0,2,0,10,0,40,0,,,,,,,,,3437.635289501399,go,squareblack.png,right,0.45,,,,,,,,,,,,,,,,,,0.0017400681972503662,0.48372841626405716,,3440.134423505515,test,3,,,,,,,3437.654665507376,3438.1642733626068,3438.1478264443576,3438.1478264443576,3438.5978508517146,3439.0983629226685,3439.1485375128686,3440.1526134237647,right,1,0.6207938268780708,0.45,,,,,,,,,,,s025,001,2024-08-08_15h16.00.058,simplestop_skeleton,2022.2.2,59.8382769851145,
$currentCorrectResponse,$currentGoStim,,,,,,,,,2,0,2,0,10,1,41,0,,,,,,,,,3440.1348704323173,go,circleblack.png,left,0.45,,,,,,,,,,,,,,,,,,0.0019414424896240234,0.489200372248888,,3442.63718932122,test,3,,,,,,,3440.1526134237647,3440.667057465762,3440.6503731422126,3440.6503731422126,3441.100609920919,3441.601175829768,3441.6512209773064,3442.655833609402,left,1,0.6891233846545219,0.45,,,,,,,,,,,s025,001,2024-08-08_15h16.00.058,simplestop_skeleton,2022.2.2,59.8382769851145,
None,None,,,,,,,,,2,0,2,0,10,2,42,3,,,,,,,,,3442.6376322470605,stop,squareblack.png,right,0.45,,,,,,,,,,,,,,,,,,0.0017051585018634796,0.4890948161482811,0.9393418096005917,3445.1403195634484,test,3,,,,,,,3442.655833609402,3443.169591076672,3443.153280492872,3443.153280492872,3443.6034327857196,3444.1038834787905,3444.156529586762,3445.1581999622285,right,1,0.6144390664994717,0.4,,,,,,,,,,,s025,001,2024-08-08_15h16.00.058,simplestop_skeleton,2022.2.2,59.8382769851145,
None,None,,,,,,,,,2,0,2,0,10,3,43,2,,,,,,,,,3445.1407783031464,stop,squareblack.png,right,0.4,,,,,,,,,,,,,,,,,,0.001253124326467514,0.4885258823633194,0.8889283314347267,3447.6428089104593,test,3,,,,,,,3445.1581999622285,3445.6722898855805,3445.655687019229,3445.655687019229,3446.056119158864,3446.5567024946213,3446.656953986734,3447.6610725037754,None,0,,0.45,,,,,,,,,,,s025,001,2024-08-08_15h16.00.058,simplestop_skeleton,2022.2.2,59.8382769851145,
$currentCorrectResponse,$currentGoStim,,,,,,,,,2,0,2,0,11,0,44,0,,,,,,,,,3447.643266733736,go,circleblack.png,left,0.45,,,,,,,,,,,,,,,,,,0.0019952096045017242,0.4891100712120533,,3450.145603068173,test,3,,,,,,,3447.6610725037754,3448.175110414624,3448.158474650234,3448.158474650234,3448.6089480146766,3449.109555244446,3449.160231437534,3450.1633226387203,left,1,0.6241006553173065,0.45,,,,,,,,,,,s025,001,2024-08-08_15h16.00.058,simplestop_skeleton,2022.2.2,59.8382769851145,
None,None,,,,,,,,,2,0,2,0,11,1,45,1,,,,,,,,,3450.1460437625647,go,squareblack.png,right,0.45,,,,,,,,,,,,,,,,,,0.0016626715660095215,0.4888918213546276,,3452.6478866413236,test,3,,,,,,,3450.1633226387203,3450.6778815984726,3450.661266312003,3450.661266312003,3451.111685678363,3451.6126648783684,3451.662479739636,3452.6646904945374,right,1,0.7175845801830292,0.45,,,,,,,,,,,s025,001,2024-08-08_15h16.00.058,simplestop_skeleton,2022.2.2,59.8382769851145,
None,None,,,,,,,,,2,0,2,0,11,2,46,2,,,,,,,,,3452.6483175233006,go,squareblack.png,right,0.45,,,,,,,,,,,,,,,,,,0.0011631250381469727,0.48968251422047615,,3455.1507194936275,test,3,,,,,,,3452.6646904945374,3453.164044406265,3453.164044406265,3453.164044406265,3453.6144424788654,3454.115129940212,3454.165197968483,3455.1681601777673,right,1,0.6647774167358875,0.45,,,,,,,,,,,s025,001,2024-08-08_15h16.00.058,simplestop_skeleton,2022.2.2,59.8382769851145,
$currentCorrectResponse,$currentGoStim,,,,,,,,,2,0,2,0,11,3,47,0,,,,,,,,,3455.1511511057615,go,circleblack.png,left,0.45,,,,,,,,,,,,,,,,,,0.0018743202090263367,0.48970793560147285,,3457.6534369662404,test,3,,,,,,,3455.1681601777673,3455.6834343597293,3455.6668114438653,3455.6668114438653,3456.117445897311,3456.617943137884,3456.667968019843,3457.669035077095,left,1,0.6584341451525688,0.45,,,,,,,,,,,s025,001,2024-08-08_15h16.00.058,simplestop_skeleton,2022.2.2,59.8382769851145,
