corrGoResp,shape,practiceBlocks.thisRepN,practiceBlocks.thisTrialN,practiceBlocks.thisN,practiceBlocks.thisIndex,practiceTrials.thisRepN,practiceTrials.thisTrialN,practiceTrials.thisN,practiceTrials.thisIndex,stopBlocks.thisRepN,stopBlocks.thisTrialN,stopBlocks.thisN,stopBlocks.thisIndex,testTrials.thisRepN,testTrials.thisTrialN,testTrials.thisN,testTrials.thisIndex,stopPracTrialList,Test Block: 0,welcome.started,start_exp.started,start_exp.keys,start_exp.rt,instrStopText.started,start_prac.started,StartTrialTimeStamp,trialType,goStim,correctResponse,ssd,fixation.started,rules.started,goStim.started,goResp.started,fixation.stopped,stopSignal.started,stopSignal.stopped,goStim.stopped,goResp.stopped,rules.stopped,goResp.keys,goResp.corr,goResp.rt,text.started,rules_2.started,text.stopped,rules_2.stopped,fixationOnset,goStimOnset,stopSignalOnset,EndTrialTimeStamp,text_5.started,key_resp_3.started,key_resp_3.keys,key_resp_3.rt,key_resp.started,testText.started,test_fixation.started,test_fixation.stopped,goStim_test.started,goResp_test.started,stopSignal_test.started,stopSignal_test.stopped,goStim_test.stopped,goResp_test.stopped,goResp_test.keys,goResp_test.corr,goResp_test.rt,EndingSSD,Test Block: 1,text_6.started,key_resp_4.started,key_resp_4.keys,key_resp_4.rt,Test Block: 2,Test Block: 3,ending_text.started,end_resp.started,end_resp.keys,end_resp.rt,participant,session,date,expName,psychopyVersion,frameRate,
,,,,,,,,,,,,,,,,,,"[{'fileName': 'squareblack.png', 'correct_response': 'm', 'condition': 'stop'}, {'fileName': 'circleblack.png', 'correct_response': 'z', 'condition': 'go'}, {'fileName': 'circleblack.png', 'correct_response': 'z', 'condition': 'go'}, {'fileName': 'squareblack.png', 'correct_response': 'm', 'condition': 'go'}, {'fileName': 'circleblack.png', 'correct_response': 'z', 'condition': 'stop'}, {'fileName': 'squareblack.png', 'correct_response': 'm', 'condition': 'go'}, {'fileName': 'squareblack.png', 'correct_response': 'm', 'condition': 'go'}, {'fileName': 'circleblack.png', 'correct_response': 'z', 'condition': 'go'}, {'fileName': 'circleblack.png', 'correct_response': 'z', 'condition': 'go'}, {'fileName': 'squareblack.png', 'correct_response': 'm', 'condition': 'go'}, {'fileName': 'squareblack.png', 'correct_response': 'm', 'condition': 'stop'}, {'fileName': 'circleblack.png', 'correct_response': 'z', 'condition': 'stop'}, {'fileName': 'circleblack.png', 'correct_response': 'z', 'condition': 'go'}, {'fileName': 'circleblack.png', 'correct_response': 'z', 'condition': 'go'}, {'fileName': 'squareblack.png', 'correct_response': 'm', 'condition': 'go'}, {'fileName': 'circleblack.png', 'correct_response': 'z', 'condition': 'go'}, {'fileName': 'squareblack.png', 'correct_response': 'm', 'condition': 'go'}, {'fileName': 'circleblack.png', 'correct_response': 'z', 'condition': 'stop'}, {'fileName': 'circleblack.png', 'correct_response': 'z', 'condition': 'go'}, {'fileName': 'squareblack.png', 'correct_response': 'm', 'condition': 'go'}, {'fileName': 'squareblack.png', 'correct_response': 'm', 'condition': 'go'}, {'fileName': 'circleblack.png', 'correct_response': 'z', 'condition': 'stop'}, {'fileName': 'squareblack.png', 'correct_response': 'm', 'condition': 'stop'}, {'fileName': 'squareblack.png', 'correct_response': 'm', 'condition': 'stop'}]","[{'fileName': 'circleblack.png', 'correct_response': 'z', 'condition': 'go'}, {'fileName': 'squareblack.png', 'correct_response': 'm', 'condition': 'stop'}, {'fileName': 'squareblack.png', 'correct_response': 'm', 'condition': 'go'}, {'fileName': 'circleblack.png', 'correct_response': 'z', 'condition': 'go'}, {'fileName': 'circleblack.png', 'correct_response': 'z', 'condition': 'go'}, {'fileName': 'circleblack.png', 'correct_response': 'z', 'condition': 'stop'}, {'fileName': 'squareblack.png', 'correct_response': 'm', 'condition': 'go'}, {'fileName': 'circleblack.png', 'correct_response': 'z', 'condition': 'go'}, {'fileName': 'circleblack.png', 'correct_response': 'z', 'condition': 'stop'}, {'fileName': 'squareblack.png', 'correct_response': 'm', 'condition': 'stop'}, {'fileName': 'squareblack.png', 'correct_response': 'm', 'condition': 'go'}, {'fileName': 'squareblack.png', 'correct_response': 'm', 'condition': 'go'}, {'fileName': 'circleblack.png', 'correct_response': 'z', 'condition': 'go'}, {'fileName': 'squareblack.png', 'correct_response': 'm', 'condition': 'go'}, {'fileName': 'squareblack.png', 'correct_response': 'm', 'condition': 'stop'}, {'fileName': 'squareblack.png', 'correct_response': 'm', 'condition': 'stop'}, {'fileName': 'circleblack.png', 'correct_response': 'z', 'condition': 'stop'}, {'fileName': 'circleblack.png', 'correct_response': 'z', 'condition': 'stop'}, {'fileName': 'squareblack.png', 'correct_response': 'm', 'condition': 'go'}, {'fileName': 'circleblack.png', 'correct_response': 'z', 'condition': 'go'}, {'fileName': 'squareblack.png', 'correct_response': 'm', 'condition': 'go'}, {'fileName': 'squareblack.png', 'correct_response': 'm', 'condition': 'go'}, {'fileName': 'circleblack.png', 'correct_response': 'z', 'condition': 'go'}, {'fileName': 'circleblack.png', 'correct_response': 'z', 'condition': 'go'}, {'fileName': 'squareblack.png', 'correct_response': 'm', 'condition': 'go'}, {'fileName': 'circleblack.png', 'correct_response': 'z', 'condition': 'go'}, {'fileName': 'circleblack.png', 'correct_response': 'z', 'condition': 'stop'}, {'fileName': 'squareblack.png', 'correct_response': 'm', 'condition': 'stop'}, {'fileName': 'circleblack.png', 'correct_response': 'z', 'condition': 'go'}, {'fileName': 'squareblack.png', 'correct_response': 'm', 'condition': 'go'}, {'fileName': 'squareblack.png', 'correct_response': 'm', 'condition': 'go'}, {'fileName': 'circleblack.png', 'correct_response': 'z', 'condition': 'go'}, {'fileName': 'squareblack.png', 'correct_response': 'm', 'condition': 'go'}, {'fileName': 'circleblack.png', 'correct_response': 'z', 'condition': 'go'}, {'fileName': 'squareblack.png', 'correct_response': 'm', 'condition': 'stop'}, {'fileName': 'circleblack.png', 'correct_response': 'z', 'condition': 'stop'}, {'fileName': 'circleblack.png', 'correct_response': 'z', 'condition': 'go'}, {'fileName': 'circleblack.png', 'correct_response': 'z', 'condition': 'stop'}, {'fileName': 'squareblack.png', 'correct_response': 'm', 'condition': 'go'}, {'fileName': 'circleblack.png', 'correct_response': 'z', 'condition': 'go'}, {'fileName': 'squareblack.png', 'correct_response': 'm', 'condition': 'go'}, {'fileName': 'circleblack.png', 'correct_response': 'z', 'condition': 'go'}, {'fileName': 'squareblack.png', 'correct_response': 'm', 'condition': 'stop'}, {'fileName': 'circleblack.png', 'correct_response': 'z', 'condition': 'go'}, {'fileName': 'squareblack.png', 'correct_response': 'm', 'condition': 'go'}, {'fileName': 'squareblack.png', 'correct_response': 'm', 'condition': 'stop'}, {'fileName': 'squareblack.png', 'correct_response': 'm', 'condition': 'go'}, {'fileName': 'circleblack.png', 'correct_response': 'z', 'condition': 'stop'}]",9776.384067300707,9776.384067300707,return,2.2256605736911297,,,,,,,,,,,,,,,,,,,,,,,,,,,,,,,,,,,,,,,,,,,,,,,,,,,,,,,,,,s002,001,2024-04-10_15h44.48.023,simplestop_skeleton,2022.2.2,59.9277046758086,
$currentCorrectResponse,$currentGoStim,0,0,0,0,0,0,0,0,,,,,,,,,,,,,,,9778.65573465079,9778.65573465079,9858.518536910415,stop,squareblack.png,m,0.25,9858.541468631476,9858.541468631476,9859.031248573214,9859.031248573214,9859.04776302725,9859.281362757087,9859.782222699374,9860.032454580069,9861.033801816404,9861.05157533288,m,0,1.3475949466228485,9861.05157533288,9861.05157533288,9861.560665026307,9861.560665026307,0.0030334964394569397,0.485895823687315,0.7363214790821075,9861.534986216575,,,,,,,,,,,,,,,,,,,,,,,,,,,,,,s002,001,2024-04-10_15h44.48.023,simplestop_skeleton,2022.2.2,59.9277046758086,
$currentCorrectResponse,$currentGoStim,0,0,0,0,0,1,1,0,,,,,,,,,,,,,,,,,9861.535325165838,go,circleblack.png,z,0.2,9861.560665026307,9861.560665026307,9862.051454029977,9862.051454029977,9862.067972633988,9862.251346182078,9862.751802161336,9863.052165005356,9864.052951715887,9864.069067556411,z,0,1.3017317093908787,9864.069067556411,9864.069067556411,,,0.008147086948156357,0.4897684045135975,0.6901315525174141,9864.55468095094,,,,,,,,,,,,,,,,,,,,,,,,,,,,,,s002,001,2024-04-10_15h44.48.023,simplestop_skeleton,2022.2.2,59.9277046758086,
None,None,0,0,0,0,0,2,2,3,,,,,,,,,,,,,,,,,9864.554993208498,go,circleblack.png,z,0.2,9864.574166011065,9864.574166011065,9865.071273893118,9865.071273893118,9865.087860468775,9865.271365832537,9865.770315323025,9866.071723461151,9867.073350585997,9867.073350585997,z,0,0.5517528243362904,9867.073350585997,9867.073350585997,9867.577892336994,9867.577892336994,0.001312755048274994,0.49021028727293015,0.6903555579483509,9867.558127701283,,,,,,,,,,,,,,,,,,,,,,,,,,,,,,s002,001,2024-04-10_15h44.48.023,simplestop_skeleton,2022.2.2,59.9277046758086,
$currentCorrectResponse,$currentGoStim,0,0,0,0,0,3,3,0,,,,,,,,,,,,,,,,,9867.558435406536,go,squareblack.png,m,0.2,9867.577892336994,9867.577892336994,9868.074529413134,9868.074529413134,9868.09099360928,9868.274659998715,9868.773910354823,9869.074726335704,9870.076494734734,9870.09326485172,m,0,0.4013976790010929,9870.09326485172,9870.09326485172,9870.597940154374,9870.597940154374,0.0017862506210803986,0.49007925763726234,0.6901265867054462,9870.577918287367,,,,,,,,,,,,,,,,,,,,,,,,,,,,,,s002,001,2024-04-10_15h44.48.023,simplestop_skeleton,2022.2.2,59.9277046758086,
None,None,0,0,0,0,1,0,4,1,,,,,,,,,,,,,,,,,9870.578230079263,stop,circleblack.png,z,0.2,9870.597940154374,9870.597940154374,9871.094498313963,9871.094498313963,9871.11124489829,9871.294514100999,9871.79501529783,9872.09556940198,9873.096921369433,9873.113466653973,z,0,0.5233173631131649,9873.113466653973,9873.113466653973,9873.618076685816,9873.618076685816,0.0019001774489879608,0.4900467023253441,0.6904440447688103,9873.598215084523,,,,,,,,,,,,,,,,,,,,,,,,,,,,,,s002,001,2024-04-10_15h44.48.023,simplestop_skeleton,2022.2.2,59.9277046758086,
None,None,0,0,0,0,1,1,5,3,,,,,,,,,,,,,,,,,9873.59863166511,go,squareblack.png,m,0.15,9873.618076685816,9873.618076685816,9874.11441571638,9874.11441571638,9874.131080698222,9874.264623887837,9874.765608083457,9875.115006055683,9876.116748355329,9876.133579440415,m,0,0.5739805325865746,9876.133579440415,9876.133579440415,9876.637488726526,9876.637488726526,0.0017149001359939575,0.49017926678061485,0.6401759386062622,9876.618120372295,,,,,,,,,,,,,,,,,,,,,,,,,,,,,,s002,001,2024-04-10_15h44.48.023,simplestop_skeleton,2022.2.2,59.9277046758086,
None,None,0,0,0,0,1,2,6,3,,,,,,,,,,,,,,,,,9876.618431776762,go,squareblack.png,m,0.15,9876.637488726526,9876.637488726526,9877.13469330594,9877.13469330594,9877.151246473193,9877.285007003695,9877.785243228078,9878.134032711387,9879.136554140598,9879.153293270618,m,0,0.6054847054183483,9879.153293270618,9879.153293270618,9879.658052835613,9879.658052835613,0.0011822395026683807,0.4902821369469166,0.640246570110321,9879.637994851917,,,,,,,,,,,,,,,,,,,,,,,,,,,,,,s002,001,2024-04-10_15h44.48.023,simplestop_skeleton,2022.2.2,59.9277046758086,
None,None,0,0,0,0,1,3,7,3,,,,,,,,,,,,,,,,,9879.638299074024,go,circleblack.png,z,0.15,9879.658052835613,9879.658052835613,9880.15436077118,9880.15436077118,9880.170896477997,9880.304567780346,9880.803789120167,9881.154876299202,9882.156408287585,9882.173377204686,z,0,0.34604890272021294,9882.173377204686,9882.173377204686,,,0.001995190978050232,0.4899776168167591,0.6405546143651009,9882.657977875322,,,,,,,,,,,,,,,,,,,,,,,,,,,,,,s002,001,2024-04-10_15h44.48.023,simplestop_skeleton,2022.2.2,59.9277046758086,
None,None,0,0,0,0,2,0,8,3,,,,,,,,,,,,,,,,,9882.658286403865,go,circleblack.png,z,0.15,9882.6775210239,9882.6775210239,9883.174441833049,9883.174441833049,9883.190995827317,9883.324496820569,9883.824992325157,9884.175025749952,9885.176729038358,9885.193184114993,z,0,0.40633494406938553,9885.193184114993,9885.193184114993,9885.697917778045,9885.697917778045,0.0012442804872989655,0.49038005620241165,0.6405338793992996,9885.67803934589,,,,,,,,,,,,,,,,,,,,,,,,,,,,,,s002,001,2024-04-10_15h44.48.023,simplestop_skeleton,2022.2.2,59.9277046758086,
None,None,0,0,0,0,2,1,9,2,,,,,,,,,,,,,,,,,9885.678354989737,go,squareblack.png,m,0.15,9885.697917778045,9885.697917778045,9886.194378234446,9886.194378234446,9886.210998095572,9886.344479054213,9886.845014795661,9887.19475837797,9888.196517251432,9888.213222343475,m,0,0.48175017163157463,9888.213222343475,9888.213222343475,,,0.0017476603388786316,0.489986814558506,0.6403261236846447,9888.698106128722,,,,,,,,,,,,,,,,,,,,,,,,,,,,,,s002,001,2024-04-10_15h44.48.023,simplestop_skeleton,2022.2.2,59.9277046758086,
$currentCorrectResponse,$currentGoStim,0,0,0,0,2,2,10,0,,,,,,,,,,,,,,,,,9888.698412835598,stop,squareblack.png,m,0.15,9888.717778172344,9888.717778172344,9889.21423855424,9889.21423855424,9889.230977836996,9889.364422649145,9889.864943671972,9890.215365175158,9891.216623470187,9891.233205985278,None,0,,9891.233205985278,9891.233205985278,9891.738108273596,9891.738108273596,0.001195959746837616,0.4896919019520283,0.63991804048419,9891.718109022826,,,,,,,,,,,,,,,,,,,,,,,,,,,,,,s002,001,2024-04-10_15h44.48.023,simplestop_skeleton,2022.2.2,59.9277046758086,
None,None,0,0,0,0,2,3,11,1,,,,,,,,,,,,,,,,,9891.718416906893,stop,circleblack.png,z,0.2,9891.738108273596,9891.738108273596,9892.234256591648,9892.234256591648,9892.250979300588,9892.434452198446,9892.935224939138,9893.23427042365,9894.236583765596,9894.253283880651,z,0,0.5480098500847816,9894.253283880651,9894.253283880651,9894.757915474474,9894.757915474474,0.001828160136938095,0.4899652414023876,0.690094456076622,9894.738031495363,,,,,,,,,,,,,,,,,,,,,,,,,,,,,,s002,001,2024-04-10_15h44.48.023,simplestop_skeleton,2022.2.2,59.9277046758086,
None,None,0,0,0,0,3,0,12,2,,,,,,,,,,,,,,,,,9894.738352958113,go,circleblack.png,z,0.15,9894.757915474474,9894.757915474474,9895.254297990352,9895.254297990352,9895.271311696619,9895.404601469636,9895.905502937734,9896.254219576716,9897.256792664528,9897.273321688175,z,0,0.5558026991784573,9897.273321688175,9897.273321688175,9897.777497753501,9897.777497753501,0.0013967640697956085,0.48964329808950424,0.6397935748100281,9897.757916241884,,,,,,,,,,,,,,,,,,,,,,,,,,,,,,s002,001,2024-04-10_15h44.48.023,simplestop_skeleton,2022.2.2,59.9277046758086,
None,None,0,0,0,0,3,1,13,2,,,,,,,,,,,,,,,,,9897.758244991302,go,circleblack.png,z,0.15,9897.777497753501,9897.777497753501,9898.274307094514,9898.274307094514,9898.291035536677,9898.424379944801,9898.925110865384,9899.274105343968,9900.276459567249,9900.293270837516,z,0,0.5398069061338902,9900.293270837516,9900.293270837516,9900.79785078764,9900.79785078764,0.0013109147548675537,0.4901290237903595,0.6402099393308163,9900.77786821872,,,,,,,,,,,,,,,,,,,,,,,,,,,,,,s002,001,2024-04-10_15h44.48.023,simplestop_skeleton,2022.2.2,59.9277046758086,
None,None,0,0,0,0,3,2,14,1,,,,,,,,,,,,,,,,,9900.778175763786,go,squareblack.png,m,0.15,9900.79785078764,9900.79785078764,9901.294335465878,9901.294335465878,9901.311087831855,9901.444436319172,9901.945219714195,9902.294636048377,9903.296516198665,9903.313576556742,m,0,0.4089612141251564,9903.313576556742,9903.313576556742,9903.817891370505,9903.817891370505,0.0017750822007656097,0.4902206249535084,0.6404773518443108,9903.798078205436,,,,,,,,,,,,,,,,,,,,,,,,,,,,,,s002,001,2024-04-10_15h44.48.023,simplestop_skeleton,2022.2.2,59.9277046758086,
None,None,0,0,0,0,3,3,15,1,,,,,,,,,,,,,,,,,9903.798450253904,go,circleblack.png,z,0.15,9903.817891370505,9903.817891370505,9904.31479024142,9904.31479024142,9904.331165228039,9904.464571386576,9904.965359091759,9905.314153827727,9906.317081097513,9906.333399020135,z,0,0.5979289412498474,9906.333399020135,9906.333399020135,9906.838101606816,9906.838101606816,0.0017896443605422974,0.4902869276702404,0.6402484066784382,9906.818103350699,,,,,,,,,,,,,,,,,,,,,,,,,,,,,,s002,001,2024-04-10_15h44.48.023,simplestop_skeleton,2022.2.2,59.9277046758086,
None,None,0,0,0,0,4,0,16,2,,,,,,,,,,,,,,,,,9906.818489603698,go,squareblack.png,m,0.15,9906.838101606816,9906.838101606816,9907.33460244909,9907.33460244909,9907.351308260113,9907.484654445201,9907.985280141234,9908.33392772451,9909.336411457509,9909.353082567453,m,0,0.5979213155806065,9909.353082567453,9909.353082567453,9909.857868302613,9909.857868302613,0.0017747655510902405,0.4902351647615433,0.6403428688645363,9909.837981827557,,,,,,,,,,,,,,,,,,,,,,,,,,,,,,s002,001,2024-04-10_15h44.48.023,simplestop_skeleton,2022.2.2,59.9277046758086,
None,None,0,0,0,0,4,1,17,2,,,,,,,,,,,,,,,,,9909.838296122849,stop,circleblack.png,z,0.15,9909.857868302613,9909.857868302613,9910.354336857796,9910.354336857796,9910.37110229209,9910.504381779581,9911.004930578172,9911.355342868716,9912.356514692307,9912.373227067292,None,1,,9912.373227067292,9912.373227067292,,,0.001920219510793686,0.4900437258183956,0.6402798928320408,9912.858196109533,,,,,,,,,,,,,,,,,,,,,,,,,,,,,,s002,001,2024-04-10_15h44.48.023,simplestop_skeleton,2022.2.2,59.9277046758086,
None,None,0,0,0,0,4,2,18,2,,,,,,,,,,,,,,,,,9912.858516093343,go,circleblack.png,z,0.2,9912.877718333155,9912.877718333155,9913.374422285706,9913.374422285706,9913.391142699867,9913.574689496309,9914.075243707746,9914.374177832156,9915.376686763018,9915.393271259964,z,0,0.5566942542791367,9915.393271259964,9915.393271259964,9915.897845286876,9915.897845286876,0.0012402236461639404,0.49019111320376396,0.6904513165354729,9915.878008246422,,,,,,,,,,,,,,,,,,,,,,,,,,,,,,s002,001,2024-04-10_15h44.48.023,simplestop_skeleton,2022.2.2,59.9277046758086,
None,None,0,0,0,0,4,3,19,3,,,,,,,,,,,,,,,,,9915.878320917487,go,squareblack.png,m,0.2,9915.897845286876,9915.897845286876,9916.39428326115,9916.39428326115,9916.411164470017,9916.594976939261,9917.095215585083,9917.39397379756,9918.396827351302,9918.396827351302,m,0,0.5790024884045124,9918.396827351302,9918.396827351302,9918.900758128613,9918.900758128613,0.0018130503594875336,0.4900612197816372,0.6903527900576591,9918.881559927016,,,,,,,,,,,,,,,,,,,,,,,,,,,,,,s002,001,2024-04-10_15h44.48.023,simplestop_skeleton,2022.2.2,59.9277046758086,
None,None,0,0,0,0,5,0,20,1,,,,,,,,,,,,,,,,,9918.881886672229,go,squareblack.png,m,0.2,9918.900758128613,9918.900758128613,9919.397851426154,9919.397851426154,9919.414408773184,9919.597908448428,9920.098561123013,9920.398586809635,9921.400000426918,9921.400000426918,m,0,0.4731113091111183,9921.400000426918,9921.400000426918,,,0.0011827796697616577,0.49025462940335274,0.6901491060853004,9921.884855855256,,,,,,,,,,,,,,,,,,,,,,,,,,,,,,s002,001,2024-04-10_15h44.48.023,simplestop_skeleton,2022.2.2,59.9277046758086,
None,None,0,0,0,0,5,1,21,1,,,,,,,,,,,,,,,,,9921.885174378753,stop,circleblack.png,z,0.2,9921.904898032546,9921.904898032546,9922.400944694877,9922.400944694877,9922.417863354087,9922.60138739273,9923.100521881133,9923.401483308524,9924.403158672154,9924.419975358993,z,0,0.42263292148709297,9924.419975358993,9924.419975358993,9924.924712017179,9924.924712017179,0.001875557005405426,0.4901456721127033,0.6904107704758644,9924.90475654602,,,,,,,,,,,,,,,,,,,,,,,,,,,,,,s002,001,2024-04-10_15h44.48.023,simplestop_skeleton,2022.2.2,59.9277046758086,
$currentCorrectResponse,$currentGoStim,0,0,0,0,5,2,22,0,,,,,,,,,,,,,,,,,9924.90506476909,stop,squareblack.png,m,0.15,9924.924712017179,9924.924712017179,9925.420989710838,9925.420989710838,9925.437748976052,9925.571082763374,9926.07151037082,9926.422102980316,9927.423158373684,9927.43987319991,None,0,,9927.43987319991,9927.43987319991,9927.943900749087,9927.943900749087,0.0017501339316368103,0.48991866409778595,0.6404279097914696,9927.924679201096,,,,,,,,,,,,,,,,,,,,,,,,,,,,,,s002,001,2024-04-10_15h44.48.023,simplestop_skeleton,2022.2.2,59.9277046758086,
$currentCorrectResponse,$currentGoStim,0,0,0,0,5,3,23,0,,,,,,,,,,,,,,,,,9927.924990158528,stop,squareblack.png,m,0.2,9927.943900749087,9927.943900749087,9928.441314656287,9928.441314656287,9928.457838084549,9928.641406510025,9929.141749106348,9929.442366015166,9930.443549260497,9930.443549260497,None,0,,9930.443549260497,9930.443549260497,,,0.001181323081254959,0.49029988422989845,0.6905080415308475,9930.927981834859,,,,,,,,,,,,,,,,,,,,,,,,,,,,,,s002,001,2024-04-10_15h44.48.023,simplestop_skeleton,2022.2.2,59.9277046758086,
,,0,0,0,0,,,,,,,,,,,,,"[{'fileName': 'circleblack.png', 'correct_response': 'z', 'condition': 'stop'}, {'fileName': 'circleblack.png', 'correct_response': 'z', 'condition': 'go'}, {'fileName': 'circleblack.png', 'correct_response': 'z', 'condition': 'go'}, {'fileName': 'squareblack.png', 'correct_response': 'm', 'condition': 'go'}, {'fileName': 'squareblack.png', 'correct_response': 'm', 'condition': 'stop'}, {'fileName': 'circleblack.png', 'correct_response': 'z', 'condition': 'go'}, {'fileName': 'squareblack.png', 'correct_response': 'm', 'condition': 'stop'}, {'fileName': 'circleblack.png', 'correct_response': 'z', 'condition': 'stop'}, {'fileName': 'circleblack.png', 'correct_response': 'z', 'condition': 'go'}, {'fileName': 'squareblack.png', 'correct_response': 'm', 'condition': 'go'}, {'fileName': 'squareblack.png', 'correct_response': 'm', 'condition': 'go'}, {'fileName': 'squareblack.png', 'correct_response': 'm', 'condition': 'go'}, {'fileName': 'squareblack.png', 'correct_response': 'm', 'condition': 'go'}, {'fileName': 'circleblack.png', 'correct_response': 'z', 'condition': 'stop'}, {'fileName': 'circleblack.png', 'correct_response': 'z', 'condition': 'go'}, {'fileName': 'circleblack.png', 'correct_response': 'z', 'condition': 'stop'}, {'fileName': 'squareblack.png', 'correct_response': 'm', 'condition': 'stop'}, {'fileName': 'circleblack.png', 'correct_response': 'z', 'condition': 'go'}, {'fileName': 'circleblack.png', 'correct_response': 'z', 'condition': 'go'}, {'fileName': 'squareblack.png', 'correct_response': 'm', 'condition': 'go'}, {'fileName': 'squareblack.png', 'correct_response': 'm', 'condition': 'stop'}, {'fileName': 'circleblack.png', 'correct_response': 'z', 'condition': 'go'}, {'fileName': 'squareblack.png', 'correct_response': 'm', 'condition': 'go'}, {'fileName': 'squareblack.png', 'correct_response': 'm', 'condition': 'go'}]",,,,,,,,,,,,,,,,,,,,,,,,,,,,,,,,,,9930.94614027068,9930.94614027068,return,2.355164658278227,,,,,,,,,,,,,,,,,,,,,,,,,,s002,001,2024-04-10_15h44.48.023,simplestop_skeleton,2022.2.2,59.9277046758086,
None,None,,,,,,,,,0,0,0,0,0,0,0,1,,,,,,,,,9935.42403183505,go,circleblack.png,z,0.25,,,,,,,,,,,,,,,,,,0.002358473837375641,0.49871156364679337,0.7488143593072891,9937.936122044921,,,,,9933.330061532557,9933.330061532557,9935.444107916206,9935.94956831634,9935.94956831634,9935.94956831634,9936.199794307351,9936.700126975775,9936.95041788742,9937.955307990313,z,0,0.5226085148751736,0.25,,,,,,,,,,,,s002,001,2024-04-10_15h44.48.023,simplestop_skeleton,2022.2.2,59.9277046758086,
None,None,,,,,,,,,0,0,0,0,0,1,1,2,,,,,,,,,9937.936449505389,stop,squareblack.png,m,0.25,,,,,,,,,,,,,,,,,,0.0016791298985481262,0.4896496795117855,0.7399540990591049,9940.439059086144,,,,,,,9937.955307990313,9938.469207122922,9938.452008847147,9938.452008847147,9938.702398184687,9939.202861495316,9939.451630797237,9940.457879722118,m,0,0.5859846137464046,0.2,,,,,,,,,,,,s002,001,2024-04-10_15h44.48.023,simplestop_skeleton,2022.2.2,59.9277046758086,
None,None,,,,,,,,,0,0,0,0,0,2,2,2,,,,,,,,,9940.439369108528,go,squareblack.png,m,0.2,,,,,,,,,,,,,,,,,,0.001388266682624817,0.48946303501725197,0.6896528080105782,9942.941394716501,,,,,,,9940.457879722118,9940.971450846642,9940.955125451088,9940.955125451088,9941.155120629817,9941.655515935272,9941.955382928252,9942.960931129754,m,0,0.4510134272277355,0.2,,,,,,,,,,,,s002,001,2024-04-10_15h44.48.023,simplestop_skeleton,2022.2.2,59.9277046758086,
$currentCorrectResponse,$currentGoStim,,,,,,,,,0,0,0,0,0,3,3,0,,,,,,,,,9942.941728159785,go,circleblack.png,z,0.2,,,,,,,,,,,,,,,,,,0.001996852457523346,0.4898549094796181,0.6899610795080662,9945.444364711642,,,,,,,9942.960931129754,9943.47407822311,9943.457452774048,9943.457452774048,9943.657531719655,9944.156832952052,9944.45784604922,9945.463215917349,z,0,0.370995856821537,0.2,,,,,,,,,,,,s002,001,2024-04-10_15h44.48.023,simplestop_skeleton,2022.2.2,59.9277046758086,
None,None,,,,,,,,,0,0,0,0,1,0,4,3,,,,,,,,,9945.444675583392,go,circleblack.png,z,0.2,,,,,,,,,,,,,,,,,,0.0013886764645576477,0.48965882882475853,0.6900196000933647,9947.94691002369,,,,,,,9945.463215917349,9945.977014049888,9945.960410118103,9945.960410118103,9946.160367045552,9946.661245305091,9946.961097992957,9947.965811427683,z,0,0.49445759505033493,0.2,,,,,,,,,,,,s002,001,2024-04-10_15h44.48.023,simplestop_skeleton,2022.2.2,59.9277046758086,
None,None,,,,,,,,,0,0,0,0,1,1,5,3,,,,,,,,,9947.947248198092,stop,circleblack.png,z,0.2,,,,,,,,,,,,,,,,,,0.001365073025226593,0.4898044392466545,0.6900468617677689,9950.44978215918,,,,,,,9947.965811427683,9948.479591920972,9948.462983682752,9948.462983682752,9948.663507044315,9949.163907311857,9949.463913466781,9950.468942321837,None,1,,0.25,,,,,,,,,,,,s002,001,2024-04-10_15h44.48.023,simplestop_skeleton,2022.2.2,59.9277046758086,
None,None,,,,,,,,,0,0,0,0,1,2,6,2,,,,,,,,,9950.450094632804,go,squareblack.png,m,0.25,,,,,,,,,,,,,,,,,,0.0017532631754875183,0.4898395463824272,0.7399611063301563,9952.952875953168,,,,,,,9950.468942321837,9950.982403527945,9950.965853832662,9950.965853832662,9951.215994909406,9951.715386282653,9951.96626168117,9952.972331397235,m,0,0.4293525032699108,0.25,,,,,,,,,,,,s002,001,2024-04-10_15h44.48.023,simplestop_skeleton,2022.2.2,59.9277046758086,
$currentCorrectResponse,$currentGoStim,,,,,,,,,0,0,0,0,1,3,7,0,,,,,,,,,9952.953194040805,go,circleblack.png,z,0.25,,,,,,,,,,,,,,,,,,0.0019205361604690552,0.4895652085542679,0.7398884445428848,9955.455282531679,,,,,,,9952.972331397235,9953.485437784344,9953.468849800527,9953.468849800527,9953.719021104276,9954.219471994787,9954.470686238259,9955.474311336875,z,0,0.48480165377259254,0.25,,,,,,,,,,,,s002,001,2024-04-10_15h44.48.023,simplestop_skeleton,2022.2.2,59.9277046758086,
None,None,,,,,,,,,0,0,0,0,2,0,8,2,,,,,,,,,9955.455588705838,stop,circleblack.png,z,0.25,,,,,,,,,,,,,,,,,,0.0014094822108745575,0.4900491014122963,0.7403292581439018,9957.958075098693,,,,,,,9955.474311336875,9955.988462381065,9955.97137601301,9955.97137601301,9956.222006849945,9956.721574049443,9956.972722861916,9957.977395176888,z,0,0.19095618650317192,0.2,,,,,,,,,,,,s002,001,2024-04-10_15h44.48.023,simplestop_skeleton,2022.2.2,59.9277046758086,
None,None,,,,,,,,,0,0,0,0,2,1,9,2,,,,,,,,,9957.958383541554,stop,squareblack.png,m,0.2,,,,,,,,,,,,,,,,,,0.0016641542315483093,0.49011555686593056,0.6899273172020912,9960.46085016802,,,,,,,9957.977395176888,9958.490614302456,9958.474250540137,9958.474250540137,9958.674261454493,9959.174208875746,9959.475115586072,9960.619774479419,m,0,0.3981708623468876,0.15,,,,,,,,,,,,s002,001,2024-04-10_15h44.48.023,simplestop_skeleton,2022.2.2,59.9277046758086,
$currentCorrectResponse,$currentGoStim,,,,,,,,,0,0,0,0,2,2,10,0,,,,,,,,,9960.461167898029,go,squareblack.png,m,0.15,,,,,,,,,,,,,,,,,,0.00215303897857666,0.4873712696135044,0.6380359269678593,9962.963648479432,,,,,,,9960.619774479419,9961.126495704055,9960.975718691945,9960.975718691945,9961.126495704055,9961.62773258239,9961.977813858539,9962.982911124825,m,0,0.5084059610962868,0.15,,,,,,,,,,,,s002,001,2024-04-10_15h44.48.023,simplestop_skeleton,2022.2.2,59.9277046758086,
None,None,,,,,,,,,0,0,0,0,2,3,11,2,,,,,,,,,9962.963968578726,go,squareblack.png,m,0.15,,,,,,,,,,,,,,,,,,0.0013749487698078156,0.48988397791981697,0.6396570578217506,9965.4663788639,,,,,,,9962.982911124825,9963.496401429176,9963.479974772781,9963.479974772781,9963.62972747907,9964.129683591425,9964.480879683048,9965.48554020375,m,0,0.4183385893702507,0.15,,,,,,,,,,,,s002,001,2024-04-10_15h44.48.023,simplestop_skeleton,2022.2.2,59.9277046758086,
$currentCorrectResponse,$currentGoStim,,,,,,,,,0,0,0,0,3,0,12,0,,,,,,,,,9965.466693222523,go,circleblack.png,z,0.15,,,,,,,,,,,,,,,,,,0.0018696002662181854,0.48990972712635994,0.639930721372366,9967.969017345458,,,,,,,9965.48554020375,9965.999121673405,9965.9823406972,9965.9823406972,9966.13256232068,9966.63349565491,9966.982001218945,9967.988122481853,None,0,,0.15,,,,,,,,,,,,s002,001,2024-04-10_15h44.48.023,simplestop_skeleton,2022.2.2,59.9277046758086,
None,None,,,,,,,,,0,0,0,0,3,1,13,1,,,,,,,,,9967.96933555603,go,squareblack.png,m,0.15,,,,,,,,,,,,,,,,,,0.001634020358324051,0.48986899852752686,0.6400867067277431,9970.471911124885,,,,,,,9967.988122481853,9968.5018539913,9968.485566295683,9968.485566295683,9968.63550221175,9969.135899160057,9969.486205041409,9970.490245010704,m,0,0.49230946972966194,0.15,,,,,,,,,,,,s002,001,2024-04-10_15h44.48.023,simplestop_skeleton,2022.2.2,59.9277046758086,
None,None,,,,,,,,,0,0,0,0,3,2,14,2,,,,,,,,,9970.472237154841,stop,squareblack.png,m,0.15,,,,,,,,,,,,,,,,,,0.0012855380773544312,0.489779494702816,0.639917366206646,9972.974512629211,,,,,,,9970.490245010704,9971.004553560168,9970.987874910235,9970.987874910235,9971.138221319765,9971.638845924288,9971.989302784204,9972.993097029626,None,1,,0.2,,,,,,,,,,,,s002,001,2024-04-10_15h44.48.023,simplestop_skeleton,2022.2.2,59.9277046758086,
None,None,,,,,,,,,0,0,0,0,3,3,15,3,,,,,,,,,9972.974827375263,stop,squareblack.png,m,0.2,,,,,,,,,,,,,,,,,,0.0011872835457324982,0.48972608149051666,0.6900711692869663,9975.477192323655,,,,,,,9972.993097029626,9973.507135797292,9973.490559406579,9973.490559406579,9973.690856732428,9974.191390536726,9974.49170954153,9975.49627975747,None,1,,0.25,,,,,,,,,,,,s002,001,2024-04-10_15h44.48.023,simplestop_skeleton,2022.2.2,59.9277046758086,
None,None,,,,,,,,,0,0,0,0,4,0,16,2,,,,,,,,,9975.477512467653,stop,circleblack.png,z,0.25,,,,,,,,,,,,,,,,,,0.0018118061125278473,0.49001939594745636,0.7402222901582718,9977.978968173265,,,,,,,9975.49627975747,9976.010386858135,9975.993364769965,9975.993364769965,9976.243634041399,9976.744135543704,9976.994353402406,9977.995390612632,None,1,,0.3,,,,,,,,,,,,s002,001,2024-04-10_15h44.48.023,simplestop_skeleton,2022.2.2,59.9277046758086,
None,None,,,,,,,,,0,0,0,0,4,1,17,2,,,,,,,,,9977.97930201143,stop,circleblack.png,z,0.3,,,,,,,,,,,,,,,,,,0.001245655119419098,0.4896632693707943,0.7912088744342327,9980.48271516338,,,,,,,9977.995390612632,9978.497087363154,9978.497087363154,9978.497087363154,9978.796318728477,9979.29690984264,9979.497162118554,9980.501852024347,None,1,,0.35,,,,,,,,,,,,s002,001,2024-04-10_15h44.48.023,simplestop_skeleton,2022.2.2,59.9277046758086,
None,None,,,,,,,,,0,0,0,0,4,2,18,2,,,,,,,,,9980.483030818403,go,squareblack.png,m,0.35,,,,,,,,,,,,,,,,,,0.0017152391374111176,0.48991169035434723,0.8389466032385826,9982.985621046275,,,,,,,9980.501852024347,9981.015531234443,9980.999336268753,9980.999336268753,9981.347735367715,9981.849778991193,9981.999952025712,9983.0049001351,m,0,0.49295027554035187,0.35,,,,,,,,,,,,s002,001,2024-04-10_15h44.48.023,simplestop_skeleton,2022.2.2,59.9277046758086,
None,None,,,,,,,,,0,0,0,0,4,3,19,1,,,,,,,,,9982.985941629857,go,circleblack.png,z,0.35,,,,,,,,,,,,,,,,,,0.0017765574157238007,0.49008820205926895,0.8403752334415913,9985.488358367234,,,,,,,9983.0049001351,9983.51834114641,9983.50170333311,9983.50170333311,9983.852108988911,9984.351190507412,9984.50179515779,9985.507561609149,z,0,0.5404762625694275,0.35,,,,,,,,,,,,s002,001,2024-04-10_15h44.48.023,simplestop_skeleton,2022.2.2,59.9277046758086,
None,None,,,,,,,,,0,0,0,0,5,0,20,1,,,,,,,,,9985.488669119775,go,squareblack.png,m,0.35,,,,,,,,,,,,,,,,,,0.0016608498990535736,0.48980919644236565,0.8400408998131752,9987.991326503456,,,,,,,9985.507561609149,9986.021034758538,9986.004381239414,9986.004381239414,9986.354826383293,9986.854074466974,9987.005154319108,9988.010261427611,m,0,0.4747624360024929,0.35,,,,,,,,,,,,s002,001,2024-04-10_15h44.48.023,simplestop_skeleton,2022.2.2,59.9277046758086,
None,None,,,,,,,,,0,0,0,0,5,1,21,2,,,,,,,,,9987.99164218828,go,squareblack.png,m,0.35,,,,,,,,,,,,,,,,,,0.0012789368629455566,0.489918552339077,0.8402102924883366,9990.494032565504,,,,,,,9988.010261427611,9988.523966051638,9988.507376730442,9988.507376730442,9988.857677325606,9989.357258580625,9989.507512766868,9990.513735696673,m,0,0.3932992182672024,0.35,,,,,,,,,,,,s002,001,2024-04-10_15h44.48.023,simplestop_skeleton,2022.2.2,59.9277046758086,
None,None,,,,,,,,,0,0,0,0,5,2,22,1,,,,,,,,,9990.494340527803,go,circleblack.png,z,0.35,,,,,,,,,,,,,,,,,,0.001986321061849594,0.4895331747829914,0.8398055136203766,9992.99667667225,,,,,,,9990.513735696673,9991.026742059737,9991.009949680418,9991.009949680418,9991.36041111499,9991.859743971378,9992.010659560561,9993.015624262393,z,0,0.35803328827023506,0.35,,,,,,,,,,,,s002,001,2024-04-10_15h44.48.023,simplestop_skeleton,2022.2.2,59.9277046758086,
$currentCorrectResponse,$currentGoStim,,,,,,,,,0,0,0,0,5,3,23,0,,,,,,,,,9992.99698253721,go,circleblack.png,z,0.35,,,,,,,,,,,,,,,,,,0.001248631626367569,0.48996150121092796,0.8403880968689919,9995.499865174294,,,,,,,9993.015624262393,9993.52974544093,9993.512651946396,9993.512651946396,9993.863221995533,9994.362516794354,9994.5130844675,9995.518767077476,z,0,0.39175430685281754,0.35,,,,,,,,,,,,s002,001,2024-04-10_15h44.48.023,simplestop_skeleton,2022.2.2,59.9277046758086,
None,None,,,,,,,,,0,0,0,0,6,0,24,3,,,,,,,,,9995.500177260488,go,squareblack.png,m,0.35,,,,,,,,,,,,,,,,,,0.0016939714550971985,0.489494189620018,0.840102456510067,9998.002171579748,,,,,,,9995.518767077476,9996.032246429473,9996.015708077699,9996.015708077699,9996.366002261639,9996.86524862796,9997.01519741118,9998.021450653672,m,0,0.5593835823237896,0.35,,,,,,,,,,,,s002,001,2024-04-10_15h44.48.023,simplestop_skeleton,2022.2.2,59.9277046758086,
None,None,,,,,,,,,0,0,0,0,6,1,25,3,,,,,,,,,9998.002542376518,go,circleblack.png,z,0.35,,,,,,,,,,,,,,,,,,0.0017935745418071747,0.4898086152970791,0.8407042659819126,10000.505129389465,,,,,,,9998.021450653672,9998.535077184439,9998.518310800195,9998.518310800195,9998.868785820901,9999.368492849171,9999.518921934068,10000.52397673577,z,0,0.32650550454854965,0.35,,,,,,,,,,,,s002,001,2024-04-10_15h44.48.023,simplestop_skeleton,2022.2.2,59.9277046758086,
None,None,,,,,,,,,0,0,0,0,6,2,26,1,,,,,,,,,10000.505447696894,stop,circleblack.png,z,0.35,,,,,,,,,,,,,,,,,,0.001370944082736969,0.4897230453789234,0.8403955399990082,10003.008112721145,,,,,,,10000.52397673577,10001.037786375731,10001.02101702243,10001.02101702243,10001.371630854905,10001.887164589018,10002.02204426378,10003.02696750313,z,0,0.4932432100176811,0.3,,,,,,,,,,,,s002,001,2024-04-10_15h44.48.023,simplestop_skeleton,2022.2.2,59.9277046758086,
$currentCorrectResponse,$currentGoStim,,,,,,,,,0,0,0,0,6,3,27,0,,,,,,,,,10003.008432798088,stop,squareblack.png,m,0.3,,,,,,,,,,,,,,,,,,0.001663021743297577,0.48952677845954895,0.7898579463362694,10005.51047462225,,,,,,,10003.02696750313,10003.540452260524,10003.523668192327,10003.523668192327,10003.824114825577,10004.339805610478,10004.524007920176,10005.52965343371,m,0,0.3906708285212517,0.25,,,,,,,,,,,,s002,001,2024-04-10_15h44.48.023,simplestop_skeleton,2022.2.2,59.9277046758086,
$currentCorrectResponse,$currentGoStim,,,,,,,,,0,0,0,0,7,0,28,0,,,,,,,,,10005.510780729353,go,circleblack.png,z,0.25,,,,,,,,,,,,,,,,,,0.0018340572714805603,0.48986392840743065,0.7401856109499931,10008.013235595077,,,,,,,10005.52965343371,10006.043298941106,10006.026478234679,10006.026478234679,10006.276685342193,10006.777393374592,10007.026147939265,10008.032493822277,z,0,0.5516971237957478,0.25,,,,,,,,,,,,s002,001,2024-04-10_15h44.48.023,simplestop_skeleton,2022.2.2,59.9277046758086,
None,None,,,,,,,,,0,0,0,0,7,1,29,1,,,,,,,,,10008.013552244753,go,squareblack.png,m,0.25,,,,,,,,,,,,,,,,,,0.001694217324256897,0.48960019648075104,0.7402121350169182,10010.516082379967,,,,,,,10008.032493822277,10008.54604319483,10008.529196690768,10008.529196690768,10008.779658745974,10009.278727263212,10009.530023939908,10010.53511614725,z,0,0.21915024146437645,0.25,,,,,,,,,,,,s002,001,2024-04-10_15h44.48.023,simplestop_skeleton,2022.2.2,59.9277046758086,
None,None,,,,,,,,,0,0,0,0,7,2,30,3,,,,,,,,,10010.516409810632,go,squareblack.png,m,0.25,,,,,,,,,,,,,,,,,,0.0012800134718418121,0.4896105267107487,0.7401767857372761,10013.018965695053,,,,,,,10010.53511614725,10011.048535335809,10011.032037071884,10011.032037071884,10011.282298598439,10011.782982334495,10012.032708659768,10013.038190614432,m,0,0.47261839732527733,0.25,,,,,,,,,,,,s002,001,2024-04-10_15h44.48.023,simplestop_skeleton,2022.2.2,59.9277046758086,
$currentCorrectResponse,$currentGoStim,,,,,,,,,0,0,0,0,7,3,31,0,,,,,,,,,10013.019287452102,go,circleblack.png,z,0.25,,,,,,,,,,,,,,,,,,0.0019173994660377502,0.48982538282871246,0.7403287775814533,10015.521570518613,,,,,,,10013.038190614432,10013.551627863199,10013.534896086901,10013.534896086901,10013.785255089402,10014.286168497056,10014.534432671964,10015.540488321334,None,0,,0.25,,,,,,,,,,,,s002,001,2024-04-10_15h44.48.023,simplestop_skeleton,2022.2.2,59.9277046758086,
None,None,,,,,,,,,0,0,0,0,8,0,32,1,,,,,,,,,10015.521895367652,go,squareblack.png,m,0.25,,,,,,,,,,,,,,,,,,0.0015980564057826996,0.49023863673210144,0.7403393387794495,10018.024534065276,,,,,,,10015.540488321334,10016.054373115301,10016.037700340152,10016.037700340152,10016.28805808723,10016.788367222995,10017.038334868848,10018.043808564544,m,0,0.49145642295479774,0.25,,,,,,,,,,,,s002,001,2024-04-10_15h44.48.023,simplestop_skeleton,2022.2.2,59.9277046758086,
$currentCorrectResponse,$currentGoStim,,,,,,,,,0,0,0,0,8,1,33,0,,,,,,,,,10018.024865653366,go,circleblack.png,z,0.25,,,,,,,,,,,,,,,,,,0.0017720013856887817,0.48946550861001015,0.739970687776804,10020.527281403542,,,,,,,10018.043808564544,10018.557061810046,10018.540287759155,10018.540287759155,10018.790635161102,10019.291258301586,10019.540562659502,10020.546332415193,z,0,0.5341237336397171,0.25,,,,,,,,,,,,s002,001,2024-04-10_15h44.48.023,simplestop_skeleton,2022.2.2,59.9277046758086,
None,None,,,,,,,,,0,0,0,0,8,2,34,3,,,,,,,,,10020.527601458132,stop,squareblack.png,m,0.25,,,,,,,,,,,,,,,,,,0.0016580410301685333,0.4895140193402767,0.7398370616137981,10023.029707234353,,,,,,,10020.546332415193,10021.059825565666,10021.043568447232,10021.043568447232,10021.293362751603,10021.793991405517,10022.044559616596,10023.049075387418,None,1,,0.3,,,,,,,,,,,,s002,001,2024-04-10_15h44.48.023,simplestop_skeleton,2022.2.2,59.9277046758086,
None,None,,,,,,,,,0,0,0,0,8,3,35,3,,,,,,,,,10023.030033867806,stop,circleblack.png,z,0.3,,,,,,,,,,,,,,,,,,0.0017542093992233276,0.4884732887148857,0.7903913147747517,10025.532518163323,,,,,,,10023.049075387418,10023.5622776635,10023.547095917165,10023.547095917165,10023.846589423716,10024.346348565072,10024.54611934349,10025.551350153983,z,0,0.25628235936164856,0.25,,,,,,,,,,,,s002,001,2024-04-10_15h44.48.023,simplestop_skeleton,2022.2.2,59.9277046758086,
None,None,,,,,,,,,0,0,0,0,9,0,36,3,,,,,,,,,10025.532842013985,go,circleblack.png,z,0.25,,,,,,,,,,,,,,,,,,0.00126662477850914,0.4896925315260887,0.739970937371254,10028.035435430706,,,,,,,10025.551350153983,10026.065167110413,10026.048517867923,10026.048517867923,10026.29863904789,10026.799777187407,10027.048176590353,10028.055835869163,z,0,0.6379980705678463,0.25,,,,,,,,,,,,s002,001,2024-04-10_15h44.48.023,simplestop_skeleton,2022.2.2,59.9277046758086,
None,None,,,,,,,,,0,0,0,0,9,1,37,1,,,,,,,,,10028.035743977875,stop,circleblack.png,z,0.25,,,,,,,,,,,,,,,,,,0.0013552755117416382,0.4897177256643772,0.7400264143943787,10030.538162153214,,,,,,,10028.055835869163,10028.568176157773,10028.55179200694,10028.55179200694,10028.801613993943,10029.302251342684,10029.552393902093,10030.558626644313,None,1,,0.3,,,,,,,,,,,,s002,001,2024-04-10_15h44.48.023,simplestop_skeleton,2022.2.2,59.9277046758086,
None,None,,,,,,,,,0,0,0,0,9,2,38,1,,,,,,,,,10030.538470182568,go,squareblack.png,m,0.3,,,,,,,,,,,,,,,,,,0.0016333423554897308,0.4898178018629551,0.7899469286203384,10033.04081536457,,,,,,,10030.558626644313,10031.07110670209,10031.054165773094,10031.054165773094,10031.354525357485,10031.853646762669,10032.054777033627,10033.06002965197,m,0,0.4459720142185688,0.3,,,,,,,,,,,,s002,001,2024-04-10_15h44.48.023,simplestop_skeleton,2022.2.2,59.9277046758086,
$currentCorrectResponse,$currentGoStim,,,,,,,,,0,0,0,0,9,3,39,0,,,,,,,,,10033.041133981198,go,circleblack.png,z,0.3,,,,,,,,,,,,,,,,,,0.0018579252064228058,0.48974256217479706,0.7901210002601147,10035.543714914471,,,,,,,10033.06002965197,10033.573670450598,10033.556897580624,10033.556897580624,10033.857179973274,10034.357744015753,10034.556529052556,10035.562714796513,z,0,0.614494051784277,0.3,,,,,,,,,,,,s002,001,2024-04-10_15h44.48.023,simplestop_skeleton,2022.2.2,59.9277046758086,
None,None,,,,,,,,,0,0,0,0,10,0,40,1,,,,,,,,,10035.544041663408,go,squareblack.png,m,0.3,,,,,,,,,,,,,,,,,,0.0016322731971740723,0.4898945540189743,0.7899914123117924,10038.04661553353,,,,,,,10035.562714796513,10036.076378848404,10036.059629708529,10036.059629708529,10036.36032813415,10036.859776709229,10037.060785591602,10038.065869968385,z,0,0.07963797077536583,0.3,,,,,,,,,,,,s002,001,2024-04-10_15h44.48.023,simplestop_skeleton,2022.2.2,59.9277046758086,
$currentCorrectResponse,$currentGoStim,,,,,,,,,0,0,0,0,10,1,41,0,,,,,,,,,10038.046922557056,go,circleblack.png,z,0.3,,,,,,,,,,,,,,,,,,0.0018783211708068848,0.4897870644927025,0.7899772301316261,10040.54928182438,,,,,,,10038.065869968385,10038.579331871122,10038.56250211969,10038.56250211969,10038.862790677696,10039.362035345286,10039.562952838838,10040.569044485688,z,0,0.46824581548571587,0.3,,,,,,,,,,,,s002,001,2024-04-10_15h44.48.023,simplestop_skeleton,2022.2.2,59.9277046758086,
None,None,,,,,,,,,0,0,0,0,10,2,42,3,,,,,,,,,10040.549606278539,stop,squareblack.png,m,0.3,,,,,,,,,,,,,,,,,,0.0017530694603919983,0.4893948808312416,0.7899646498262882,10043.052045676857,,,,,,,10040.569044485688,10041.081925414503,10041.065446518362,10041.065446518362,10041.365612927824,10041.8662353307,10042.066532630473,10043.071199007332,None,1,,0.35,,,,,,,,,,,,s002,001,2024-04-10_15h44.48.023,simplestop_skeleton,2022.2.2,59.9277046758086,
None,None,,,,,,,,,0,0,0,0,10,3,43,3,,,,,,,,,10043.052353836596,go,circleblack.png,z,0.35,,,,,,,,,,,,,,,,,,0.0017848014831542969,0.48971838131546974,0.8399157002568245,10045.554810535163,,,,,,,10043.071199007332,10043.584752488881,10043.568024262786,10043.568024262786,10043.918569449335,10044.434087641537,10044.567616347224,10045.573935490102,z,0,0.5690178759396076,0.35,,,,,,,,,,,,s002,001,2024-04-10_15h44.48.023,simplestop_skeleton,2022.2.2,59.9277046758086,
None,None,,,,,,,,,0,0,0,0,11,0,44,1,,,,,,,,,10045.555122569203,go,squareblack.png,m,0.35,,,,,,,,,,,,,,,,,,0.001660458743572235,0.4898162931203842,0.8400718905031681,10048.057796999812,,,,,,,10045.573935490102,10046.087387941778,10046.07078006491,10046.07078006491,10046.421088006347,10046.920132912695,10047.071237359196,10048.0764840208,m,0,0.41254108771681786,0.35,,,,,,,,,,,,s002,001,2024-04-10_15h44.48.023,simplestop_skeleton,2022.2.2,59.9277046758086,
None,None,,,,,,,,,0,0,0,0,11,1,45,2,,,,,,,,,10048.058108594269,stop,squareblack.png,m,0.35,,,,,,,,,,,,,,,,,,0.00131293386220932,0.48963209241628647,0.8402744755148888,10050.560243174434,,,,,,,10048.0764840208,10048.590507294983,10048.57362601906,10048.57362601906,10048.923954896629,10049.42405205965,10049.573881059885,10050.579069562256,m,0,0.6042562201619148,0.3,,,,,,,,,,,,s002,001,2024-04-10_15h44.48.023,simplestop_skeleton,2022.2.2,59.9277046758086,
$currentCorrectResponse,$currentGoStim,,,,,,,,,0,0,0,0,11,2,46,0,,,,,,,,,10050.560553602874,go,squareblack.png,m,0.3,,,,,,,,,,,,,,,,,,0.0012502744793891907,0.48986173793673515,0.7903571091592312,10053.063199192286,,,,,,,10050.579069562256,10051.093093954027,10051.076357197016,10051.076357197016,10051.376733787358,10051.875800121576,10052.076066035777,10053.082363862544,m,0,0.5085917226970196,0.3,,,,,,,,,,,,s002,001,2024-04-10_15h44.48.023,simplestop_skeleton,2022.2.2,59.9277046758086,
None,None,,,,,,,,,0,0,0,0,11,3,47,3,,,,,,,,,10053.0635076873,stop,circleblack.png,z,0.3,,,,,,,,,,,,,,,,,,0.0018750019371509552,0.4895705617964268,0.789912935346365,10055.5659660995,,,,,,,10053.082363862544,10053.595885701478,10053.578955437988,10053.578955437988,10053.87952214852,10054.380585759878,10054.58009050414,10055.599886853248,z,0,0.8077655173838139,0.25,,,,,,,,,,,,s002,001,2024-04-10_15h44.48.023,simplestop_skeleton,2022.2.2,59.9277046758086,
,,,,,,,,,,0,0,0,0,,,,,,,,,,,,,,,,,,,,,,,,,,,,,,,,,,,,,,,,,,,,,,,,,,,,,,,,,"[{'fileName': 'circleblack.png', 'correct_response': 'z', 'condition': 'stop'}, {'fileName': 'circleblack.png', 'correct_response': 'z', 'condition': 'go'}, {'fileName': 'circleblack.png', 'correct_response': 'z', 'condition': 'go'}, {'fileName': 'squareblack.png', 'correct_response': 'm', 'condition': 'stop'}, {'fileName': 'squareblack.png', 'correct_response': 'm', 'condition': 'go'}, {'fileName': 'circleblack.png', 'correct_response': 'z', 'condition': 'go'}, {'fileName': 'circleblack.png', 'correct_response': 'z', 'condition': 'go'}, {'fileName': 'squareblack.png', 'correct_response': 'm', 'condition': 'go'}, {'fileName': 'squareblack.png', 'correct_response': 'm', 'condition': 'stop'}, {'fileName': 'squareblack.png', 'correct_response': 'm', 'condition': 'go'}, {'fileName': 'circleblack.png', 'correct_response': 'z', 'condition': 'stop'}, {'fileName': 'squareblack.png', 'correct_response': 'm', 'condition': 'go'}, {'fileName': 'circleblack.png', 'correct_response': 'z', 'condition': 'go'}, {'fileName': 'squareblack.png', 'correct_response': 'm', 'condition': 'go'}, {'fileName': 'circleblack.png', 'correct_response': 'z', 'condition': 'go'}, {'fileName': 'circleblack.png', 'correct_response': 'z', 'condition': 'stop'}, {'fileName': 'squareblack.png', 'correct_response': 'm', 'condition': 'go'}, {'fileName': 'squareblack.png', 'correct_response': 'm', 'condition': 'go'}, {'fileName': 'squareblack.png', 'correct_response': 'm', 'condition': 'stop'}, {'fileName': 'squareblack.png', 'correct_response': 'm', 'condition': 'go'}, {'fileName': 'squareblack.png', 'correct_response': 'm', 'condition': 'stop'}, {'fileName': 'circleblack.png', 'correct_response': 'z', 'condition': 'go'}, {'fileName': 'circleblack.png', 'correct_response': 'z', 'condition': 'stop'}, {'fileName': 'circleblack.png', 'correct_response': 'z', 'condition': 'go'}, {'fileName': 'squareblack.png', 'correct_response': 'm', 'condition': 'go'}, {'fileName': 'squareblack.png', 'correct_response': 'm', 'condition': 'stop'}, {'fileName': 'circleblack.png', 'correct_response': 'z', 'condition': 'go'}, {'fileName': 'circleblack.png', 'correct_response': 'z', 'condition': 'stop'}, {'fileName': 'circleblack.png', 'correct_response': 'z', 'condition': 'stop'}, {'fileName': 'squareblack.png', 'correct_response': 'm', 'condition': 'go'}, {'fileName': 'squareblack.png', 'correct_response': 'm', 'condition': 'stop'}, {'fileName': 'circleblack.png', 'correct_response': 'z', 'condition': 'go'}, {'fileName': 'circleblack.png', 'correct_response': 'z', 'condition': 'go'}, {'fileName': 'circleblack.png', 'correct_response': 'z', 'condition': 'go'}, {'fileName': 'squareblack.png', 'correct_response': 'm', 'condition': 'go'}, {'fileName': 'squareblack.png', 'correct_response': 'm', 'condition': 'go'}, {'fileName': 'circleblack.png', 'correct_response': 'z', 'condition': 'go'}, {'fileName': 'circleblack.png', 'correct_response': 'z', 'condition': 'stop'}, {'fileName': 'circleblack.png', 'correct_response': 'z', 'condition': 'stop'}, {'fileName': 'squareblack.png', 'correct_response': 'm', 'condition': 'go'}, {'fileName': 'circleblack.png', 'correct_response': 'z', 'condition': 'go'}, {'fileName': 'squareblack.png', 'correct_response': 'm', 'condition': 'stop'}, {'fileName': 'squareblack.png', 'correct_response': 'm', 'condition': 'go'}, {'fileName': 'squareblack.png', 'correct_response': 'm', 'condition': 'go'}, {'fileName': 'squareblack.png', 'correct_response': 'm', 'condition': 'go'}, {'fileName': 'circleblack.png', 'correct_response': 'z', 'condition': 'go'}, {'fileName': 'circleblack.png', 'correct_response': 'z', 'condition': 'go'}, {'fileName': 'squareblack.png', 'correct_response': 'm', 'condition': 'stop'}]",10055.599886853248,10055.599886853248,return,11.862231034785509,,,,,,,s002,001,2024-04-10_15h44.48.023,simplestop_skeleton,2022.2.2,59.9277046758086,
$currentCorrectResponse,$currentGoStim,,,,,,,,,1,0,1,0,0,0,0,0,,,,,,,,,10067.494998201728,stop,circleblack.png,z,0.25,,,,,,,,,,,,,,,,,,0.0012694597244262695,0.4905150905251503,0.7406006716191769,10069.998477458954,,,,,,,10067.517097387463,10068.028390500695,10068.011564165354,10068.011564165354,10068.261899139732,10068.76236601919,10069.01265918836,10070.019632153213,None,0,,0.3,,,,,,,,,,,,s002,001,2024-04-10_15h44.48.023,simplestop_skeleton,2022.2.2,59.9277046758086,
None,None,,,,,,,,,1,0,1,0,0,1,1,2,,,,,,,,,10069.998817883432,go,circleblack.png,z,0.3,,,,,,,,,,,,,,,,,,0.0020609647035598755,0.4874618165194988,0.7878650352358818,10072.501343335956,,,,,,,10070.019632153213,10070.530905190855,10070.51426609978,10070.51426609978,10070.814742926508,10071.330393232405,10071.515110947192,10072.521701540798,z,0,0.3386615999042988,0.3,,,,,,,,,,,,s002,001,2024-04-10_15h44.48.023,simplestop_skeleton,2022.2.2,59.9277046758086,
$currentCorrectResponse,$currentGoStim,,,,,,,,,1,0,1,0,0,2,2,0,,,,,,,,,10072.50166900456,go,circleblack.png,z,0.3,,,,,,,,,,,,,,,,,,0.0026480965316295624,0.48868539184331894,0.7889915704727173,10075.003639232367,,,,,,,10072.521701540798,10073.033672384918,10073.017063800246,10073.017063800246,10073.317365732044,10073.816474262625,10074.017558086663,10075.027859959751,z,0,0.3877851963043213,0.3,,,,,,,,,,,,s002,001,2024-04-10_15h44.48.023,simplestop_skeleton,2022.2.2,59.9277046758086,
None,None,,,,,,,,,1,0,1,0,0,3,3,2,,,,,,,,,10075.003947488964,stop,squareblack.png,m,0.3,,,,,,,,,,,,,,,,,,0.0075372979044914246,0.4903016984462738,0.7901455722749233,10077.506884928793,,,,,,,10075.027859959751,10075.536904845387,10075.519901804626,10075.519901804626,10075.820090569556,10076.319282632321,10076.520423982292,10077.525655392557,m,0,0.464411448687315,0.25,,,,,,,,,,,,s002,001,2024-04-10_15h44.48.023,simplestop_skeleton,2022.2.2,59.9277046758086,
None,None,,,,,,,,,1,0,1,0,1,0,4,1,,,,,,,,,10077.507205426693,go,squareblack.png,m,0.25,,,,,,,,,,,,,,,,,,0.0013698190450668335,0.4898824542760849,0.7398931011557579,10080.009358368814,,,,,,,10077.525655392557,10078.039326235652,10078.022818177938,10078.022818177938,10078.273422818631,10078.773870337754,10079.023372933269,10080.028802435845,m,0,0.5411025211215019,0.25,,,,,,,,,,,,s002,001,2024-04-10_15h44.48.023,simplestop_skeleton,2022.2.2,59.9277046758086,
None,None,,,,,,,,,1,0,1,0,1,1,5,1,,,,,,,,,10080.009673930705,go,circleblack.png,z,0.25,,,,,,,,,,,,,,,,,,0.0018161684274673462,0.4902035929262638,0.7400287352502346,10082.512237012386,,,,,,,10080.028802435845,10080.542394440621,10080.525804754347,10080.525804754347,10080.775829147547,10081.275030139834,10081.526196852326,10082.531246937811,z,0,0.45475680381059647,0.25,,,,,,,,,,,,s002,001,2024-04-10_15h44.48.023,simplestop_skeleton,2022.2.2,59.9277046758086,
None,None,,,,,,,,,1,0,1,0,1,2,6,1,,,,,,,,,10082.51254420355,go,circleblack.png,z,0.25,,,,,,,,,,,,,,,,,,0.0014745593070983887,0.489485215395689,0.7398150973021984,10085.014851681888,,,,,,,10082.531246937811,10083.044767234474,10083.028301697224,10083.028301697224,10083.278388790786,10083.77755733952,10084.028573565185,10085.033886667341,z,0,0.4507342353463173,0.25,,,,,,,,,,,,s002,001,2024-04-10_15h44.48.023,simplestop_skeleton,2022.2.2,59.9277046758086,
None,None,,,,,,,,,1,0,1,0,1,3,7,3,,,,,,,,,10085.015155859292,go,squareblack.png,m,0.25,,,,,,,,,,,,,,,,,,0.0015952475368976593,0.4898068383336067,0.739961601793766,10087.517806645483,,,,,,,10085.033886667341,10085.547845054418,10085.530900672078,10085.530900672078,10085.781328018755,10086.282100372016,10086.53078630194,10087.536480672657,m,0,0.5111343823373318,0.25,,,,,,,,,,,,s002,001,2024-04-10_15h44.48.023,simplestop_skeleton,2022.2.2,59.9277046758086,
None,None,,,,,,,,,1,0,1,0,2,0,8,1,,,,,,,,,10087.518124856055,stop,squareblack.png,m,0.25,,,,,,,,,,,,,,,,,,0.001256164163351059,0.490098487585783,0.7401887588202953,10090.020642347634,,,,,,,10087.536480672657,10088.050327744335,10088.033869951963,10088.033869951963,10088.283893246204,10088.784447457641,10089.03602033481,10090.039303194731,m,0,0.4763639159500599,0.2,,,,,,,,,,,,s002,001,2024-04-10_15h44.48.023,simplestop_skeleton,2022.2.2,59.9277046758086,
None,None,,,,,,,,,1,0,1,0,2,1,9,1,,,,,,,,,10090.02095246315,go,squareblack.png,m,0.2,,,,,,,,,,,,,,,,,,0.0013580285012722015,0.4896926283836365,0.6898831687867641,10092.523375418037,,,,,,,10090.039303194731,10090.553224213421,10090.536694586277,10090.536694586277,10090.73671606183,10091.237203799188,10091.537294652313,10092.542611427605,z,0,0.4613328315317631,0.2,,,,,,,,,,,,s002,001,2024-04-10_15h44.48.023,simplestop_skeleton,2022.2.2,59.9277046758086,
None,None,,,,,,,,,1,0,1,0,2,2,10,3,,,,,,,,,10092.523700796068,stop,circleblack.png,z,0.2,,,,,,,,,,,,,,,,,,0.0020944513380527496,0.48968860134482384,0.6898774579167366,10095.02597591281,,,,,,,10092.542611427605,10093.055850833654,10093.039271302521,10093.039271302521,10093.23938215524,10093.73843242973,10094.0396800749,10095.045223545283,z,0,0.31477686762809753,0.15,,,,,,,,,,,,s002,001,2024-04-10_15h44.48.023,simplestop_skeleton,2022.2.2,59.9277046758086,
None,None,,,,,,,,,1,0,1,0,2,3,11,2,,,,,,,,,10095.02629918605,go,squareblack.png,m,0.15,,,,,,,,,,,,,,,,,,0.001613415777683258,0.4900169111788273,0.6398263722658157,10097.52875990048,,,,,,,10095.045223545283,10095.558510169387,10095.5420441553,10095.5420441553,10095.692233994603,10096.192772880197,10096.541776441038,10097.54900169,m,0,0.5352677516639233,0.15,,,,,,,,,,,,s002,001,2024-04-10_15h44.48.023,simplestop_skeleton,2022.2.2,59.9277046758086,
None,None,,,,,,,,,1,0,1,0,3,0,12,1,,,,,,,,,10097.529080867767,go,circleblack.png,z,0.15,,,,,,,,,,,,,,,,,,0.0025922246277332306,0.48743921145796776,0.6386008746922016,10100.0313584283,,,,,,,10097.54900169,10098.059825409204,10098.043262924999,10098.043262924999,10098.194097783417,10098.695370417088,10099.045986793935,10100.051326304674,z,0,0.472390279173851,0.15,,,,,,,,,,,,s002,001,2024-04-10_15h44.48.023,simplestop_skeleton,2022.2.2,59.9277046758086,
None,None,,,,,,,,,1,0,1,0,3,1,13,1,,,,,,,,,10100.031665731221,go,squareblack.png,m,0.15,,,,,,,,,,,,,,,,,,0.0023405738174915314,0.4887645058333874,0.6389002539217472,10102.534252706915,,,,,,,10100.051326304674,10100.564233984798,10100.547362919897,10100.547362919897,10100.6974828206,10101.198707416654,10101.547140348703,10102.553560063243,m,0,0.618216834962368,0.15,,,,,,,,,,,,s002,001,2024-04-10_15h44.48.023,simplestop_skeleton,2022.2.2,59.9277046758086,
None,None,,,,,,,,,1,0,1,0,3,2,14,2,,,,,,,,,10102.534592125565,go,circleblack.png,z,0.15,,,,,,,,,,,,,,,,,,0.0017852187156677246,0.49005258083343506,0.6400879323482513,10105.035738576204,,,,,,,10102.553560063243,10103.066892236471,10103.050463184714,10103.050463184714,10103.200690194964,10103.701507691294,10104.04979236424,10105.052848502994,z,0,0.6416197866201401,0.15,,,,,,,,,,,,s002,001,2024-04-10_15h44.48.023,simplestop_skeleton,2022.2.2,59.9277046758086,
None,None,,,,,,,,,1,0,1,0,3,3,15,2,,,,,,,,,10105.036052852869,stop,circleblack.png,z,0.15,,,,,,,,,,,,,,,,,,0.001258794218301773,0.491081140935421,0.641000285744667,10107.5400092192,,,,,,,10105.052848502994,10105.552425734699,10105.552425734699,10105.552425734699,10105.703444309533,10106.203953027725,10106.554513644427,10107.55928247422,None,1,,0.2,,,,,,,,,,,,s002,001,2024-04-10_15h44.48.023,simplestop_skeleton,2022.2.2,59.9277046758086,
$currentCorrectResponse,$currentGoStim,,,,,,,,,1,0,1,0,4,0,16,0,,,,,,,,,10107.540329232812,go,squareblack.png,m,0.2,,,,,,,,,,,,,,,,,,0.0017766505479812622,0.4893234632909298,0.6897277683019638,10110.042560543865,,,,,,,10107.55928247422,10108.07238138467,10108.055738598108,10108.055738598108,10108.255888883024,10108.756432935596,10109.055318642408,10110.061264112592,m,0,0.5463109575212002,0.2,,,,,,,,,,,,s002,001,2024-04-10_15h44.48.023,simplestop_skeleton,2022.2.2,59.9277046758086,
None,None,,,,,,,,,1,0,1,0,4,1,17,3,,,,,,,,,10110.042881201953,go,squareblack.png,m,0.2,,,,,,,,,,,,,,,,,,0.0012224912643432617,0.48977478593587875,0.6900008805096149,10112.545354459435,,,,,,,10110.061264112592,10110.575180459768,10110.55853754282,10110.55853754282,10110.75887389481,10111.259606722742,10111.558124084026,10112.564091712236,m,0,0.662031102925539,0.2,,,,,,,,,,,,s002,001,2024-04-10_15h44.48.023,simplestop_skeleton,2022.2.2,59.9277046758086,
None,None,,,,,,,,,1,0,1,0,4,2,18,2,,,,,,,,,10112.545668881387,stop,squareblack.png,m,0.2,,,,,,,,,,,,,,,,,,0.0012218132615089417,0.4899267815053463,0.6900700330734253,10115.047976516187,,,,,,,10112.564091712236,10113.077913083136,10113.061516102403,10113.061516102403,10113.261812627316,10113.777315873653,10114.062331203371,10115.066481817514,m,0,0.3681192211806774,0.15,,,,,,,,,,,,s002,001,2024-04-10_15h44.48.023,simplestop_skeleton,2022.2.2,59.9277046758086,
$currentCorrectResponse,$currentGoStim,,,,,,,,,1,0,1,0,4,3,19,0,,,,,,,,,10115.048280753195,go,squareblack.png,m,0.15,,,,,,,,,,,,,,,,,,0.001191888004541397,0.4900243654847145,0.6400303170084953,10117.550881430507,,,,,,,10115.066481817514,10115.580819454044,10115.564486965537,10115.564486965537,10115.714529570192,10116.215483170003,10116.563795540482,10117.569798611104,m,0,0.6225906983017921,0.15,,,,,,,,,,,,s002,001,2024-04-10_15h44.48.023,simplestop_skeleton,2022.2.2,59.9277046758086,
None,None,,,,,,,,,1,0,1,0,5,0,20,2,,,,,,,,,10117.551189355552,stop,squareblack.png,m,0.15,,,,,,,,,,,,,,,,,,0.001313537359237671,0.4897196739912033,0.6397315263748169,10120.053598109633,,,,,,,10117.569798611104,10118.083419375122,10118.066959690303,10118.066959690303,10118.217095121741,10118.717493362725,10119.068048868328,10120.078767508268,None,1,,0.2,,,,,,,,,,,,s002,001,2024-04-10_15h44.48.023,simplestop_skeleton,2022.2.2,59.9277046758086,
None,None,,,,,,,,,1,0,1,0,5,1,21,3,,,,,,,,,10120.053917896003,go,circleblack.png,z,0.2,,,,,,,,,,,,,,,,,,0.008571024984121323,0.4899229556322098,0.6900009475648403,10122.556414041668,,,,,,,10120.078767508268,10120.586700525135,10120.569620579481,10120.569620579481,10120.769951764494,10121.269043400884,10121.570027764887,10122.57514609024,z,0,0.30613159015774727,0.2,,,,,,,,,,,,s002,001,2024-04-10_15h44.48.023,simplestop_skeleton,2022.2.2,59.9277046758086,
$currentCorrectResponse,$currentGoStim,,,,,,,,,1,0,1,0,5,2,22,0,,,,,,,,,10122.556720416993,stop,circleblack.png,z,0.2,,,,,,,,,,,,,,,,,,0.00125865638256073,0.48978444188833237,0.6899184435606003,10125.058855049312,,,,,,,10122.57514609024,10123.088974263519,10123.07219839096,10123.07219839096,10123.272544816136,10123.77296987921,10124.073428727686,10125.077361974865,None,0,,0.25,,,,,,,,,,,,s002,001,2024-04-10_15h44.48.023,simplestop_skeleton,2022.2.2,59.9277046758086,
$currentCorrectResponse,$currentGoStim,,,,,,,,,1,0,1,0,5,3,23,0,,,,,,,,,10125.059170681983,go,circleblack.png,z,0.25,,,,,,,,,,,,,,,,,,0.001245640218257904,0.49010859802365303,0.7403268925845623,10127.561960458755,,,,,,,10125.077361974865,10125.591757144779,10125.575075559318,10125.575075559318,10125.825232561678,10126.326129298657,10126.57624970749,10127.581095792353,z,0,0.6679698750376701,0.25,,,,,,,,,,,,s002,001,2024-04-10_15h44.48.023,simplestop_skeleton,2022.2.2,59.9277046758086,
None,None,,,,,,,,,1,0,1,0,6,0,24,2,,,,,,,,,10127.562270056456,go,squareblack.png,m,0.25,,,,,,,,,,,,,,,,,,0.0016983412206172943,0.4881223142147064,0.739027239382267,10130.06457087025,,,,,,,10127.581095792353,10128.093109726906,10128.076319724321,10128.076319724321,10128.327439349145,10128.828676428646,10129.078776568174,10130.082737788558,m,0,0.5577859207987785,0.25,,,,,,,,,,,,s002,001,2024-04-10_15h44.48.023,simplestop_skeleton,2022.2.2,59.9277046758086,
$currentCorrectResponse,$currentGoStim,,,,,,,,,1,0,1,0,6,1,25,0,,,,,,,,,10130.064882226288,stop,squareblack.png,m,0.25,,,,,,,,,,,,,,,,,,0.0011828728020191193,0.49006544426083565,0.740361899137497,10132.567937761545,,,,,,,10130.082737788558,10130.597260318696,10130.58046542108,10130.58046542108,10130.830775413662,10131.331367604434,10131.580293174833,10132.587384544313,m,0,0.49046342447400093,0.2,,,,,,,,,,,,s002,001,2024-04-10_15h44.48.023,simplestop_skeleton,2022.2.2,59.9277046758086,
$currentCorrectResponse,$currentGoStim,,,,,,,,,1,0,1,0,6,2,26,0,,,,,,,,,10132.568241864443,go,circleblack.png,z,0.2,,,,,,,,,,,,,,,,,,0.002760697156190872,0.48927319794893265,0.6894658394157887,10135.070012763143,,,,,,,10132.587384544313,10133.099956169724,10133.083407834172,10133.083407834172,10133.28355089575,10133.784453403205,10134.083043519408,10135.08887078613,z,0,0.5979404486715794,0.2,,,,,,,,,,,,s002,001,2024-04-10_15h44.48.023,simplestop_skeleton,2022.2.2,59.9277046758086,
None,None,,,,,,,,,1,0,1,0,6,3,27,3,,,,,,,,,10135.070318769664,stop,circleblack.png,z,0.2,,,,,,,,,,,,,,,,,,0.0012685023248195648,0.49010366201400757,0.6903324835002422,10137.573044240475,,,,,,,10135.08887078613,10135.602779977024,10135.586094513535,10135.586094513535,10135.78630579263,10136.286679256707,10136.587362427264,10137.591224577278,None,1,,0.25,,,,,,,,,,,,s002,001,2024-04-10_15h44.48.023,simplestop_skeleton,2022.2.2,59.9277046758086,
None,None,,,,,,,,,1,0,1,0,7,0,28,3,,,,,,,,,10137.573350746185,stop,circleblack.png,z,0.25,,,,,,,,,,,,,,,,,,0.0012451298534870148,0.48834432289004326,0.7395388185977936,10140.075565021485,,,,,,,10137.591224577278,10138.104726735502,10138.087558567524,10138.087558567524,10138.338529590517,10138.839584302157,10139.089941002429,10140.094849709421,None,1,,0.3,,,,,,,,,,,,s002,001,2024-04-10_15h44.48.023,simplestop_skeleton,2022.2.2,59.9277046758086,
$currentCorrectResponse,$currentGoStim,,,,,,,,,1,0,1,0,7,1,29,0,,,,,,,,,10140.075881350785,go,squareblack.png,m,0.3,,,,,,,,,,,,,,,,,,0.001728210598230362,0.49009041860699654,0.7899747006595135,10142.578501529992,,,,,,,10140.094849709421,10140.60819402337,10140.59163318947,10140.59163318947,10140.891925614327,10141.391016896814,10141.592054832727,10142.59733043611,z,0,0.3626444935798645,0.3,,,,,,,,,,,,s002,001,2024-04-10_15h44.48.023,simplestop_skeleton,2022.2.2,59.9277046758086,
None,None,,,,,,,,,1,0,1,0,7,2,30,3,,,,,,,,,10142.578826472163,stop,squareblack.png,m,0.3,,,,,,,,,,,,,,,,,,0.00129622220993042,0.4897051751613617,0.791773896664381,10145.081561535597,,,,,,,10142.59733043611,10143.111494015902,10143.094453081489,10143.094453081489,10143.395031042397,10143.895257499069,10144.094251587987,10145.100953347981,m,0,0.4934379830956459,0.25,,,,,,,,,,,,s002,001,2024-04-10_15h44.48.023,simplestop_skeleton,2022.2.2,59.9277046758086,
None,None,,,,,,,,,1,0,1,0,7,3,31,3,,,,,,,,,10145.081882737577,go,circleblack.png,z,0.25,,,,,,,,,,,,,,,,,,0.0019062608480453491,0.4898206479847431,0.7398497425019741,10147.584462556988,,,,,,,10145.100953347981,10145.613850101829,10145.597436677665,10145.597436677665,10145.847475454211,10146.34648342058,10146.597667779773,10147.603180535138,z,0,0.41853708401322365,0.25,,,,,,,,,,,,s002,001,2024-04-10_15h44.48.023,simplestop_skeleton,2022.2.2,59.9277046758086,
$currentCorrectResponse,$currentGoStim,,,,,,,,,1,0,1,0,8,0,32,0,,,,,,,,,10147.584790058434,go,circleblack.png,z,0.25,,,,,,,,,,,,,,,,,,0.001368887722492218,0.48929034918546677,0.7397019304335117,10150.08681813255,,,,,,,10147.603180535138,10148.116730749607,10148.100007198751,10148.100007198751,10148.350062824786,10148.850971199572,10149.099541369826,10150.105772219598,z,0,0.6849364005029202,0.25,,,,,,,,,,,,s002,001,2024-04-10_15h44.48.023,simplestop_skeleton,2022.2.2,59.9277046758086,
None,None,,,,,,,,,1,0,1,0,8,1,33,3,,,,,,,,,10150.087122578174,go,circleblack.png,z,0.25,,,,,,,,,,,,,,,,,,0.0012578219175338745,0.49013347923755646,0.7399824112653732,10152.589428342879,,,,,,,10150.105772219598,10150.619392439723,10150.602826435119,10150.602826435119,10150.853016085923,10151.352069057524,10151.603272873908,10152.608810018748,z,0,0.4011642746627331,0.25,,,,,,,,,,,,s002,001,2024-04-10_15h44.48.023,simplestop_skeleton,2022.2.2,59.9277046758086,
None,None,,,,,,,,,1,0,1,0,8,2,34,1,,,,,,,,,10152.589734256268,go,squareblack.png,m,0.25,,,,,,,,,,,,,,,,,,0.0016547702252864838,0.489645853638649,0.7401010878384113,10155.09219424054,,,,,,,10152.608810018748,10153.122258491814,10153.105390425771,10153.105390425771,10153.355667173862,10153.856339074671,10154.10501281172,10155.110947284847,z,0,0.5178245007991791,0.25,,,,,,,,,,,,s002,001,2024-04-10_15h44.48.023,simplestop_skeleton,2022.2.2,59.9277046758086,
None,None,,,,,,,,,1,0,1,0,8,3,35,2,,,,,,,,,10155.092500641942,go,squareblack.png,m,0.25,,,,,,,,,,,,,,,,,,0.0012033656239509583,0.4898666441440582,0.7400427535176277,10157.595043648034,,,,,,,10155.110947284847,10155.62489309907,10155.608308330178,10155.608308330178,10155.858478978276,10156.35937396437,10156.607813462615,10157.614480562508,m,0,0.6238533966243267,0.25,,,,,,,,,,,,s002,001,2024-04-10_15h44.48.023,simplestop_skeleton,2022.2.2,59.9277046758086,
None,None,,,,,,,,,1,0,1,0,9,0,36,2,,,,,,,,,10157.595351882279,go,circleblack.png,z,0.25,,,,,,,,,,,,,,,,,,0.0018996335566043854,0.4884040206670761,0.7389675416052341,10160.097743652761,,,,,,,10157.614480562508,10158.12620221451,10158.109559565783,10158.109559565783,10158.360954754055,10158.861836016178,10159.112112943083,10160.11644590646,z,0,0.5394409596920013,0.25,,,,,,,,,,,,s002,001,2024-04-10_15h44.48.023,simplestop_skeleton,2022.2.2,59.9277046758086,
$currentCorrectResponse,$currentGoStim,,,,,,,,,1,0,1,0,9,1,37,0,,,,,,,,,10160.098049037158,stop,circleblack.png,z,0.25,,,,,,,,,,,,,,,,,,0.0013118870556354523,0.48977239429950714,0.7399486154317856,10162.60036406666,,,,,,,10160.11644590646,10160.630435325205,10160.613653007895,10160.613653007895,10160.863922875375,10161.364507574588,10161.614874534309,10162.619823325425,None,0,,0.3,,,,,,,,,,,,s002,001,2024-04-10_15h44.48.023,simplestop_skeleton,2022.2.2,59.9277046758086,
None,None,,,,,,,,,1,0,1,0,9,2,38,2,,,,,,,,,10162.600677836686,stop,circleblack.png,z,0.3,,,,,,,,,,,,,,,,,,0.0013178884983062744,0.48962797224521637,0.7900812700390816,10165.103388696909,,,,,,,10162.619823325425,10163.132946580648,10163.11641985178,10163.11641985178,10163.41674696654,10163.915810264647,10164.117400821298,10165.122514665127,z,0,0.32901671528816223,0.25,,,,,,,,,,,,s002,001,2024-04-10_15h44.48.023,simplestop_skeleton,2022.2.2,59.9277046758086,
None,None,,,,,,,,,1,0,1,0,9,3,39,3,,,,,,,,,10165.103708963841,go,squareblack.png,m,0.25,,,,,,,,,,,,,,,,,,0.001759607344865799,0.48973769322037697,0.7397874668240547,10167.606031879783,,,,,,,10165.122514665127,10165.635774184018,10165.619189061224,10165.619189061224,10165.869492881,10166.370702974498,10166.618769176304,10167.626332521439,m,0,0.6250392496585846,0.25,,,,,,,,,,,,s002,001,2024-04-10_15h44.48.023,simplestop_skeleton,2022.2.2,59.9277046758086,
$currentCorrectResponse,$currentGoStim,,,,,,,,,1,0,1,0,10,0,40,0,,,,,,,,,10167.606337592006,go,circleblack.png,z,0.25,,,,,,,,,,,,,,,,,,0.0017878040671348572,0.48975085467100143,0.7398359850049019,10170.108764331788,,,,,,,10167.626332521439,10168.139119569212,10168.122153956443,10168.122153956443,10168.372461717576,10168.872043602169,10169.123103220016,10170.12769883871,None,0,,0.25,,,,,,,,,,,,s002,001,2024-04-10_15h44.48.023,simplestop_skeleton,2022.2.2,59.9277046758086,
None,None,,,,,,,,,1,0,1,0,10,1,41,3,,,,,,,,,10170.109078578651,stop,squareblack.png,m,0.25,,,,,,,,,,,,,,,,,,0.0016658380627632141,0.48988495022058487,0.7400246113538742,10172.61195616424,,,,,,,10170.12769883871,10170.641365494579,10170.624759878963,10170.624759878963,10170.8751437217,10171.37558292225,10171.626312870532,10172.632170852274,z,0,0.8941489085555077,0.2,,,,,,,,,,,,s002,001,2024-04-10_15h44.48.023,simplestop_skeleton,2022.2.2,59.9277046758086,
None,None,,,,,,,,,1,0,1,0,10,2,42,1,,,,,,,,,10172.612269863486,go,squareblack.png,m,0.2,,,,,,,,,,,,,,,,,,0.0014302730560302734,0.48982004448771477,0.689593892544508,10175.114313989878,,,,,,,10172.632170852274,10173.144194815308,10173.12762086466,10173.12762086466,10173.327744789422,10173.826899517328,10174.128259878606,10175.132955234498,m,0,0.7164651416242123,0.2,,,,,,,,,,,,s002,001,2024-04-10_15h44.48.023,simplestop_skeleton,2022.2.2,59.9277046758086,
None,None,,,,,,,,,1,0,1,0,10,3,43,1,,,,,,,,,10175.114623337984,go,squareblack.png,m,0.2,,,,,,,,,,,,,,,,,,0.00125151127576828,0.4898292198777199,0.6899585910141468,10177.617550771683,,,,,,,10175.132955234498,10175.647379469126,10175.630494073033,10175.630494073033,10175.830373149365,10176.331079542637,10176.630825668573,10177.636309694499,m,0,0.41744301468133926,0.2,,,,,,,,,,,,s002,001,2024-04-10_15h44.48.023,simplestop_skeleton,2022.2.2,59.9277046758086,
None,None,,,,,,,,,1,0,1,0,11,0,44,1,,,,,,,,,10177.617854088545,go,squareblack.png,m,0.2,,,,,,,,,,,,,,,,,,0.0014913901686668396,0.4891807697713375,0.6895955726504326,10180.120031766593,,,,,,,10177.636309694499,10178.149553574622,10178.133071977645,10178.133071977645,10178.333249546587,10178.832323245704,10179.133407507092,10180.14558544755,m,0,0.4051681086421013,0.2,,,,,,,,,,,,s002,001,2024-04-10_15h44.48.023,simplestop_skeleton,2022.2.2,59.9277046758086,
None,None,,,,,,,,,1,0,1,0,11,1,45,2,,,,,,,,,10180.120336156338,go,circleblack.png,z,0.2,,,,,,,,,,,,,,,,,,0.008637629449367523,0.4895973764359951,0.6896375939249992,10182.622791878879,,,,,,,10180.14558544755,10180.65236915648,10180.635791461915,10180.635791461915,10180.83592716977,10181.334974814206,10181.6360854581,10182.641485258937,m,0,0.2570856250822544,0.2,,,,,,,,,,,,s002,001,2024-04-10_15h44.48.023,simplestop_skeleton,2022.2.2,59.9277046758086,
None,None,,,,,,,,,1,0,1,0,11,2,46,3,,,,,,,,,10182.623110443354,go,circleblack.png,z,0.2,,,,,,,,,,,,,,,,,,0.0013559237122535706,0.4898844547569752,0.690173152834177,10185.125337794423,,,,,,,10182.641485258937,10183.155346654356,10183.138741906732,10183.138741906732,10183.33901329711,10183.854538168758,10184.139046337456,10185.144369054586,z,0,0.3559989780187607,0.2,,,,,,,,,,,,s002,001,2024-04-10_15h44.48.023,simplestop_skeleton,2022.2.2,59.9277046758086,
None,None,,,,,,,,,1,0,1,0,11,3,47,1,,,,,,,,,10185.12565363571,stop,squareblack.png,m,0.2,,,,,,,,,,,,,,,,,,0.0016026310622692108,0.4898829609155655,0.6900318041443825,10187.628552440554,,,,,,,10185.144369054586,10185.658079680055,10185.64168066904,10185.64168066904,10185.841812416911,10186.341755218804,10186.642462346703,10187.649424023926,z,0,0.03424295783042908,0.15,,,,,,,,,,,,s002,001,2024-04-10_15h44.48.023,simplestop_skeleton,2022.2.2,59.9277046758086,
,,,,,,,,,,1,0,1,0,,,,,,,,,,,,,,,,,,,,,,,,,,,,,,,,,,,,,,,,,,,,,,,,,,,,,,,,,,10187.649424023926,10187.649424023926,return,7.456231843680143,"[{'fileName': 'circleblack.png', 'correct_response': 'z', 'condition': 'go'}, {'fileName': 'squareblack.png', 'correct_response': 'm', 'condition': 'go'}, {'fileName': 'circleblack.png', 'correct_response': 'z', 'condition': 'go'}, {'fileName': 'squareblack.png', 'correct_response': 'm', 'condition': 'go'}, {'fileName': 'circleblack.png', 'correct_response': 'z', 'condition': 'stop'}, {'fileName': 'squareblack.png', 'correct_response': 'm', 'condition': 'go'}, {'fileName': 'squareblack.png', 'correct_response': 'm', 'condition': 'stop'}, {'fileName': 'squareblack.png', 'correct_response': 'm', 'condition': 'go'}, {'fileName': 'squareblack.png', 'correct_response': 'm', 'condition': 'stop'}, {'fileName': 'circleblack.png', 'correct_response': 'z', 'condition': 'go'}, {'fileName': 'circleblack.png', 'correct_response': 'z', 'condition': 'go'}, {'fileName': 'circleblack.png', 'correct_response': 'z', 'condition': 'stop'}, {'fileName': 'circleblack.png', 'correct_response': 'z', 'condition': 'stop'}, {'fileName': 'squareblack.png', 'correct_response': 'm', 'condition': 'go'}, {'fileName': 'circleblack.png', 'correct_response': 'z', 'condition': 'stop'}, {'fileName': 'squareblack.png', 'correct_response': 'm', 'condition': 'stop'}, {'fileName': 'squareblack.png', 'correct_response': 'm', 'condition': 'go'}, {'fileName': 'squareblack.png', 'correct_response': 'm', 'condition': 'stop'}, {'fileName': 'circleblack.png', 'correct_response': 'z', 'condition': 'go'}, {'fileName': 'circleblack.png', 'correct_response': 'z', 'condition': 'go'}, {'fileName': 'squareblack.png', 'correct_response': 'm', 'condition': 'go'}, {'fileName': 'squareblack.png', 'correct_response': 'm', 'condition': 'go'}, {'fileName': 'circleblack.png', 'correct_response': 'z', 'condition': 'go'}, {'fileName': 'circleblack.png', 'correct_response': 'z', 'condition': 'go'}, {'fileName': 'circleblack.png', 'correct_response': 'z', 'condition': 'go'}, {'fileName': 'circleblack.png', 'correct_response': 'z', 'condition': 'go'}, {'fileName': 'squareblack.png', 'correct_response': 'm', 'condition': 'stop'}, {'fileName': 'circleblack.png', 'correct_response': 'z', 'condition': 'stop'}, {'fileName': 'circleblack.png', 'correct_response': 'z', 'condition': 'stop'}, {'fileName': 'circleblack.png', 'correct_response': 'z', 'condition': 'go'}, {'fileName': 'circleblack.png', 'correct_response': 'z', 'condition': 'go'}, {'fileName': 'squareblack.png', 'correct_response': 'm', 'condition': 'go'}, {'fileName': 'squareblack.png', 'correct_response': 'm', 'condition': 'go'}, {'fileName': 'squareblack.png', 'correct_response': 'm', 'condition': 'go'}, {'fileName': 'squareblack.png', 'correct_response': 'm', 'condition': 'stop'}, {'fileName': 'squareblack.png', 'correct_response': 'm', 'condition': 'go'}, {'fileName': 'squareblack.png', 'correct_response': 'm', 'condition': 'go'}, {'fileName': 'circleblack.png', 'correct_response': 'z', 'condition': 'go'}, {'fileName': 'circleblack.png', 'correct_response': 'z', 'condition': 'go'}, {'fileName': 'circleblack.png', 'correct_response': 'z', 'condition': 'go'}, {'fileName': 'squareblack.png', 'correct_response': 'm', 'condition': 'go'}, {'fileName': 'squareblack.png', 'correct_response': 'm', 'condition': 'go'}, {'fileName': 'squareblack.png', 'correct_response': 'm', 'condition': 'stop'}, {'fileName': 'circleblack.png', 'correct_response': 'z', 'condition': 'go'}, {'fileName': 'circleblack.png', 'correct_response': 'z', 'condition': 'stop'}, {'fileName': 'squareblack.png', 'correct_response': 'm', 'condition': 'go'}, {'fileName': 'squareblack.png', 'correct_response': 'm', 'condition': 'stop'}, {'fileName': 'circleblack.png', 'correct_response': 'z', 'condition': 'stop'}]",,,,,,s002,001,2024-04-10_15h44.48.023,simplestop_skeleton,2022.2.2,59.9277046758086,
None,None,,,,,,,,,2,0,2,0,0,0,0,3,,,,,,,,,10195.136400233954,go,circleblack.png,z,0.15,,,,,,,,,,,,,,,,,,0.0025078803300857544,0.48569535464048386,0.6343253068625927,10197.63943958655,,,,,,,10195.16264924407,10195.668323472142,10195.651965007186,10195.651965007186,10195.801872812212,10196.303160447627,10196.65358292684,10197.663698863238,z,0,0.5894844383001328,0.15,,,,,,,,,,,,s002,001,2024-04-10_15h44.48.023,simplestop_skeleton,2022.2.2,59.9277046758086,
None,None,,,,,,,,,2,0,2,0,0,1,1,2,,,,,,,,,10197.639763820916,go,squareblack.png,m,0.15,,,,,,,,,,,,,,,,,,0.007342509925365448,0.4896304979920387,0.6395434476435184,10200.14178764075,,,,,,,10197.663698863238,10198.17190991342,10198.155158385634,10198.155158385634,10198.305416774005,10198.805831704289,10199.155965395272,10200.161184642464,m,0,0.41800615563988686,0.15,,,,,,,,,,,,s002,001,2024-04-10_15h44.48.023,simplestop_skeleton,2022.2.2,59.9277046758086,
None,None,,,,,,,,,2,0,2,0,0,2,2,2,,,,,,,,,10200.142095163465,go,circleblack.png,z,0.15,,,,,,,,,,,,,,,,,,0.001925535500049591,0.49037474021315575,0.640007771551609,10202.644964061677,,,,,,,10200.161184642464,10200.67449875176,10200.658097736537,10200.658097736537,10200.808111470193,10201.308709722012,10201.658612959087,10202.663960710168,z,0,0.3886571675539017,0.15,,,,,,,,,,,,s002,001,2024-04-10_15h44.48.023,simplestop_skeleton,2022.2.2,59.9277046758086,
None,None,,,,,,,,,2,0,2,0,0,3,3,1,,,,,,,,,10202.645281873643,go,squareblack.png,m,0.15,,,,,,,,,,,,,,,,,,0.0016923770308494568,0.489401213824749,0.6398759856820107,10205.147666815668,,,,,,,10202.663960710168,10203.177264608443,10203.160835761577,10203.160835761577,10203.31088014692,10203.809998191893,10204.161406934261,10205.167025726289,m,0,0.3587591089308262,0.15,,,,,,,,,,,,s002,001,2024-04-10_15h44.48.023,simplestop_skeleton,2022.2.2,59.9277046758086,
None,None,,,,,,,,,2,0,2,0,1,0,4,1,,,,,,,,,10205.147984974086,stop,circleblack.png,z,0.15,,,,,,,,,,,,,,,,,,0.001965586096048355,0.4883129671216011,0.6398478671908379,10207.650167793036,,,,,,,10205.167025726289,10205.67870625481,10205.662018418312,10205.662018418312,10205.813311073929,10206.314112130553,10206.664483841509,10207.67089420557,None,1,,0.2,,,,,,,,,,,,s002,001,2024-04-10_15h44.48.023,simplestop_skeleton,2022.2.2,59.9277046758086,
None,None,,,,,,,,,2,0,2,0,1,1,5,2,,,,,,,,,10207.650481890887,go,squareblack.png,m,0.2,,,,,,,,,,,,,,,,,,0.0024856291711330414,0.4889763072133064,0.6894602254033089,10210.152903191745,,,,,,,10207.67089420557,10208.183102928102,10208.166278652847,10208.166278652847,10208.36645726487,10208.86693264544,10209.165812976658,10210.171890441328,m,0,0.4010068029165268,0.2,,,,,,,,,,,,s002,001,2024-04-10_15h44.48.023,simplestop_skeleton,2022.2.2,59.9277046758086,
None,None,,,,,,,,,2,0,2,0,1,2,6,2,,,,,,,,,10210.153205316514,stop,squareblack.png,m,0.2,,,,,,,,,,,,,,,,,,0.0013720542192459106,0.4900512956082821,0.6899221800267696,10212.655675083399,,,,,,,10210.171890441328,10210.685604017228,10210.668945007026,10210.668945007026,10210.869140833616,10211.370115704834,10211.668674498796,10212.674524329603,None,1,,0.25,,,,,,,,,,,,s002,001,2024-04-10_15h44.48.023,simplestop_skeleton,2022.2.2,59.9277046758086,
None,None,,,,,,,,,2,0,2,0,1,3,7,3,,,,,,,,,10212.655979823321,go,squareblack.png,m,0.25,,,,,,,,,,,,,,,,,,0.0012080147862434387,0.4897412061691284,0.7399886809289455,10215.158699922264,,,,,,,10212.674524329603,10213.188335645944,10213.17173524201,10213.17173524201,10213.421857848763,10213.921084407717,10214.172003198415,10215.177338391542,z,0,0.292241882532835,0.25,,,,,,,,,,,,s002,001,2024-04-10_15h44.48.023,simplestop_skeleton,2022.2.2,59.9277046758086,
$currentCorrectResponse,$currentGoStim,,,,,,,,,2,0,2,0,2,0,8,0,,,,,,,,,10215.159021358937,stop,squareblack.png,m,0.25,,,,,,,,,,,,,,,,,,0.0012973248958587646,0.4894823767244816,0.7401637583971024,10217.661117795855,,,,,,,10215.177338391542,10215.69119123742,10215.67443491891,10215.67443491891,10215.924781281501,10216.426346495748,10216.674871951342,10217.686483535916,None,0,,0.3,,,,,,,,,,,,s002,001,2024-04-10_15h44.48.023,simplestop_skeleton,2022.2.2,59.9277046758086,
None,None,,,,,,,,,2,0,2,0,2,1,9,1,,,,,,,,,10217.661427225918,go,circleblack.png,z,0.3,,,,,,,,,,,,,,,,,,0.008569370955228806,0.4898328222334385,0.7901746332645416,10220.164269536734,,,,,,,10217.686483535916,10218.193927325308,10218.177521340549,10218.177521340549,10218.47753445059,10218.977864783257,10219.178363442421,10220.18330931291,z,0,1.780554722994566,0.3,,,,,,,,,,,,s002,001,2024-04-10_15h44.48.023,simplestop_skeleton,2022.2.2,59.9277046758086,
None,None,,,,,,,,,2,0,2,0,2,2,10,2,,,,,,,,,10220.164584290236,go,circleblack.png,z,0.3,,,,,,,,,,,,,,,,,,0.0014205873012542725,0.4897259622812271,0.7907111197710037,10222.66688004136,,,,,,,10220.18330931291,10220.696642741561,10220.67996893078,10220.67996893078,10220.980876725167,10221.496440272778,10221.68057186529,10222.685670264065,None,1,,0.3,,,,,,,,,,,,s002,001,2024-04-10_15h44.48.023,simplestop_skeleton,2022.2.2,59.9277046758086,
None,None,,,,,,,,,2,0,2,0,2,3,11,3,,,,,,,,,10222.667185608298,stop,circleblack.png,z,0.3,,,,,,,,,,,,,,,,,,0.001366347074508667,0.490116648375988,0.7901078909635544,10225.170355089009,,,,,,,10222.685670264065,10223.199330922216,10223.182848934084,10223.182848934084,10223.483131814748,10223.983607575297,10224.183869190514,10225.194984540343,z,0,0.11913122236728668,0.25,,,,,,,,,,,,s002,001,2024-04-10_15h44.48.023,simplestop_skeleton,2022.2.2,59.9277046758086,
$currentCorrectResponse,$currentGoStim,,,,,,,,,2,0,2,0,3,0,12,0,,,,,,,,,10225.170668695122,stop,circleblack.png,z,0.25,,,,,,,,,,,,,,,,,,0.0016650035977363586,0.4890410639345646,0.7394053637981415,10227.672277729958,,,,,,,10225.194984540343,10225.70235697925,10225.68637143448,10225.68637143448,10225.936273869127,10226.435678392649,10226.686774760485,10227.696584042162,None,0,,0.3,,,,,,,,,,,,s002,001,2024-04-10_15h44.48.023,simplestop_skeleton,2022.2.2,59.9277046758086,
None,None,,,,,,,,,2,0,2,0,3,1,13,3,,,,,,,,,10227.672580711544,go,squareblack.png,m,0.3,,,,,,,,,,,,,,,,,,0.0075183287262916565,0.4897770397365093,0.7902657799422741,10230.175027802587,,,,,,,10227.696584042162,10228.20491776988,10228.18819290027,10228.18819290027,10228.488705102354,10228.989167496562,10229.187909148633,10230.19406947121,m,0,0.5345079004764557,0.3,,,,,,,,,,,,s002,001,2024-04-10_15h44.48.023,simplestop_skeleton,2022.2.2,59.9277046758086,
None,None,,,,,,,,,2,0,2,0,3,2,14,2,,,,,,,,,10230.175343435258,stop,circleblack.png,z,0.3,,,,,,,,,,,,,,,,,,0.0017573945224285126,0.4902582876384258,0.7902325056493282,10232.677966218442,,,,,,,10230.19406947121,10230.707694038749,10230.691247601062,10230.691247601062,10230.991382207721,10231.491981983185,10231.69244114682,10232.697013985366,None,1,,0.35,,,,,,,,,,,,s002,001,2024-04-10_15h44.48.023,simplestop_skeleton,2022.2.2,59.9277046758086,
None,None,,,,,,,,,2,0,2,0,3,3,15,2,,,,,,,,,10232.67828174308,stop,squareblack.png,m,0.35,,,,,,,,,,,,,,,,,,0.0015954971313476562,0.4897010587155819,0.8399772010743618,10235.180452596396,,,,,,,10232.697013985366,10233.210546698421,10233.19360389933,10233.19360389933,10233.544075790793,10234.044647615403,10234.194901641458,10235.199346728623,None,1,,0.4,,,,,,,,,,,,s002,001,2024-04-10_15h44.48.023,simplestop_skeleton,2022.2.2,59.9277046758086,
None,None,,,,,,,,,2,0,2,0,4,0,16,3,,,,,,,,,10235.180775150657,go,squareblack.png,m,0.4,,,,,,,,,,,,,,,,,,0.0012904740869998932,0.48997189477086067,0.889763992279768,10237.683499250561,,,,,,,10235.199346728623,10235.713372603059,10235.696702107787,10235.696702107787,10236.096399206668,10236.597412180156,10236.697758078575,10237.702352751046,m,0,0.6593398824334145,0.4,,,,,,,,,,,,s002,001,2024-04-10_15h44.48.023,simplestop_skeleton,2022.2.2,59.9277046758086,
$currentCorrectResponse,$currentGoStim,,,,,,,,,2,0,2,0,4,1,17,0,,,,,,,,,10237.683816023171,stop,squareblack.png,m,0.4,,,,,,,,,,,,,,,,,,0.0013421066105365753,0.48942601308226585,0.8900236636400223,10240.185879394412,,,,,,,10237.702352751046,10238.215925935656,10238.19937697798,10238.19937697798,10238.599624764174,10239.09881556034,10239.199154678732,10240.211593728513,m,0,0.47288960963487625,0.35,,,,,,,,,,,,s002,001,2024-04-10_15h44.48.023,simplestop_skeleton,2022.2.2,59.9277046758086,
None,None,,,,,,,,,2,0,2,0,4,2,18,1,,,,,,,,,10240.186183556914,go,circleblack.png,z,0.35,,,,,,,,,,,,,,,,,,0.007937844842672348,0.48895521834492683,0.8381953835487366,10242.68895399198,,,,,,,10240.211593728513,10240.718698777258,10240.702131420374,10240.702131420374,10241.05127202347,10241.552824210376,10241.70318313688,10242.708137061447,None,1,,0.35,,,,,,,,,,,,s002,001,2024-04-10_15h44.48.023,simplestop_skeleton,2022.2.2,59.9277046758086,
None,None,,,,,,,,,2,0,2,0,4,3,19,3,,,,,,,,,10242.689259450883,go,circleblack.png,z,0.35,,,,,,,,,,,,,,,,,,0.0014417655766010284,0.48957452550530434,0.8388345278799534,10245.191412828863,,,,,,,10242.708137061447,10243.22165889293,10243.204858515412,10243.204858515412,10243.55398869142,10244.05582934618,10244.206186905503,10245.210788656026,None,1,,0.35,,,,,,,,,,,,s002,001,2024-04-10_15h44.48.023,simplestop_skeleton,2022.2.2,59.9277046758086,
None,None,,,,,,,,,2,0,2,0,5,0,20,1,,,,,,,,,10245.191733982414,go,squareblack.png,m,0.35,,,,,,,,,,,,,,,,,,0.0017149150371551514,0.48989658430218697,0.8400594778358936,10247.694411553442,,,,,,,10245.210788656026,10245.724243339151,10245.707554358989,10245.707554358989,10246.057616777718,10246.558346748352,10246.708625141531,10247.71471408382,m,0,0.44413087517023087,0.35,,,,,,,,,,,,s002,001,2024-04-10_15h44.48.023,simplestop_skeleton,2022.2.2,59.9277046758086,
$currentCorrectResponse,$currentGoStim,,,,,,,,,2,0,2,0,5,1,21,0,,,,,,,,,10247.694721110165,go,squareblack.png,m,0.35,,,,,,,,,,,,,,,,,,0.0012834742665290833,0.4894407279789448,0.8400253467261791,10250.197268847376,,,,,,,10247.71471408382,10248.227090407163,10248.210419196635,10248.210419196635,10248.560716107488,10249.06008739397,10249.210744094104,10250.217165809125,m,0,0.6516740806400776,0.35,,,,,,,,,,,,s002,001,2024-04-10_15h44.48.023,simplestop_skeleton,2022.2.2,59.9277046758086,
None,None,,,,,,,,,2,0,2,0,5,2,22,2,,,,,,,,,10250.19758741185,go,circleblack.png,z,0.35,,,,,,,,,,,,,,,,,,0.002078309655189514,0.4899235740303993,0.8398988172411919,10252.700157046318,,,,,,,10250.217165809125,10250.729807280004,10250.71316151321,10250.71316151321,10251.063689347357,10251.564281191677,10251.714119061828,10252.719043370336,None,1,,0.35,,,,,,,,,,,,s002,001,2024-04-10_15h44.48.023,simplestop_skeleton,2022.2.2,59.9277046758086,
None,None,,,,,,,,,2,0,2,0,5,3,23,2,,,,,,,,,10252.700465530157,go,circleblack.png,z,0.35,,,,,,,,,,,,,,,,,,0.0014768093824386597,0.48958149552345276,0.8398340903222561,10255.202582456172,,,,,,,10252.719043370336,10253.232346966863,10253.215840939432,10253.215840939432,10253.566242210567,10254.066845368594,10254.215432651341,10255.221121389419,None,1,,0.35,,,,,,,,,,,,s002,001,2024-04-10_15h44.48.023,simplestop_skeleton,2022.2.2,59.9277046758086,
None,None,,,,,,,,,2,0,2,0,6,0,24,3,,,,,,,,,10255.202909898013,go,circleblack.png,z,0.35,,,,,,,,,,,,,,,,,,0.0012442432343959808,0.48993822932243347,0.8403605222702026,10257.70548839122,,,,,,,10255.221121389419,10255.735285323113,10255.718653798103,10255.718653798103,10256.06893659383,10256.56824855879,10256.718222685158,10257.724181424826,z,0,0.5531980097293854,0.35,,,,,,,,,,,,s002,001,2024-04-10_15h44.48.023,simplestop_skeleton,2022.2.2,59.9277046758086,
None,None,,,,,,,,,2,0,2,0,6,1,25,1,,,,,,,,,10257.705806154758,go,circleblack.png,z,0.35,,,,,,,,,,,,,,,,,,0.001380927860736847,0.48986880853772163,0.8400852605700493,10260.208580169827,,,,,,,10257.724181424826,10258.238075237721,10258.221541326493,10258.221541326493,10258.572015918791,10259.087686467916,10259.222030445933,10260.233176048845,z,0,0.38943737000226974,0.35,,,,,,,,,,,,s002,001,2024-04-10_15h44.48.023,simplestop_skeleton,2022.2.2,59.9277046758086,
$currentCorrectResponse,$currentGoStim,,,,,,,,,2,0,2,0,6,2,26,0,,,,,,,,,10260.208910256624,stop,squareblack.png,m,0.35,,,,,,,,,,,,,,,,,,0.00781647115945816,0.4893629103899002,0.8392108008265495,10262.71130522713,,,,,,,10260.233176048845,10260.739562634379,10260.724149998277,10260.724149998277,10261.074320234358,10261.575238440186,10261.72546972707,10262.73076748848,m,0,0.4674178808927536,0.3,,,,,,,,,,,,s002,001,2024-04-10_15h44.48.023,simplestop_skeleton,2022.2.2,59.9277046758086,
None,None,,,,,,,,,2,0,2,0,6,3,27,3,,,,,,,,,10262.711612895131,stop,circleblack.png,z,0.3,,,,,,,,,,,,,,,,,,0.0019890516996383667,0.4891803413629532,0.7897241413593292,10265.2135970667,,,,,,,10262.73076748848,10263.243360474706,10263.227047618479,10263.227047618479,10263.527309466153,10264.027702964842,10264.22828893736,10265.234627816826,z,0,1.3257680982351303,0.25,,,,,,,,,,,,s002,001,2024-04-10_15h44.48.023,simplestop_skeleton,2022.2.2,59.9277046758086,
None,None,,,,,,,,,2,0,2,0,7,0,28,3,,,,,,,,,10265.21392000094,stop,circleblack.png,z,0.25,,,,,,,,,,,,,,,,,,0.0015161074697971344,0.4891666769981384,0.7394457645714283,10267.716541472822,,,,,,,10265.234627816826,10265.746322546154,10265.729601211846,10265.729601211846,10265.979968875647,10266.478937190026,10266.730384405702,10267.73545359075,None,1,,0.3,,,,,,,,,,,,s002,001,2024-04-10_15h44.48.023,simplestop_skeleton,2022.2.2,59.9277046758086,
$currentCorrectResponse,$currentGoStim,,,,,,,,,2,0,2,0,7,1,29,0,,,,,,,,,10267.716848369688,go,circleblack.png,z,0.3,,,,,,,,,,,,,,,,,,0.0013696737587451935,0.48990320786833763,0.7900278642773628,10270.219164080918,,,,,,,10267.73545359075,10268.249261453748,10268.232419282198,10268.232419282198,10268.532805439085,10269.033202439547,10269.233238130808,10270.238114148378,z,0,0.12765371799468994,0.3,,,,,,,,,,,,s002,001,2024-04-10_15h44.48.023,simplestop_skeleton,2022.2.2,59.9277046758086,
$currentCorrectResponse,$currentGoStim,,,,,,,,,2,0,2,0,7,2,30,0,,,,,,,,,10270.219467230141,go,circleblack.png,z,0.3,,,,,,,,,,,,,,,,,,0.001252438873052597,0.49013279005885124,0.7903620675206184,10272.722215510905,,,,,,,10270.238114148378,10270.752037394792,10270.735292036086,10270.735292036086,10271.03560142219,10271.534687969834,10271.73601159826,10272.746103361249,z,0,0.37226711213588715,0.3,,,,,,,,,,,,s002,001,2024-04-10_15h44.48.023,simplestop_skeleton,2022.2.2,59.9277046758086,
None,None,,,,,,,,,2,0,2,0,7,3,31,1,,,,,,,,,10272.722549762577,go,squareblack.png,m,0.3,,,,,,,,,,,,,,,,,,0.007229901850223541,0.4898579567670822,0.7899637706577778,10275.225118592381,,,,,,,10272.746103361249,10273.254667837173,10273.237995117903,10273.237995117903,10273.538413524628,10274.0540955998,10274.238696005195,10275.243969969451,m,0,0.5419809930026531,0.3,,,,,,,,,,,,s002,001,2024-04-10_15h44.48.023,simplestop_skeleton,2022.2.2,59.9277046758086,
None,None,,,,,,,,,2,0,2,0,8,0,32,1,,,,,,,,,10275.225421197712,go,squareblack.png,m,0.3,,,,,,,,,,,,,,,,,,0.0013192184269428253,0.48968859389424324,0.790038526058197,10277.727790731937,,,,,,,10275.243969969451,10275.75745408982,10275.740916814655,10275.740916814655,10276.04099052772,10276.540563646704,10276.741479743272,10277.746944557875,m,0,1.1516876854002476,0.3,,,,,,,,,,,,s002,001,2024-04-10_15h44.48.023,simplestop_skeleton,2022.2.2,59.9277046758086,
None,None,,,,,,,,,2,0,2,0,8,1,33,2,,,,,,,,,10277.72809267044,go,squareblack.png,m,0.3,,,,,,,,,,,,,,,,,,0.0013655126094818115,0.4896794594824314,0.7899788245558739,10280.22871043533,,,,,,,10277.746944557875,10278.260215841234,10278.243537172675,10278.243537172675,10278.543915703893,10279.044362954795,10279.244896035641,10280.245609033853,None,1,,0.3,,,,,,,,,,,,s002,001,2024-04-10_15h44.48.023,simplestop_skeleton,2022.2.2,59.9277046758086,
$currentCorrectResponse,$currentGoStim,,,,,,,,,2,0,2,0,8,2,34,0,,,,,,,,,10280.22904381901,stop,squareblack.png,m,0.3,,,,,,,,,,,,,,,,,,0.0011677853763103485,0.4899497851729393,0.7914622761309147,10282.733056761324,,,,,,,10280.245609033853,10280.744935054332,10280.744935054332,10280.744935054332,10281.045836955309,10281.547132790089,10281.747600696981,10282.752221807837,m,0,0.42300861701369286,0.25,,,,,,,,,,,,s002,001,2024-04-10_15h44.48.023,simplestop_skeleton,2022.2.2,59.9277046758086,
$currentCorrectResponse,$currentGoStim,,,,,,,,,2,0,2,0,8,3,35,0,,,,,,,,,10282.733362030238,go,squareblack.png,m,0.25,,,,,,,,,,,,,,,,,,0.0013308040797710419,0.4895092062652111,0.7396863363683224,10285.23577374965,,,,,,,10282.752221807837,10283.26594689861,10283.249194726348,10283.249194726348,10283.499299425632,10283.999873816967,10284.248887583613,10285.254120357335,z,0,0.3884502314031124,0.25,,,,,,,,,,,,s002,001,2024-04-10_15h44.48.023,simplestop_skeleton,2022.2.2,59.9277046758086,
$currentCorrectResponse,$currentGoStim,,,,,,,,,2,0,2,0,9,0,36,0,,,,,,,,,10285.236079152673,go,squareblack.png,m,0.25,,,,,,,,,,,,,,,,,,0.0012516193091869354,0.4901406317949295,0.7399940155446529,10287.738485708833,,,,,,,10285.254120357335,10285.768201027066,10285.751776233315,10285.751776233315,10286.002023547888,10286.502617411315,10286.751305021346,10287.76026334241,m,0,0.5561062209308147,0.25,,,,,,,,,,,,s002,001,2024-04-10_15h44.48.023,simplestop_skeleton,2022.2.2,59.9277046758086,
None,None,,,,,,,,,2,0,2,0,9,1,37,3,,,,,,,,,10287.738794129342,go,circleblack.png,z,0.25,,,,,,,,,,,,,,,,,,0.005021475255489349,0.48986683413386345,0.7402033470571041,10290.241353075951,,,,,,,10287.76026334241,10288.27119306475,10288.254507895559,10288.254507895559,10288.504821680486,10289.005452852696,10289.254925772548,10290.260285668075,z,0,0.4005172327160835,0.25,,,,,,,,,,,,s002,001,2024-04-10_15h44.48.023,simplestop_skeleton,2022.2.2,59.9277046758086,
None,None,,,,,,,,,2,0,2,0,9,2,38,1,,,,,,,,,10290.241692792624,go,circleblack.png,z,0.25,,,,,,,,,,,,,,,,,,0.0013816989958286285,0.4895599000155926,0.739812009036541,10292.744100343436,,,,,,,10290.260285668075,10290.774030972272,10290.757551480085,10290.757551480085,10291.007863715291,10291.523403961211,10291.757754169405,10292.763072114438,z,0,0.40114108473062515,0.25,,,,,,,,,,,,s002,001,2024-04-10_15h44.48.023,simplestop_skeleton,2022.2.2,59.9277046758086,
None,None,,,,,,,,,2,0,2,0,9,3,39,2,,,,,,,,,10292.744420453906,go,circleblack.png,z,0.25,,,,,,,,,,,,,,,,,,0.0013692677021026611,0.48963765427470207,0.7400728799402714,10295.246802903712,,,,,,,10292.763072114438,10293.276919081807,10293.260185077786,10293.260185077786,10293.510340612382,10294.00941748172,10294.260779019445,10295.266071010381,None,1,,0.25,,,,,,,,,,,,s002,001,2024-04-10_15h44.48.023,simplestop_skeleton,2022.2.2,59.9277046758086,
None,None,,,,,,,,,2,0,2,0,10,0,40,3,,,,,,,,,10295.247145451605,go,squareblack.png,m,0.25,,,,,,,,,,,,,,,,,,0.0017627179622650146,0.49005912616848946,0.7400970868766308,10297.749631613493,,,,,,,10295.266071010381,10295.779412567616,10295.76292282343,10295.76292282343,10296.013284247369,10296.513828512281,10296.762461699545,10297.768284730613,m,0,0.4910900928080082,0.25,,,,,,,,,,,,s002,001,2024-04-10_15h44.48.023,simplestop_skeleton,2022.2.2,59.9277046758086,
$currentCorrectResponse,$currentGoStim,,,,,,,,,2,0,2,0,10,1,41,0,,,,,,,,,10297.749941624701,go,squareblack.png,m,0.25,,,,,,,,,,,,,,,,,,0.0011762343347072601,0.4896591901779175,0.7398612014949322,10300.252393350005,,,,,,,10297.768284730613,10298.282435055822,10298.265459351242,10298.265459351242,10298.51594370231,10299.016573164612,10299.265226528049,10300.271001689136,m,0,0.5607586726546288,0.25,,,,,,,,,,,,s002,001,2024-04-10_15h44.48.023,simplestop_skeleton,2022.2.2,59.9277046758086,
$currentCorrectResponse,$currentGoStim,,,,,,,,,2,0,2,0,10,2,42,0,,,,,,,,,10300.25271415338,stop,squareblack.png,m,0.25,,,,,,,,,,,,,,,,,,0.0011904537677764893,0.489837471395731,0.7400293052196503,10302.755239639431,,,,,,,10300.271001689136,10300.785170897841,10300.768336184323,10300.768336184323,10301.018701203167,10301.519219417125,10301.768333382905,10302.77469098568,m,0,0.46463317796587944,0.2,,,,,,,,,,,,s002,001,2024-04-10_15h44.48.023,simplestop_skeleton,2022.2.2,59.9277046758086,
None,None,,,,,,,,,2,0,2,0,10,3,43,3,,,,,,,,,10302.755558270961,go,circleblack.png,z,0.2,,,,,,,,,,,,,,,,,,0.0019608065485954285,0.489669319242239,0.6900948770344257,10305.257734473795,,,,,,,10302.77469098568,10303.287888024002,10303.271063003689,10303.271063003689,10303.47135803476,10303.97045108676,10304.27177112177,10305.276580996811,z,0,0.3847997188568115,0.2,,,,,,,,,,,,s002,001,2024-04-10_15h44.48.023,simplestop_skeleton,2022.2.2,59.9277046758086,
None,None,,,,,,,,,2,0,2,0,11,0,44,1,,,,,,,,,10305.258039616048,stop,circleblack.png,z,0.2,,,,,,,,,,,,,,,,,,0.0013150796294212341,0.4899996444582939,0.6900476850569248,10307.76063016802,,,,,,,10305.276580996811,10305.790458984673,10305.774060573429,10305.774060573429,10305.974161714315,10306.474543783814,10306.774666104466,10307.78105288744,z,0,0.3409216068685055,0.15,,,,,,,,,,,,s002,001,2024-04-10_15h44.48.023,simplestop_skeleton,2022.2.2,59.9277046758086,
None,None,,,,,,,,,2,0,2,0,11,1,45,1,,,,,,,,,10307.760947152972,go,squareblack.png,m,0.15,,,,,,,,,,,,,,,,,,0.0025144144892692566,0.4890628792345524,0.6392859593033791,10310.263258997351,,,,,,,10307.78105288744,10308.293431576341,10308.276665769517,10308.276665769517,10308.426793452352,10308.927335441113,10309.277643062174,10310.281857285649,m,0,0.7594097815454006,0.15,,,,,,,,,,,,s002,001,2024-04-10_15h44.48.023,simplestop_skeleton,2022.2.2,59.9277046758086,
None,None,,,,,,,,,2,0,2,0,11,2,46,1,,,,,,,,,10310.263595685363,stop,squareblack.png,m,0.15,,,,,,,,,,,,,,,,,,0.0011835023760795593,0.4901603162288666,0.640169408172369,10312.76611065492,,,,,,,10310.281857285649,10310.796186242253,10310.779412977397,10310.779412977397,10310.929455179721,10311.430106755346,10311.779454093426,10312.785382989794,m,0,0.44320380315184593,0.1,,,,,,,,,,,,s002,001,2024-04-10_15h44.48.023,simplestop_skeleton,2022.2.2,59.9277046758086,
None,None,,,,,,,,,2,0,2,0,11,3,47,2,,,,,,,,,10312.766494620591,stop,circleblack.png,z,0.1,,,,,,,,,,,,,,,,,,0.0018431730568408966,0.4897618144750595,0.58970732614398,10315.269029889256,,,,,,,10312.785382989794,10313.29907014966,10313.282314032316,10313.282314032316,10313.382610339671,10313.8828250207,10314.283427577466,10315.284437201917,None,1,,0.15,,,,,,,,,,,,s002,001,2024-04-10_15h44.48.023,simplestop_skeleton,2022.2.2,59.9277046758086,
