corrGoResp,shape,practiceBlocks.thisRepN,practiceBlocks.thisTrialN,practiceBlocks.thisN,practiceBlocks.thisIndex,practiceTrials.thisRepN,practiceTrials.thisTrialN,practiceTrials.thisN,practiceTrials.thisIndex,stopBlocks.thisRepN,stopBlocks.thisTrialN,stopBlocks.thisN,stopBlocks.thisIndex,testTrials.thisRepN,testTrials.thisTrialN,testTrials.thisN,testTrials.thisIndex,stopPracTrialList,Test Block: 1,welcome.started,start_exp.started,start_exp.keys,start_exp.rt,instrStopText.started,start_prac.started,StartTrialTimeStamp,trialType,goStim,correctResponse,ssd,fixation.started,rules.started,goStim.started,goResp.started,fixation.stopped,stopSignal.started,stopSignal.stopped,goStim.stopped,goResp.stopped,rules.stopped,goResp.keys,goResp.corr,text.started,rules_2.started,text.stopped,rules_2.stopped,fixationOnset,goStimOnset,stopSignalOnset,EndTrialTimeStamp,Phase,Block,goResp.rt,text_5.started,key_resp_3.started,key_resp_3.keys,key_resp_3.rt,key_resp.started,testText.started,test_fixation.started,goStim_test.started,goResp_test.started,test_fixation.stopped,stopSignal_test.started,stopSignal_test.stopped,goStim_test.stopped,goResp_test.stopped,goResp_test.keys,goResp_test.corr,EndingSSD,goResp_test.rt,text_6.started,key_resp_4.started,key_resp_4.keys,key_resp_4.rt,Test Block: 2,Test Block: 3,ending_text.started,end_resp.started,end_resp.keys,end_resp.rt,participant,session,date,expName,psychopyVersion,frameRate,
,,,,,,,,,,,,,,,,,,"[{'fileName': 'circleblack.png', 'correct_response': 'left', 'condition': 'stop'}, {'fileName': 'squareblack.png', 'correct_response': 'right', 'condition': 'stop'}, {'fileName': 'squareblack.png', 'correct_response': 'right', 'condition': 'go'}, {'fileName': 'circleblack.png', 'correct_response': 'left', 'condition': 'go'}, {'fileName': 'squareblack.png', 'correct_response': 'right', 'condition': 'go'}, {'fileName': 'squareblack.png', 'correct_response': 'right', 'condition': 'go'}, {'fileName': 'squareblack.png', 'correct_response': 'right', 'condition': 'stop'}, {'fileName': 'circleblack.png', 'correct_response': 'left', 'condition': 'go'}, {'fileName': 'circleblack.png', 'correct_response': 'left', 'condition': 'go'}, {'fileName': 'squareblack.png', 'correct_response': 'right', 'condition': 'go'}, {'fileName': 'circleblack.png', 'correct_response': 'left', 'condition': 'go'}, {'fileName': 'circleblack.png', 'correct_response': 'left', 'condition': 'stop'}, {'fileName': 'squareblack.png', 'correct_response': 'right', 'condition': 'stop'}, {'fileName': 'circleblack.png', 'correct_response': 'left', 'condition': 'stop'}, {'fileName': 'squareblack.png', 'correct_response': 'right', 'condition': 'go'}, {'fileName': 'squareblack.png', 'correct_response': 'right', 'condition': 'stop'}, {'fileName': 'squareblack.png', 'correct_response': 'right', 'condition': 'go'}, {'fileName': 'circleblack.png', 'correct_response': 'left', 'condition': 'go'}, {'fileName': 'circleblack.png', 'correct_response': 'left', 'condition': 'stop'}, {'fileName': 'circleblack.png', 'correct_response': 'left', 'condition': 'go'}, {'fileName': 'squareblack.png', 'correct_response': 'right', 'condition': 'go'}, {'fileName': 'circleblack.png', 'correct_response': 'left', 'condition': 'go'}, {'fileName': 'squareblack.png', 'correct_response': 'right', 'condition': 'go'}, {'fileName': 'circleblack.png', 'correct_response': 'left', 'condition': 'go'}]","[{'fileName': 'circleblack.png', 'correct_response': 'left', 'condition': 'stop'}, {'fileName': 'circleblack.png', 'correct_response': 'left', 'condition': 'stop'}, {'fileName': 'circleblack.png', 'correct_response': 'left', 'condition': 'go'}, {'fileName': 'squareblack.png', 'correct_response': 'right', 'condition': 'go'}, {'fileName': 'squareblack.png', 'correct_response': 'right', 'condition': 'go'}, {'fileName': 'circleblack.png', 'correct_response': 'left', 'condition': 'go'}, {'fileName': 'circleblack.png', 'correct_response': 'left', 'condition': 'go'}, {'fileName': 'squareblack.png', 'correct_response': 'right', 'condition': 'stop'}, {'fileName': 'squareblack.png', 'correct_response': 'right', 'condition': 'go'}, {'fileName': 'circleblack.png', 'correct_response': 'left', 'condition': 'go'}, {'fileName': 'squareblack.png', 'correct_response': 'right', 'condition': 'go'}, {'fileName': 'squareblack.png', 'correct_response': 'right', 'condition': 'stop'}, {'fileName': 'squareblack.png', 'correct_response': 'right', 'condition': 'go'}, {'fileName': 'circleblack.png', 'correct_response': 'left', 'condition': 'stop'}, {'fileName': 'squareblack.png', 'correct_response': 'right', 'condition': 'go'}, {'fileName': 'circleblack.png', 'correct_response': 'left', 'condition': 'go'}, {'fileName': 'squareblack.png', 'correct_response': 'right', 'condition': 'go'}, {'fileName': 'circleblack.png', 'correct_response': 'left', 'condition': 'go'}, {'fileName': 'circleblack.png', 'correct_response': 'left', 'condition': 'go'}, {'fileName': 'squareblack.png', 'correct_response': 'right', 'condition': 'stop'}, {'fileName': 'circleblack.png', 'correct_response': 'left', 'condition': 'go'}, {'fileName': 'circleblack.png', 'correct_response': 'left', 'condition': 'stop'}, {'fileName': 'squareblack.png', 'correct_response': 'right', 'condition': 'stop'}, {'fileName': 'squareblack.png', 'correct_response': 'right', 'condition': 'go'}, {'fileName': 'circleblack.png', 'correct_response': 'left', 'condition': 'go'}, {'fileName': 'circleblack.png', 'correct_response': 'left', 'condition': 'stop'}, {'fileName': 'squareblack.png', 'correct_response': 'right', 'condition': 'stop'}, {'fileName': 'squareblack.png', 'correct_response': 'right', 'condition': 'go'}, {'fileName': 'circleblack.png', 'correct_response': 'left', 'condition': 'go'}, {'fileName': 'squareblack.png', 'correct_response': 'right', 'condition': 'go'}, {'fileName': 'circleblack.png', 'correct_response': 'left', 'condition': 'go'}, {'fileName': 'circleblack.png', 'correct_response': 'left', 'condition': 'go'}, {'fileName': 'squareblack.png', 'correct_response': 'right', 'condition': 'go'}, {'fileName': 'squareblack.png', 'correct_response': 'right', 'condition': 'go'}, {'fileName': 'circleblack.png', 'correct_response': 'left', 'condition': 'stop'}, {'fileName': 'squareblack.png', 'correct_response': 'right', 'condition': 'stop'}, {'fileName': 'squareblack.png', 'correct_response': 'right', 'condition': 'go'}, {'fileName': 'squareblack.png', 'correct_response': 'right', 'condition': 'go'}, {'fileName': 'circleblack.png', 'correct_response': 'left', 'condition': 'stop'}, {'fileName': 'circleblack.png', 'correct_response': 'left', 'condition': 'go'}, {'fileName': 'squareblack.png', 'correct_response': 'right', 'condition': 'stop'}, {'fileName': 'circleblack.png', 'correct_response': 'left', 'condition': 'go'}, {'fileName': 'circleblack.png', 'correct_response': 'left', 'condition': 'go'}, {'fileName': 'squareblack.png', 'correct_response': 'right', 'condition': 'go'}, {'fileName': 'squareblack.png', 'correct_response': 'right', 'condition': 'go'}, {'fileName': 'circleblack.png', 'correct_response': 'left', 'condition': 'go'}, {'fileName': 'squareblack.png', 'correct_response': 'right', 'condition': 'stop'}, {'fileName': 'circleblack.png', 'correct_response': 'left', 'condition': 'stop'}]",350.9690214507282,350.9690214507282,return,2.3613452836871147,,,,,,,,,,,,,,,,,,,,,,,,,,,,,,,,,,,,,,,,,,,,,,,,,,,,,,,,,,,s008,001,2024-07-12_16h57.12.021,simplestop_skeleton,2022.2.2,59.849078064682956,
$currentCorrectResponse,$currentGoStim,0,0,0,0,0,0,0,0,,,,,,,,,,,,,,,353.37288823351264,353.37288823351264,465.1879149451852,stop,circleblack.png,left,0.35,465.2090699225664,465.2090699225664,465.7034404911101,465.7034404911101,465.7200109735131,466.05354983359575,466.5542419999838,466.7044382877648,467.705603454262,467.7224589884281,None,0,467.7224589884281,467.7224589884281,468.2324257865548,468.2324257865548,0.003337401896715164,0.4890940710902214,0.8396916687488556,468.2073720507324,practice,1,,,,,,,,,,,,,,,,,,,,,,,,,,,,,,s008,001,2024-07-12_16h57.12.021,simplestop_skeleton,2022.2.2,59.849078064682956,
None,None,0,0,0,0,0,1,1,1,,,,,,,,,,,,,,,,,468.20791098475456,stop,squareblack.png,right,0.4,468.2324257865548,468.2324257865548,468.7233925610781,468.7233925610781,468.73991226404905,469.1236583329737,469.62414978817105,469.7230993323028,470.7257591485977,470.7424997501075,right,1,470.7424997501075,470.7424997501075,471.2468216344714,471.2468216344714,0.007188156247138977,0.489158246666193,0.8898284509778023,471.2272801809013,practice,1,0.6561491750180721,,,,,,,,,,,,,,,,,,,,,,,,,,,,,s008,001,2024-07-12_16h57.12.021,simplestop_skeleton,2022.2.2,59.849078064682956,
None,None,0,0,0,0,0,2,2,1,,,,,,,,,,,,,,,,,471.22769355401397,go,squareblack.png,right,0.35,471.2468216344714,471.2468216344714,471.743287589401,471.743287589401,471.7599600702524,472.09382827207446,472.59436459466815,472.74380207806826,473.74567579478025,473.76243206858635,right,1,473.76243206858635,473.76243206858635,474.2719663120806,474.2719663120806,0.0013499483466148376,0.4897899031639099,0.8400653675198555,474.24711760506034,practice,1,0.5952614210546017,,,,,,,,,,,,,,,,,,,,,,,,,,,,,s008,001,2024-07-12_16h57.12.021,simplestop_skeleton,2022.2.2,59.849078064682956,
None,None,0,0,0,0,0,3,3,3,,,,,,,,,,,,,,,,,474.24753426387906,go,circleblack.png,left,0.35,474.2719663120806,474.2719663120806,474.76312179118395,474.76312179118395,474.77994763851166,475.1136286556721,475.61363389343023,475.76347479596734,476.7656324505806,476.78229093551636,left,1,476.78229093551636,476.78229093551636,477.2868135124445,477.2868135124445,0.007663615047931671,0.4900612607598305,0.8402905128896236,477.26704005897045,practice,1,0.39818713814020157,,,,,,,,,,,,,,,,,,,,,,,,,,,,,s008,001,2024-07-12_16h57.12.021,simplestop_skeleton,2022.2.2,59.849078064682956,
$currentCorrectResponse,$currentGoStim,0,0,0,0,1,0,4,0,,,,,,,,,,,,,,,,,477.2674564681947,go,squareblack.png,right,0.35,477.2868135124445,477.2868135124445,477.7832065448165,477.7832065448165,477.8000414930284,478.13347951322794,478.63297364860773,478.7837808430195,479.78532714024186,479.80211279168725,right,1,479.80211279168725,479.80211279168725,,,0.0017011240124702454,0.490055862814188,0.8403607569634914,480.28701535239816,practice,1,0.5494202226400375,,,,,,,,,,,,,,,,,,,,,,,,,,,,,s008,001,2024-07-12_16h57.12.021,simplestop_skeleton,2022.2.2,59.849078064682956,
None,None,0,0,0,0,1,1,5,2,,,,,,,,,,,,,,,,,480.28746258094907,go,squareblack.png,right,0.35,480.30642995610833,480.30642995610833,480.8032994903624,480.8032994903624,480.8198637031019,481.15353848040104,481.65468092262745,481.80367048457265,482.80533861368895,482.80533861368895,right,1,482.80533861368895,482.80533861368895,483.30975404009223,483.30975404009223,0.0012101903557777405,0.49009039998054504,0.8404172100126743,483.29040955752134,practice,1,0.4676497168838978,,,,,,,,,,,,,,,,,,,,,,,,,,,,,s008,001,2024-07-12_16h57.12.021,simplestop_skeleton,2022.2.2,59.849078064682956,
$currentCorrectResponse,$currentGoStim,0,0,0,0,1,2,6,0,,,,,,,,,,,,,,,,,483.29083056747913,stop,squareblack.png,right,0.35,483.30975404009223,483.30975404009223,483.8066981881857,483.8066981881857,483.8233029656112,484.15698709338903,484.65684980526567,484.80728286504745,485.8090269640088,485.8090269640088,right,1,485.8090269640088,485.8090269640088,486.31918570771813,486.31918570771813,0.0012060515582561493,0.48986803367733955,0.8401547484099865,486.29363026842475,practice,1,0.4145207889378071,,,,,,,,,,,,,,,,,,,,,,,,,,,,,s008,001,2024-07-12_16h57.12.021,simplestop_skeleton,2022.2.2,59.849078064682956,
None,None,0,0,0,0,1,3,7,2,,,,,,,,,,,,,,,,,486.29407637938857,go,circleblack.png,left,0.3,486.31918570771813,486.31918570771813,486.80990068614483,486.80990068614483,486.82683619856834,487.1103361994028,487.61319621279836,487.81033920124173,488.81215288862586,488.8292477950454,left,1,488.8292477950454,488.8292477950454,,,0.007897760719060898,0.489977203309536,0.7903150916099548,489.3137369938195,practice,1,0.610801175236702,,,,,,,,,,,,,,,,,,,,,,,,,,,,,s008,001,2024-07-12_16h57.12.021,simplestop_skeleton,2022.2.2,59.849078064682956,
None,None,0,0,0,0,2,0,8,1,,,,,,,,,,,,,,,,,489.31418845430017,go,circleblack.png,left,0.3,489.33324885740876,489.33324885740876,489.8298779092729,489.8298779092729,489.84692342951894,490.13042633607984,490.63023832812905,490.83048253133893,491.8319105170667,491.8488471992314,left,1,491.8488471992314,491.8488471992314,,,0.0012594349682331085,0.49012095481157303,0.790414996445179,492.33335852250457,practice,1,0.3456849753856659,,,,,,,,,,,,,,,,,,,,,,,,,,,,,s008,001,2024-07-12_16h57.12.021,simplestop_skeleton,2022.2.2,59.849078064682956,
None,None,0,0,0,0,2,1,9,3,,,,,,,,,,,,,,,,,492.3337884917855,go,squareblack.png,right,0.3,492.35336938872933,492.35336938872933,492.84971176832914,492.84971176832914,492.866703286767,493.1503155119717,493.6507174670696,493.850915543735,494.85227032750845,494.8687458746135,right,1,494.8687458746135,494.8687458746135,495.37364356964827,495.37364356964827,0.0017518438398838043,0.4902522601187229,0.7904066555202007,495.35356149822474,practice,1,0.4965529181063175,,,,,,,,,,,,,,,,,,,,,,,,,,,,,s008,001,2024-07-12_16h57.12.021,simplestop_skeleton,2022.2.2,59.849078064682956,
None,None,0,0,0,0,2,2,10,2,,,,,,,,,,,,,,,,,495.35399866104126,go,circleblack.png,left,0.3,495.37364356964827,495.37364356964827,495.87020072340965,495.87020072340965,495.886670127511,496.1705375984311,496.6883029714227,496.87079114094377,497.87247751653194,497.88883585482836,left,1,497.88883585482836,497.88883585482836,498.3942341916263,498.3942341916263,0.001805279403924942,0.49021290615200996,0.7906503863632679,498.3739723302424,practice,1,0.4343472868204117,,,,,,,,,,,,,,,,,,,,,,,,,,,,,s008,001,2024-07-12_16h57.12.021,simplestop_skeleton,2022.2.2,59.849078064682956,
None,None,0,0,0,0,2,3,11,2,,,,,,,,,,,,,,,,,498.374408762902,stop,circleblack.png,left,0.3,498.3942341916263,498.3942341916263,498.88999600335956,498.88999600335956,498.90681844204664,499.19039626792073,499.69014413654804,499.890552572906,500.89243080839515,500.90902219340205,left,1,500.90902219340205,500.90902219340205,501.413616463542,501.413616463542,0.0014001689851284027,0.4896372817456722,0.789934329688549,501.39359368756413,practice,1,0.3454493395984173,,,,,,,,,,,,,,,,,,,,,,,,,,,,,s008,001,2024-07-12_16h57.12.021,simplestop_skeleton,2022.2.2,59.849078064682956,
None,None,0,0,0,0,3,0,12,2,,,,,,,,,,,,,,,,,501.3940099813044,stop,squareblack.png,right,0.25,501.413616463542,501.413616463542,501.90981049090624,501.90981049090624,501.9265082515776,502.16005642712116,502.66053646430373,502.91088384762406,503.9121949970722,503.9286556132138,None,0,503.9286556132138,503.9286556132138,504.4336502328515,504.4336502328515,0.0018175207078456879,0.4900415949523449,0.7402303330600262,504.4137147888541,practice,1,,,,,,,,,,,,,,,,,,,,,,,,,,,,,,s008,001,2024-07-12_16h57.12.021,simplestop_skeleton,2022.2.2,59.849078064682956,
$currentCorrectResponse,$currentGoStim,0,0,0,0,3,1,13,0,,,,,,,,,,,,,,,,,504.4141296185553,stop,circleblack.png,left,0.3,504.4336502328515,504.4336502328515,504.92858466878533,504.92858466878533,504.945645429194,505.22955099120736,505.73061499372125,505.93118554353714,506.93237010389566,506.9488954357803,left,1,506.9488954357803,506.9488954357803,507.4537811242044,507.4537811242044,0.0018080472946166992,0.48912301287055016,0.7896102666854858,507.43353191018105,practice,1,0.48831506818532944,,,,,,,,,,,,,,,,,,,,,,,,,,,,,s008,001,2024-07-12_16h57.12.021,simplestop_skeleton,2022.2.2,59.849078064682956,
$currentCorrectResponse,$currentGoStim,0,0,0,0,3,2,14,0,,,,,,,,,,,,,,,,,507.43394710868597,go,squareblack.png,right,0.25,507.4537811242044,507.4537811242044,507.94993628561497,507.94993628561497,507.9667910821736,508.20039128139615,508.70129023864865,508.95076064020395,509.95226277783513,509.9689451381564,right,1,509.9689451381564,509.9689451381564,,,0.0018017254769802094,0.49010172486305237,0.7402999177575111,510.4537757523358,practice,1,0.6012509055435658,,,,,,,,,,,,,,,,,,,,,,,,,,,,,s008,001,2024-07-12_16h57.12.021,simplestop_skeleton,2022.2.2,59.849078064682956,
None,None,0,0,0,0,3,3,15,3,,,,,,,,,,,,,,,,,510.4542093090713,stop,squareblack.png,right,0.25,510.47472715750337,510.47472715750337,510.96968414634466,510.96968414634466,510.98679864034057,511.2203908339143,511.72075375914574,511.97127725183964,512.971980612725,512.9887758046389,None,0,512.9887758046389,512.9887758046389,513.4933608882129,513.4933608882129,0.0016099028289318085,0.4897085279226303,0.7395111881196499,513.4736009277403,practice,1,,,,,,,,,,,,,,,,,,,,,,,,,,,,,,s008,001,2024-07-12_16h57.12.021,simplestop_skeleton,2022.2.2,59.849078064682956,
None,None,0,0,0,0,4,0,16,1,,,,,,,,,,,,,,,,,513.4740146882832,go,squareblack.png,right,0.3,513.4933608882129,513.4933608882129,513.9900265075266,513.9900265075266,514.0066340789199,514.2901268564165,514.7905814088881,514.9910138063133,515.9919697642326,516.0089343525469,right,1,516.0089343525469,516.0089343525469,516.5198542550206,516.5198542550206,0.0012932904064655304,0.4897768944501877,0.7900706492364407,516.4936286695302,practice,1,0.5392336510121822,,,,,,,,,,,,,,,,,,,,,,,,,,,,,s008,001,2024-07-12_16h57.12.021,simplestop_skeleton,2022.2.2,59.849078064682956,
None,None,0,0,0,0,4,1,17,1,,,,,,,,,,,,,,,,,516.4941288977861,go,circleblack.png,left,0.3,516.5198542550206,516.5198542550206,517.0102724805474,517.0102724805474,517.026703722775,517.3106755465269,517.8103804215789,518.0110750123858,519.0123522281647,519.0289302095771,left,1,519.0289302095771,519.0289302095771,519.5328556224704,519.5328556224704,0.008621368557214737,0.49007995799183846,0.7900661453604698,519.5134964026511,practice,1,0.3402687683701515,,,,,,,,,,,,,,,,,,,,,,,,,,,,,s008,001,2024-07-12_16h57.12.021,simplestop_skeleton,2022.2.2,59.849078064682956,
None,None,0,0,0,0,4,2,18,2,,,,,,,,,,,,,,,,,519.5139925144613,stop,circleblack.png,left,0.3,519.5328556224704,519.5328556224704,520.0300432704389,520.0300432704389,520.046773198992,520.3307136036456,520.8304397165775,521.0303335525095,522.032279022038,522.032279022038,left,1,522.032279022038,522.032279022038,522.5365527495742,522.5365527495742,0.0012490861117839813,0.4902518093585968,0.7903971262276173,522.5170867927372,practice,1,0.3622608594596386,,,,,,,,,,,,,,,,,,,,,,,,,,,,,s008,001,2024-07-12_16h57.12.021,simplestop_skeleton,2022.2.2,59.849078064682956,
$currentCorrectResponse,$currentGoStim,0,0,0,0,4,3,19,0,,,,,,,,,,,,,,,,,522.5175255574286,go,circleblack.png,left,0.25,522.5365527495742,522.5365527495742,523.0335513353348,523.0335513353348,523.0499814301729,523.2836179435253,523.7866205051541,524.0341432914138,525.0354720726609,525.0354720726609,left,1,525.0354720726609,525.0354720726609,525.545038588345,525.545038588345,0.0013271793723106384,0.48979243263602257,0.7401484809815884,525.5203763097525,practice,1,0.5389370992779732,,,,,,,,,,,,,,,,,,,,,,,,,,,,,s008,001,2024-07-12_16h57.12.021,simplestop_skeleton,2022.2.2,59.849078064682956,
None,None,0,0,0,0,5,0,20,3,,,,,,,,,,,,,,,,,525.5207860432565,go,squareblack.png,right,0.25,525.545038588345,525.545038588345,526.0367515161633,526.0367515161633,526.0531602613628,526.2870584651828,526.7866011224687,527.0372759066522,528.0387453772128,528.0552797466516,right,1,528.0552797466516,528.0552797466516,,,0.007384557276964188,0.48995090648531914,0.7402207776904106,528.5402357541025,practice,1,0.46299459785223007,,,,,,,,,,,,,,,,,,,,,,,,,,,,,s008,001,2024-07-12_16h57.12.021,simplestop_skeleton,2022.2.2,59.849078064682956,
None,None,0,0,0,0,5,1,21,3,,,,,,,,,,,,,,,,,528.5406959541142,go,circleblack.png,left,0.25,528.5604688487947,528.5604688487947,529.0568377971649,529.0568377971649,529.0733583420515,529.3067895025015,529.8099092654884,530.0574741400778,531.0585962384939,531.0753213353455,left,1,531.0753213353455,531.0753213353455,531.5798025466502,531.5798025466502,0.0019066259264945984,0.48996971547603607,0.7402613759040833,531.5600960180163,practice,1,0.5292216092348099,,,,,,,,,,,,,,,,,,,,,,,,,,,,,s008,001,2024-07-12_16h57.12.021,simplestop_skeleton,2022.2.2,59.849078064682956,
None,None,0,0,0,0,5,2,22,1,,,,,,,,,,,,,,,,,531.5605137497187,go,squareblack.png,right,0.25,531.5798025466502,531.5798025466502,532.0766850076616,532.0766850076616,532.0934251770377,532.3268094435334,532.827430576086,533.0769981704652,534.0786975696683,534.0951804481447,right,1,534.0951804481447,534.0951804481447,534.6001051329076,534.6001051329076,0.0016598589718341827,0.48995209112763405,0.7402962408959866,534.5801850967109,practice,1,0.5993493311107159,,,,,,,,,,,,,,,,,,,,,,,,,,,,,s008,001,2024-07-12_16h57.12.021,simplestop_skeleton,2022.2.2,59.849078064682956,
None,None,0,0,0,0,5,3,23,3,,,,,,,,,,,,,,,,,534.580607984215,go,circleblack.png,left,0.25,534.6001051329076,534.6001051329076,535.0965935848653,535.0965935848653,535.113313563168,535.3468866348267,535.8460012599826,536.0971572101116,537.0987174659967,537.1152306683362,left,1,537.1152306683362,537.1152306683362,537.6173310689628,537.6173310689628,0.001774020493030548,0.4899249002337456,0.740158773958683,537.600035622716,practice,1,0.41746024787425995,,,,,,,,,,,,,,,,,,,,,,,,,,,,,s008,001,2024-07-12_16h57.12.021,simplestop_skeleton,2022.2.2,59.849078064682956,
,,0,0,0,0,,,,,,,,,,,,,"[{'fileName': 'circleblack.png', 'correct_response': 'left', 'condition': 'go'}, {'fileName': 'circleblack.png', 'correct_response': 'left', 'condition': 'stop'}, {'fileName': 'squareblack.png', 'correct_response': 'right', 'condition': 'stop'}, {'fileName': 'squareblack.png', 'correct_response': 'right', 'condition': 'go'}, {'fileName': 'squareblack.png', 'correct_response': 'right', 'condition': 'go'}, {'fileName': 'circleblack.png', 'correct_response': 'left', 'condition': 'go'}, {'fileName': 'squareblack.png', 'correct_response': 'right', 'condition': 'go'}, {'fileName': 'circleblack.png', 'correct_response': 'left', 'condition': 'stop'}, {'fileName': 'circleblack.png', 'correct_response': 'left', 'condition': 'go'}, {'fileName': 'circleblack.png', 'correct_response': 'left', 'condition': 'go'}, {'fileName': 'squareblack.png', 'correct_response': 'right', 'condition': 'stop'}, {'fileName': 'squareblack.png', 'correct_response': 'right', 'condition': 'go'}, {'fileName': 'squareblack.png', 'correct_response': 'right', 'condition': 'stop'}, {'fileName': 'circleblack.png', 'correct_response': 'left', 'condition': 'go'}, {'fileName': 'squareblack.png', 'correct_response': 'right', 'condition': 'go'}, {'fileName': 'squareblack.png', 'correct_response': 'right', 'condition': 'stop'}, {'fileName': 'squareblack.png', 'correct_response': 'right', 'condition': 'go'}, {'fileName': 'circleblack.png', 'correct_response': 'left', 'condition': 'stop'}, {'fileName': 'circleblack.png', 'correct_response': 'left', 'condition': 'go'}, {'fileName': 'circleblack.png', 'correct_response': 'left', 'condition': 'go'}, {'fileName': 'squareblack.png', 'correct_response': 'right', 'condition': 'go'}, {'fileName': 'squareblack.png', 'correct_response': 'right', 'condition': 'go'}, {'fileName': 'circleblack.png', 'correct_response': 'left', 'condition': 'go'}, {'fileName': 'circleblack.png', 'correct_response': 'left', 'condition': 'stop'}]",,,,,,,,,,,,,,,,,,,,,,,,,,,,,,,,,,,,537.6173310689628,537.6173310689628,return,3.41993710398674,,,,,,,,,,,,,,,,,,,,,,,,,s008,001,2024-07-12_16h57.12.021,simplestop_skeleton,2022.2.2,59.849078064682956,
None,None,,,,,,,,,0,0,0,0,0,0,0,2,,,,,,,,,550.0461891852319,stop,circleblack.png,left,0.25,,,,,,,,,,,,,,,,,0.002178523689508438,0.4909966066479683,0.7416792139410973,552.5492642074823,test,1,,,,,,541.0697243325412,541.0697243325412,550.0656109973788,550.5636815167964,550.5636815167964,550.580303799361,550.8139731362462,551.314944498241,551.5648710355163,552.5662501379848,None,0,0.3,,,,,,,,,,,,s008,001,2024-07-12_16h57.12.021,simplestop_skeleton,2022.2.2,59.849078064682956,
None,None,,,,,,,,,0,0,0,0,0,1,1,3,,,,,,,,,552.5498166680336,stop,circleblack.png,left,0.3,,,,,,,,,,,,,,,,,0.0012499578297138214,0.49022098630666733,0.7912618666887283,555.0533570758998,test,1,,,,,,,,552.5662501379848,553.0658005066216,553.0658005066216,553.0658005066216,553.3667692765594,553.8675840459764,554.066349118948,555.0721080675721,left,1,0.25,0.6022216938436031,,,,,,,,,,,s008,001,2024-07-12_16h57.12.021,simplestop_skeleton,2022.2.2,59.849078064682956,
$currentCorrectResponse,$currentGoStim,,,,,,,,,0,0,0,0,0,2,2,0,,,,,,,,,555.0538085177541,go,circleblack.png,left,0.25,,,,,,,,,,,,,,,,,0.0013996995985507965,0.48951713368296623,,557.5558214746416,test,1,,,,,,,,555.0721080675721,555.5693038925529,555.5693038925529,555.585892342031,555.819544095546,556.3200818225741,556.5701470151544,557.5798408985138,left,1,0.25,0.7388234287500381,,,,,,,,,,,s008,001,2024-07-12_16h57.12.021,simplestop_skeleton,2022.2.2,59.849078064682956,
None,None,,,,,,,,,0,0,0,0,0,3,3,3,,,,,,,,,557.5562568232417,go,squareblack.png,right,0.25,,,,,,,,,,,,,,,,,0.007129184901714325,0.4895264133810997,,560.058890786022,test,1,,,,,,,,557.5798408985138,558.0718339048326,558.0718339048326,558.0885567031801,558.3219111002982,558.822641570121,559.0722892992198,560.0778969489038,right,1,0.25,0.4679935723543167,,,,,,,,,,,s008,001,2024-07-12_16h57.12.021,simplestop_skeleton,2022.2.2,59.849078064682956,
None,None,,,,,,,,,0,0,0,0,1,0,4,1,,,,,,,,,560.0593313165009,go,squareblack.png,right,0.25,,,,,,,,,,,,,,,,,0.0013300217688083649,0.48925600573420525,,562.5617382340133,test,1,,,,,,,,560.0778969489038,560.5747002363205,560.5747002363205,560.5914413258433,560.8249634951353,561.32432256639,561.575556896627,562.5810347013175,right,1,0.25,0.4105675294995308,,,,,,,,,,,s008,001,2024-07-12_16h57.12.021,simplestop_skeleton,2022.2.2,59.849078064682956,
None,None,,,,,,,,,0,0,0,0,1,1,5,2,,,,,,,,,562.5621847696602,go,circleblack.png,left,0.25,,,,,,,,,,,,,,,,,0.0018734075129032135,0.4894253946840763,,565.0639489553869,test,1,,,,,,,,562.5810347013175,563.0772887505591,563.0772887505591,563.0941865593195,563.3279311470687,563.8286043703556,564.0779040679336,565.0830192193389,left,1,0.25,0.48982709646224976,,,,,,,,,,,s008,001,2024-07-12_16h57.12.021,simplestop_skeleton,2022.2.2,59.849078064682956,
None,None,,,,,,,,,0,0,0,0,1,2,6,2,,,,,,,,,565.0643794462085,go,circleblack.png,left,0.25,,,,,,,,,,,,,,,,,0.0012661777436733246,0.49018870666623116,,567.5668523944914,test,1,,,,,,,,565.0830192193389,565.5800198614597,565.5800198614597,565.5969537086785,565.8303174898028,566.3295814283192,566.5807416364551,567.58649231866,left,1,0.25,0.44480906426906586,,,,,,,,,,,s008,001,2024-07-12_16h57.12.021,simplestop_skeleton,2022.2.2,59.849078064682956,
None,None,,,,,,,,,0,0,0,0,1,3,7,1,,,,,,,,,567.5672833658755,stop,squareblack.png,right,0.25,,,,,,,,,,,,,,,,,0.001597326248884201,0.4895729795098305,0.7399863079190254,570.0695901066065,test,1,,,,,,,,567.58649231866,568.0833247639239,568.0833247639239,568.099779766053,568.3334778249264,568.8342151418328,569.0839663855731,570.0880332998931,None,0,0.3,,,,,,,,,,,,s008,001,2024-07-12_16h57.12.021,simplestop_skeleton,2022.2.2,59.849078064682956,
None,None,,,,,,,,,0,0,0,0,2,0,8,1,,,,,,,,,570.0700191892684,go,squareblack.png,right,0.3,,,,,,,,,,,,,,,,,0.0012539252638816833,0.48995327204465866,,572.5724891908467,test,1,,,,,,,,570.0880332998931,570.5859641991556,570.5859641991556,570.6026874966919,570.8860498443246,571.3869906999171,571.5854108929634,572.5918650068343,right,1,0.3,0.6392395123839378,,,,,,,,,,,s008,001,2024-07-12_16h57.12.021,simplestop_skeleton,2022.2.2,59.849078064682956,
$currentCorrectResponse,$currentGoStim,,,,,,,,,0,0,0,0,2,1,9,0,,,,,,,,,572.5729257799685,go,circleblack.png,left,0.3,,,,,,,,,,,,,,,,,0.0018763765692710876,0.4894760400056839,,575.0753170661628,test,1,,,,,,,,572.5918650068343,573.0885456129909,573.0885456129909,573.1050376817584,573.3888811320066,573.8886345513165,574.0888507403433,575.0945338755846,left,1,0.3,0.4054039195179939,,,,,,,,,,,s008,001,2024-07-12_16h57.12.021,simplestop_skeleton,2022.2.2,59.849078064682956,
None,None,,,,,,,,,0,0,0,0,2,2,10,3,,,,,,,,,575.0757628232241,go,squareblack.png,right,0.3,,,,,,,,,,,,,,,,,0.001738913357257843,0.4894162490963936,,577.5780094601214,test,1,,,,,,,,575.0945338755846,575.5912872925401,575.5912872925401,575.6078650727868,575.8918782323599,576.4086324051023,576.5915877111256,577.5968258231878,right,1,0.3,0.4217378459870815,,,,,,,,,,,s008,001,2024-07-12_16h57.12.021,simplestop_skeleton,2022.2.2,59.849078064682956,
$currentCorrectResponse,$currentGoStim,,,,,,,,,0,0,0,0,2,3,11,0,,,,,,,,,577.578441157937,stop,squareblack.png,right,0.3,,,,,,,,,,,,,,,,,0.001312408596277237,0.4895291402935982,0.7899782434105873,580.0811943933368,test,1,,,,,,,,577.5968258231878,578.0939334779978,578.0939334779978,578.1106980629265,578.3943033330142,578.8945918306708,579.0947328619659,580.0999698601663,right,1,0.25,0.41828783228993416,,,,,,,,,,,s008,001,2024-07-12_16h57.12.021,simplestop_skeleton,2022.2.2,59.849078064682956,
None,None,,,,,,,,,0,0,0,0,3,0,12,1,,,,,,,,,580.0816244184971,go,squareblack.png,right,0.25,,,,,,,,,,,,,,,,,0.0012786909937858582,0.48925501108169556,,582.5833178572357,test,1,,,,,,,,580.0999698601663,580.5967383533716,580.5967383533716,580.6136926338077,580.8470601513982,581.3477055728436,581.596731774509,582.6024310365319,right,1,0.25,0.6392833180725574,,,,,,,,,,,s008,001,2024-07-12_16h57.12.021,simplestop_skeleton,2022.2.2,59.849078064682956,
None,None,,,,,,,,,0,0,0,0,3,1,13,2,,,,,,,,,582.5837599001825,stop,circleblack.png,left,0.25,,,,,,,,,,,,,,,,,0.001772172749042511,0.4898044094443321,0.7401912733912468,585.0863070264459,test,1,,,,,,,,582.6024310365319,583.0994150862098,583.0994150862098,583.1160638928413,583.3497520461679,583.850331325084,584.1007174216211,585.1053774617612,None,0,0.3,,,,,,,,,,,,s008,001,2024-07-12_16h57.12.021,simplestop_skeleton,2022.2.2,59.849078064682956,
None,None,,,,,,,,,0,0,0,0,3,2,14,2,,,,,,,,,585.0867472924292,go,squareblack.png,right,0.3,,,,,,,,,,,,,,,,,0.0016794353723526,0.48991577327251434,,587.5890856347978,test,1,,,,,,,,585.1053774617612,585.6026261113584,585.6026261113584,585.6188452094793,585.9026399888098,586.4041451849043,586.6026245057583,587.6084671989083,right,1,0.3,0.42242226749658585,,,,,,,,,,,s008,001,2024-07-12_16h57.12.021,simplestop_skeleton,2022.2.2,59.849078064682956,
$currentCorrectResponse,$currentGoStim,,,,,,,,,0,0,0,0,3,3,15,0,,,,,,,,,587.5895284488797,go,circleblack.png,left,0.3,,,,,,,,,,,,,,,,,0.0019071511924266815,0.48970265313982964,,590.0917442962527,test,1,,,,,,,,587.6084671989083,588.1048562452197,588.1048562452197,588.1219115629792,588.4055487401783,588.9058805666864,589.1055606640875,590.11061090976,left,1,0.3,0.4934006407856941,,,,,,,,,,,s008,001,2024-07-12_16h57.12.021,simplestop_skeleton,2022.2.2,59.849078064682956,
None,None,,,,,,,,,0,0,0,0,4,0,16,1,,,,,,,,,590.0921854674816,go,squareblack.png,right,0.3,,,,,,,,,,,,,,,,,0.0016114339232444763,0.4897359870374203,,592.594415821135,test,1,,,,,,,,590.11061090976,590.6080806851387,590.6080806851387,590.6246382705867,590.9080251157284,591.4085019864142,591.6083455272019,592.6137024946511,left,0,0.3,0.3290526233613491,,,,,,,,,,,s008,001,2024-07-12_16h57.12.021,simplestop_skeleton,2022.2.2,59.849078064682956,
None,None,,,,,,,,,0,0,0,0,4,1,17,3,,,,,,,,,592.5948605835438,go,circleblack.png,left,0.3,,,,,,,,,,,,,,,,,0.0017215237021446228,0.49005628377199173,,595.0972197167575,test,1,,,,,,,,592.6137024946511,593.1108168922365,593.1108168922365,593.1272228062153,593.410724490881,593.9115207977593,594.1116683967412,595.1162343509495,left,1,0.3,0.5363530926406384,,,,,,,,,,,s008,001,2024-07-12_16h57.12.021,simplestop_skeleton,2022.2.2,59.849078064682956,
None,None,,,,,,,,,0,0,0,0,4,2,18,3,,,,,,,,,595.0976584404707,go,circleblack.png,left,0.3,,,,,,,,,,,,,,,,,0.001387283205986023,0.4899184964597225,,597.6002168022096,test,1,,,,,,,,595.1162343509495,595.6132707260549,595.6132707260549,595.6298218071461,595.9136396273971,596.4144418388605,596.6136508323252,597.6190975755453,left,1,0.3,0.5413343273103237,,,,,,,,,,,s008,001,2024-07-12_16h57.12.021,simplestop_skeleton,2022.2.2,59.849078064682956,
$currentCorrectResponse,$currentGoStim,,,,,,,,,0,0,0,0,4,3,19,0,,,,,,,,,597.6006463766098,stop,squareblack.png,right,0.3,,,,,,,,,,,,,,,,,0.0015985481441020966,0.48972612991929054,0.7899856232106686,600.1029321141541,test,1,,,,,,,,597.6190975755453,598.1161094531417,598.1161094531417,598.1326403208077,598.4164252988994,598.9165782853961,599.1170578636229,600.1222098395228,right,1,0.25,0.33918560296297073,,,,,,,,,,,s008,001,2024-07-12_16h57.12.021,simplestop_skeleton,2022.2.2,59.849078064682956,
None,None,,,,,,,,,0,0,0,0,5,0,20,2,,,,,,,,,600.1033647954464,go,circleblack.png,left,0.25,,,,,,,,,,,,,,,,,0.0019052661955356598,0.4896428696811199,,602.6054593920708,test,1,,,,,,,,600.1222098395228,600.6191354431212,600.6191354431212,600.6355177313089,600.8691695928574,601.369785271585,601.619458399713,602.6245639137924,left,1,0.25,0.5680510103702545,,,,,,,,,,,s008,001,2024-07-12_16h57.12.021,simplestop_skeleton,2022.2.2,59.849078064682956,
$currentCorrectResponse,$currentGoStim,,,,,,,,,0,0,0,0,5,1,21,0,,,,,,,,,602.605898141861,stop,circleblack.png,left,0.25,,,,,,,,,,,,,,,,,0.0014340952038764954,0.48992570862174034,0.7400561571121216,605.1084082312882,test,1,,,,,,,,602.6245639137924,603.1215284727514,603.1215284727514,603.1382011398673,603.3718143105507,603.8728081509471,604.1228548698127,605.1275099925697,None,0,0.3,,,,,,,,,,,,s008,001,2024-07-12_16h57.12.021,simplestop_skeleton,2022.2.2,59.849078064682956,
$currentCorrectResponse,$currentGoStim,,,,,,,,,0,0,0,0,5,2,22,0,,,,,,,,,605.1088507659733,stop,squareblack.png,right,0.3,,,,,,,,,,,,,,,,,0.0016507133841514587,0.4899488799273968,0.7902427464723587,607.611189391464,test,1,,,,,,,,605.1275099925697,605.6242366209626,605.6242366209626,605.6413275152445,605.9249338395894,606.4416350908577,606.6249936670065,607.6298663392663,right,1,0.25,0.42110955342650414,,,,,,,,,,,s008,001,2024-07-12_16h57.12.021,simplestop_skeleton,2022.2.2,59.849078064682956,
None,None,,,,,,,,,0,0,0,0,5,3,23,1,,,,,,,,,607.6116251163185,go,squareblack.png,right,0.25,,,,,,,,,,,,,,,,,0.0012743771076202393,0.4897833615541458,,610.1138594783843,test,1,,,,,,,,607.6298663392663,608.1272583976388,608.1272583976388,608.1439048610628,608.377483971417,608.8778216093779,609.127715382725,610.1333672404289,right,1,0.25,0.5145744122564793,,,,,,,,,,,s008,001,2024-07-12_16h57.12.021,simplestop_skeleton,2022.2.2,59.849078064682956,
None,None,,,,,,,,,0,0,0,0,6,0,24,3,,,,,,,,,610.114297747612,go,circleblack.png,left,0.25,,,,,,,,,,,,,,,,,0.0020742304623126984,0.4901006184518337,,612.6171663552523,test,1,,,,,,,,610.1333672404289,610.630017362535,610.630017362535,610.6466289609671,610.8803953491151,611.3833340257406,611.6300901398063,612.636153139174,left,1,0.25,0.5084162130951881,,,,,,,,,,,s008,001,2024-07-12_16h57.12.021,simplestop_skeleton,2022.2.2,59.849078064682956,
None,None,,,,,,,,,0,0,0,0,6,1,25,2,,,,,,,,,612.6176073923707,stop,circleblack.png,left,0.25,,,,,,,,,,,,,,,,,0.0015255771577358246,0.4892624467611313,0.7394426949322224,615.119273904711,test,1,,,,,,,,612.636153139174,613.13261340186,613.13261340186,613.1492179445922,613.3831662200391,613.882131088525,614.1329789943993,615.1385767646134,left,1,0.2,0.41788412258028984,,,,,,,,,,,s008,001,2024-07-12_16h57.12.021,simplestop_skeleton,2022.2.2,59.849078064682956,
None,None,,,,,,,,,0,0,0,0,6,2,26,1,,,,,,,,,615.1197049431503,stop,squareblack.png,right,0.2,,,,,,,,,,,,,,,,,0.0017107874155044556,0.489998422563076,0.689984641969204,617.6221700273454,test,1,,,,,,,,615.1385767646134,615.6354098916054,615.6354098916054,615.6522247120738,615.8359278477728,616.3358774296939,616.6362417601049,617.6410416252911,None,0,0.25,,,,,,,,,,,,s008,001,2024-07-12_16h57.12.021,simplestop_skeleton,2022.2.2,59.849078064682956,
None,None,,,,,,,,,0,0,0,0,6,3,27,3,,,,,,,,,617.622614312917,go,squareblack.png,right,0.25,,,,,,,,,,,,,,,,,0.00132843479514122,0.4894784614443779,,620.1247116625309,test,1,,,,,,,,617.6410416252911,618.1382284760475,618.1382284760475,618.1547720618546,618.388416737318,618.8889670707285,619.1385024599731,620.1440440639853,right,1,0.25,0.5681247562170029,,,,,,,,,,,s008,001,2024-07-12_16h57.12.021,simplestop_skeleton,2022.2.2,59.849078064682956,
None,None,,,,,,,,,0,0,0,0,7,0,28,3,,,,,,,,,620.1251417398453,go,circleblack.png,left,0.25,,,,,,,,,,,,,,,,,0.0018121562898159027,0.4898431599140167,,622.627428419888,test,1,,,,,,,,620.1440440639853,620.6407344378531,620.6407344378531,620.657398365438,620.8912572562695,621.3909976966679,621.641849257052,622.646574575454,left,1,0.25,0.31305500492453575,,,,,,,,,,,s008,001,2024-07-12_16h57.12.021,simplestop_skeleton,2022.2.2,59.849078064682956,
$currentCorrectResponse,$currentGoStim,,,,,,,,,0,0,0,0,7,1,29,0,,,,,,,,,622.627857670188,go,squareblack.png,right,0.25,,,,,,,,,,,,,,,,,0.0016146637499332428,0.4897300861775875,,625.130452863872,test,1,,,,,,,,622.646574575454,623.1435548551381,623.1435548551381,623.1601206213236,623.393897484988,623.8942939899862,624.1439972855151,625.1499185860157,right,1,0.25,0.4728950001299381,,,,,,,,,,,s008,001,2024-07-12_16h57.12.021,simplestop_skeleton,2022.2.2,59.849078064682956,
$currentCorrectResponse,$currentGoStim,,,,,,,,,0,0,0,0,7,2,30,0,,,,,,,,,625.13089556247,go,circleblack.png,left,0.25,,,,,,,,,,,,,,,,,0.0018554441630840302,0.489387895911932,,627.6331107281148,test,1,,,,,,,,625.1499185860157,625.6463510170579,625.6463510170579,625.6629793606699,625.8966076225042,626.3973562121391,626.6471807844937,627.6523565612733,left,1,0.25,0.6198165006935596,,,,,,,,,,,s008,001,2024-07-12_16h57.12.021,simplestop_skeleton,2022.2.2,59.849078064682956,
$currentCorrectResponse,$currentGoStim,,,,,,,,,0,0,0,0,7,3,31,0,,,,,,,,,627.6335420869291,go,circleblack.png,left,0.25,,,,,,,,,,,,,,,,,0.0013830065727233887,0.4896141029894352,,630.1359411627054,test,1,,,,,,,,627.6523565612733,628.1488759554923,628.1488759554923,628.1656689159572,628.3996243178844,628.9000564031303,629.1501934975386,630.1548966132104,left,1,0.25,0.7577740736305714,,,,,,,,,,,s008,001,2024-07-12_16h57.12.021,simplestop_skeleton,2022.2.2,59.849078064682956,
None,None,,,,,,,,,0,0,0,0,8,0,32,3,,,,,,,,,630.1363774500787,go,squareblack.png,right,0.25,,,,,,,,,,,,,,,,,0.001607891172170639,0.4897211529314518,,632.6387037485838,test,1,,,,,,,,630.1548966132104,630.6519838757813,630.6519838757813,630.6685793921351,630.9020640552044,631.4028974957764,631.6533217579126,632.6575247086585,right,1,0.25,0.6405770555138588,,,,,,,,,,,s008,001,2024-07-12_16h57.12.021,simplestop_skeleton,2022.2.2,59.849078064682956,
None,None,,,,,,,,,0,0,0,0,8,1,33,2,,,,,,,,,632.6391300186515,go,squareblack.png,right,0.25,,,,,,,,,,,,,,,,,0.0013187676668167114,0.48981786146759987,,635.141435880214,test,1,,,,,,,,632.6575247086585,633.1546089500189,633.1546089500189,633.1718776971102,633.4049814119935,633.9058522731066,634.1556672006845,635.1610716953874,right,1,0.25,0.5583755262196064,,,,,,,,,,,s008,001,2024-07-12_16h57.12.021,simplestop_skeleton,2022.2.2,59.849078064682956,
None,None,,,,,,,,,0,0,0,0,8,2,34,1,,,,,,,,,635.141885638237,stop,circleblack.png,left,0.25,,,,,,,,,,,,,,,,,0.0019495673477649689,0.489528052508831,0.7398725152015686,637.6440854147077,test,1,,,,,,,,635.1610716953874,635.6578514017165,635.6578514017165,635.6741460636258,635.9078536890447,636.4081772491336,636.6589614339173,637.66331891343,None,0,0.3,,,,,,,,,,,,s008,001,2024-07-12_16h57.12.021,simplestop_skeleton,2022.2.2,59.849078064682956,
None,None,,,,,,,,,0,0,0,0,8,3,35,1,,,,,,,,,637.644510474056,stop,squareblack.png,right,0.3,,,,,,,,,,,,,,,,,0.0016952753067016602,0.49018244445323944,0.7904677614569664,640.1472247056663,test,1,,,,,,,,637.66331891343,638.160401109606,638.160401109606,638.1767328716815,638.4606320783496,638.9609830342233,639.1612976305187,640.1658808328211,None,0,0.35,,,,,,,,,,,,s008,001,2024-07-12_16h57.12.021,simplestop_skeleton,2022.2.2,59.849078064682956,
None,None,,,,,,,,,0,0,0,0,9,0,36,2,,,,,,,,,640.1476599797606,go,squareblack.png,right,0.35,,,,,,,,,,,,,,,,,0.0013244599103927612,0.48967380821704865,,642.6498417407274,test,1,,,,,,,,640.1658808328211,640.6630513966084,640.6630513966084,640.6799294054508,641.0133070126176,641.5144812949002,641.6646332852542,642.6689447388053,right,1,0.35,0.6346385329961777,,,,,,,,,,,s008,001,2024-07-12_16h57.12.021,simplestop_skeleton,2022.2.2,59.849078064682956,
None,None,,,,,,,,,0,0,0,0,9,1,37,1,,,,,,,,,642.6502831168473,go,squareblack.png,right,0.35,,,,,,,,,,,,,,,,,0.0013095326721668243,0.48966385051608086,,645.1525675803423,test,1,,,,,,,,642.6689447388053,643.1661114506423,643.1661114506423,643.1824696138501,643.5162184126675,644.0169401168823,644.1666290462017,645.1720511652529,right,1,0.35,0.6124730221927166,,,,,,,,,,,s008,001,2024-07-12_16h57.12.021,simplestop_skeleton,2022.2.2,59.849078064682956,
None,None,,,,,,,,,0,0,0,0,9,2,38,2,,,,,,,,,645.1530046574771,stop,circleblack.png,left,0.35,,,,,,,,,,,,,,,,,0.001938503235578537,0.48908093571662903,0.8399699069559574,647.6553149968386,test,1,,,,,,,,645.1720511652529,645.6678062304854,645.6678062304854,645.6850458607078,646.0188498683274,646.5196088030934,646.6697473041713,647.6742743365467,None,0,0.4,,,,,,,,,,,,s008,001,2024-07-12_16h57.12.021,simplestop_skeleton,2022.2.2,59.849078064682956,
$currentCorrectResponse,$currentGoStim,,,,,,,,,0,0,0,0,9,3,39,0,,,,,,,,,647.6557461507618,go,circleblack.png,left,0.4,,,,,,,,,,,,,,,,,0.0013631917536258698,0.4896398149430752,,650.1581182703376,test,1,,,,,,,,647.6742743365467,648.1711309552193,648.1711309552193,648.1880714669824,648.5717285312712,649.0710170269012,649.1717496775091,650.1777090653777,left,1,0.4,0.5645349696278572,,,,,,,,,,,s008,001,2024-07-12_16h57.12.021,simplestop_skeleton,2022.2.2,59.849078064682956,
None,None,,,,,,,,,0,0,0,0,10,0,40,2,,,,,,,,,650.1585578098893,stop,squareblack.png,right,0.4,,,,,,,,,,,,,,,,,0.001768600195646286,0.48930682241916656,0.8897358141839504,652.6610063165426,test,1,,,,,,,,650.1777090653777,650.6739511303604,650.6739511303604,650.6905666440725,651.0745096094906,651.5745924599469,651.6750502027571,652.680014256388,left,0,0.35,0.40841297060251236,,,,,,,,,,,s008,001,2024-07-12_16h57.12.021,simplestop_skeleton,2022.2.2,59.849078064682956,
None,None,,,,,,,,,0,0,0,0,10,1,41,3,,,,,,,,,652.6614392027259,go,circleblack.png,left,0.35,,,,,,,,,,,,,,,,,0.0018402300775051117,0.4894097149372101,,655.1634724847972,test,1,,,,,,,,652.680014256388,653.1768592074513,653.1768592074513,653.1934719830751,653.5273086093366,654.0439771339297,654.1773567423224,655.1824174709618,left,1,0.35,0.43954037129879,,,,,,,,,,,s008,001,2024-07-12_16h57.12.021,simplestop_skeleton,2022.2.2,59.849078064682956,
None,None,,,,,,,,,0,0,0,0,10,2,42,1,,,,,,,,,655.1639018058777,go,circleblack.png,left,0.35,,,,,,,,,,,,,,,,,0.0013445019721984863,0.48983726650476456,,657.6660749018192,test,1,,,,,,,,655.1824174709618,655.6795412302017,655.6795412302017,655.6961873061955,656.0298106186092,656.5291988030076,656.6801213733852,657.6852184124291,left,1,0.35,0.4811694175004959,,,,,,,,,,,s008,001,2024-07-12_16h57.12.021,simplestop_skeleton,2022.2.2,59.849078064682956,
None,None,,,,,,,,,0,0,0,0,10,3,43,1,,,,,,,,,657.6665206365287,go,squareblack.png,right,0.35,,,,,,,,,,,,,,,,,0.0016604065895080566,0.48982275649905205,,660.1688966043293,test,1,,,,,,,,657.6852184124291,658.1822403743863,658.1822403743863,658.1989373005927,658.5323104485869,659.0330611690879,659.1833077035844,660.1877301968634,right,1,0.35,0.4821334220468998,,,,,,,,,,,s008,001,2024-07-12_16h57.12.021,simplestop_skeleton,2022.2.2,59.849078064682956,
None,None,,,,,,,,,0,0,0,0,11,0,44,2,,,,,,,,,660.1693223975599,go,squareblack.png,right,0.35,,,,,,,,,,,,,,,,,0.0011801272630691528,0.4898318015038967,,662.6717429049313,test,1,,,,,,,,660.1877301968634,660.6849985457957,660.6849985457957,660.7018271945417,661.0353626608849,661.5359110087156,661.685605622828,662.6911859177053,right,1,0.35,0.4389001727104187,,,,,,,,,,,s008,001,2024-07-12_16h57.12.021,simplestop_skeleton,2022.2.2,59.849078064682956,
$currentCorrectResponse,$currentGoStim,,,,,,,,,0,0,0,0,11,1,45,0,,,,,,,,,662.6721764728427,go,circleblack.png,left,0.35,,,,,,,,,,,,,,,,,0.0020148418843746185,0.48957373574376106,,665.1747812479734,test,1,,,,,,,,662.6911859177053,663.1877693347633,663.1877693347633,663.2043652795255,663.5382963456213,664.0409872829914,664.1885232441127,665.1937747076154,left,1,0.35,0.44149772450327873,,,,,,,,,,,s008,001,2024-07-12_16h57.12.021,simplestop_skeleton,2022.2.2,59.849078064682956,
None,None,,,,,,,,,0,0,0,0,11,2,46,3,,,,,,,,,665.1752119474113,stop,squareblack.png,right,0.35,,,,,,,,,,,,,,,,,0.0016291476786136627,0.48941929265856743,0.839841403067112,667.6776940412819,test,1,,,,,,,,665.1937747076154,665.6908230409026,665.6908230409026,665.7073326185346,666.0409039519727,666.5419130735099,666.6909956037998,667.697104498744,right,1,0.3,0.4506501033902168,,,,,,,,,,,s008,001,2024-07-12_16h57.12.021,simplestop_skeleton,2022.2.2,59.849078064682956,
None,None,,,,,,,,,0,0,0,0,11,3,47,3,,,,,,,,,667.6781295500696,stop,circleblack.png,left,0.3,,,,,,,,,,,,,,,,,0.001952841877937317,0.48930100724101067,0.7899253442883492,670.1800213381648,test,1,,,,,,,,667.697104498744,668.1932901442051,668.1932901442051,668.2100073210895,668.4935350753367,668.9930264241993,669.1938172765076,670.2011438421905,left,1,0.25,0.4453509487211704,,,,,,,,,,,s008,001,2024-07-12_16h57.12.021,simplestop_skeleton,2022.2.2,59.849078064682956,
,,,,,,,,,,0,0,0,0,,,,,,"[{'fileName': 'circleblack.png', 'correct_response': 'left', 'condition': 'go'}, {'fileName': 'circleblack.png', 'correct_response': 'left', 'condition': 'stop'}, {'fileName': 'squareblack.png', 'correct_response': 'right', 'condition': 'go'}, {'fileName': 'squareblack.png', 'correct_response': 'right', 'condition': 'stop'}, {'fileName': 'circleblack.png', 'correct_response': 'left', 'condition': 'go'}, {'fileName': 'squareblack.png', 'correct_response': 'right', 'condition': 'go'}, {'fileName': 'squareblack.png', 'correct_response': 'right', 'condition': 'go'}, {'fileName': 'circleblack.png', 'correct_response': 'left', 'condition': 'go'}, {'fileName': 'squareblack.png', 'correct_response': 'right', 'condition': 'go'}, {'fileName': 'circleblack.png', 'correct_response': 'left', 'condition': 'stop'}, {'fileName': 'squareblack.png', 'correct_response': 'right', 'condition': 'stop'}, {'fileName': 'circleblack.png', 'correct_response': 'left', 'condition': 'go'}, {'fileName': 'circleblack.png', 'correct_response': 'left', 'condition': 'go'}, {'fileName': 'squareblack.png', 'correct_response': 'right', 'condition': 'go'}, {'fileName': 'circleblack.png', 'correct_response': 'left', 'condition': 'go'}, {'fileName': 'squareblack.png', 'correct_response': 'right', 'condition': 'go'}, {'fileName': 'circleblack.png', 'correct_response': 'left', 'condition': 'stop'}, {'fileName': 'squareblack.png', 'correct_response': 'right', 'condition': 'stop'}, {'fileName': 'squareblack.png', 'correct_response': 'right', 'condition': 'go'}, {'fileName': 'circleblack.png', 'correct_response': 'left', 'condition': 'stop'}, {'fileName': 'circleblack.png', 'correct_response': 'left', 'condition': 'go'}, {'fileName': 'circleblack.png', 'correct_response': 'left', 'condition': 'go'}, {'fileName': 'squareblack.png', 'correct_response': 'right', 'condition': 'stop'}, {'fileName': 'squareblack.png', 'correct_response': 'right', 'condition': 'go'}, {'fileName': 'circleblack.png', 'correct_response': 'left', 'condition': 'go'}, {'fileName': 'squareblack.png', 'correct_response': 'right', 'condition': 'go'}, {'fileName': 'squareblack.png', 'correct_response': 'right', 'condition': 'go'}, {'fileName': 'squareblack.png', 'correct_response': 'right', 'condition': 'go'}, {'fileName': 'circleblack.png', 'correct_response': 'left', 'condition': 'stop'}, {'fileName': 'circleblack.png', 'correct_response': 'left', 'condition': 'go'}, {'fileName': 'squareblack.png', 'correct_response': 'right', 'condition': 'stop'}, {'fileName': 'circleblack.png', 'correct_response': 'left', 'condition': 'go'}, {'fileName': 'circleblack.png', 'correct_response': 'left', 'condition': 'stop'}, {'fileName': 'circleblack.png', 'correct_response': 'left', 'condition': 'go'}, {'fileName': 'squareblack.png', 'correct_response': 'right', 'condition': 'go'}, {'fileName': 'squareblack.png', 'correct_response': 'right', 'condition': 'stop'}, {'fileName': 'squareblack.png', 'correct_response': 'right', 'condition': 'go'}, {'fileName': 'circleblack.png', 'correct_response': 'left', 'condition': 'go'}, {'fileName': 'circleblack.png', 'correct_response': 'left', 'condition': 'go'}, {'fileName': 'circleblack.png', 'correct_response': 'left', 'condition': 'go'}, {'fileName': 'squareblack.png', 'correct_response': 'right', 'condition': 'stop'}, {'fileName': 'circleblack.png', 'correct_response': 'left', 'condition': 'go'}, {'fileName': 'circleblack.png', 'correct_response': 'left', 'condition': 'stop'}, {'fileName': 'squareblack.png', 'correct_response': 'right', 'condition': 'stop'}, {'fileName': 'squareblack.png', 'correct_response': 'right', 'condition': 'go'}, {'fileName': 'squareblack.png', 'correct_response': 'right', 'condition': 'go'}, {'fileName': 'circleblack.png', 'correct_response': 'left', 'condition': 'stop'}, {'fileName': 'squareblack.png', 'correct_response': 'right', 'condition': 'go'}]",,,,,,,,,,,,,,,,,,,,,,,,,,,,,,,,,,,,,,,,,,,,,,,,,,,,,670.2011438421905,670.2011438421905,return,4.407358057796955,,,,,,,s008,001,2024-07-12_16h57.12.021,simplestop_skeleton,2022.2.2,59.849078064682956,
None,None,,,,,,,,,1,0,1,0,0,0,0,3,,,,,,,,,674.6344435662031,go,circleblack.png,left,0.25,,,,,,,,,,,,,,,,,0.0013309754431247711,0.49034593626856804,,677.1379777491093,test,2,,,,,,,,674.6532694809139,675.150970119983,675.150970119983,675.1678857281804,675.4010694287717,675.9020207226276,676.1525610461831,677.1568290665746,left,1,0.25,0.7515826597809792,,,,,,,,,,,s008,001,2024-07-12_16h57.12.021,simplestop_skeleton,2022.2.2,59.849078064682956,
None,None,,,,,,,,,1,0,1,0,0,1,1,1,,,,,,,,,677.1385026611388,stop,circleblack.png,left,0.25,,,,,,,,,,,,,,,,,0.0013893283903598785,0.4895084463059902,0.7397272065281868,679.6404735967517,test,2,,,,,,,,677.1568290665746,677.6536309532821,677.6536309532821,677.6705163344741,677.9040480218828,678.4051059521735,678.6548260822892,679.6595483347774,None,0,0.3,,,,,,,,,,,,s008,001,2024-07-12_16h57.12.021,simplestop_skeleton,2022.2.2,59.849078064682956,
None,None,,,,,,,,,1,0,1,0,0,2,2,3,,,,,,,,,679.6408988088369,go,squareblack.png,right,0.3,,,,,,,,,,,,,,,,,0.0016848407685756683,0.4900470897555351,,682.1434277743101,test,2,,,,,,,,679.6595483347774,680.1566464677453,680.1566464677453,680.1733597107232,680.4573768340051,680.9728573895991,681.1570652797818,682.1622112467885,right,1,0.3,0.44382258132100105,,,,,,,,,,,s008,001,2024-07-12_16h57.12.021,simplestop_skeleton,2022.2.2,59.849078064682956,
$currentCorrectResponse,$currentGoStim,,,,,,,,,1,0,1,0,0,3,3,0,,,,,,,,,682.143930375576,stop,squareblack.png,right,0.3,,,,,,,,,,,,,,,,,0.0012794584035873413,0.48954641819000244,0.7901101596653461,684.646089900285,test,2,,,,,,,,682.1622112467885,682.659397739917,682.659397739917,682.6762357950211,682.9595754258335,683.4602438248694,683.6606467850506,684.6656005978584,None,0,0.35,,,,,,,,,,,,s008,001,2024-07-12_16h57.12.021,simplestop_skeleton,2022.2.2,59.849078064682956,
None,None,,,,,,,,,1,0,1,0,1,0,4,2,,,,,,,,,684.646520588547,go,circleblack.png,left,0.35,,,,,,,,,,,,,,,,,0.002001360058784485,0.49005555361509323,,687.1492239572108,test,2,,,,,,,,684.6656005978584,685.1621049903333,685.1621049903333,685.1788728125393,685.5126639790833,686.0134381651878,686.1625927872956,687.1688007749617,left,1,0.35,0.4255793020129204,,,,,,,,,,,s008,001,2024-07-12_16h57.12.021,simplestop_skeleton,2022.2.2,59.849078064682956,
None,None,,,,,,,,,1,0,1,0,1,1,5,2,,,,,,,,,687.149656958878,go,squareblack.png,right,0.35,,,,,,,,,,,,,,,,,0.0018965117633342743,0.48908698186278343,,689.6519469209015,test,2,,,,,,,,687.1688007749617,687.6650387905538,687.6650387905538,687.6814486458898,688.015655066818,688.5154469870031,688.6656193099916,689.6707655601203,right,1,0.35,0.42764006555080414,,,,,,,,,,,s008,001,2024-07-12_16h57.12.021,simplestop_skeleton,2022.2.2,59.849078064682956,
None,None,,,,,,,,,1,0,1,0,1,2,6,1,,,,,,,,,689.6523842960596,go,squareblack.png,right,0.35,,,,,,,,,,,,,,,,,0.0013040341436862946,0.4895833879709244,,692.1546272225678,test,2,,,,,,,,689.6707655601203,690.167571566999,690.167571566999,690.1843483708799,690.518555149436,691.0176942721009,691.1686683669686,692.17401689291,right,1,0.35,0.6557895056903362,,,,,,,,,,,s008,001,2024-07-12_16h57.12.021,simplestop_skeleton,2022.2.2,59.849078064682956,
$currentCorrectResponse,$currentGoStim,,,,,,,,,1,0,1,0,1,3,7,0,,,,,,,,,692.1550649926066,go,circleblack.png,left,0.35,,,,,,,,,,,,,,,,,0.0020146816968917847,0.4893132261931896,,694.6569693796337,test,2,,,,,,,,692.17401689291,692.6704956367612,692.6704956367612,692.6870967186987,693.0207672528923,693.5197836719453,693.6711307130754,694.676269043237,left,1,0.35,0.522465955466032,,,,,,,,,,,s008,001,2024-07-12_16h57.12.021,simplestop_skeleton,2022.2.2,59.849078064682956,
None,None,,,,,,,,,1,0,1,0,2,0,8,1,,,,,,,,,694.6574113368988,go,squareblack.png,right,0.35,,,,,,,,,,,,,,,,,0.0016802847385406494,0.4898605979979038,,697.159994866699,test,2,,,,,,,,694.676269043237,695.1729101985693,695.1729101985693,695.1895993761718,695.5232477299869,696.0231613740325,696.1737234145403,697.1796324700117,right,1,0.35,0.548304844647646,,,,,,,,,,,s008,001,2024-07-12_16h57.12.021,simplestop_skeleton,2022.2.2,59.849078064682956,
$currentCorrectResponse,$currentGoStim,,,,,,,,,1,0,1,0,2,1,9,0,,,,,,,,,697.1604224517941,stop,circleblack.png,left,0.35,,,,,,,,,,,,,,,,,0.0019043684005737305,0.48959315940737724,0.8398743197321892,699.6625726260245,test,2,,,,,,,,697.1796324700117,697.6759635135531,697.6759635135531,697.6927250698209,698.0261683799326,698.5264534540474,698.6763656660914,699.6816947124898,left,1,0.3,0.3753974623978138,,,,,,,,,,,s008,001,2024-07-12_16h57.12.021,simplestop_skeleton,2022.2.2,59.849078064682956,
$currentCorrectResponse,$currentGoStim,,,,,,,,,1,0,1,0,2,2,10,0,,,,,,,,,699.6630811132491,stop,squareblack.png,right,0.3,,,,,,,,,,,,,,,,,0.0016093999147415161,0.4898157976567745,0.7898896150290966,702.1652874462306,test,2,,,,,,,,699.6816947124898,700.1787081062794,700.1787081062794,700.1957137174904,700.4791776686907,700.9797260351479,701.1796624846756,702.184279538691,None,0,0.35,,,,,,,,,,,,s008,001,2024-07-12_16h57.12.021,simplestop_skeleton,2022.2.2,59.849078064682956,
None,None,,,,,,,,,1,0,1,0,2,3,11,3,,,,,,,,,702.1657159663737,go,circleblack.png,left,0.35,,,,,,,,,,,,,,,,,0.0017373040318489075,0.48991839960217476,,704.6680592447519,test,2,,,,,,,,702.184279538691,702.6811427548528,702.6811427548528,702.6981978416443,703.0318083502352,703.5318891219795,703.6817898377776,704.686964366585,left,1,0.35,0.44818493351340294,,,,,,,,,,,s008,001,2024-07-12_16h57.12.021,simplestop_skeleton,2022.2.2,59.849078064682956,
None,None,,,,,,,,,1,0,1,0,3,0,12,2,,,,,,,,,704.6684933416545,go,circleblack.png,left,0.35,,,,,,,,,,,,,,,,,0.001345355063676834,0.48968325182795525,,707.1708913706243,test,2,,,,,,,,704.686964366585,705.1839354559779,705.1839354559779,705.2006110176444,705.5343980677426,706.0339144915342,706.1847032047808,707.1900778673589,left,1,0.35,0.4840099774301052,,,,,,,,,,,s008,001,2024-07-12_16h57.12.021,simplestop_skeleton,2022.2.2,59.849078064682956,
$currentCorrectResponse,$currentGoStim,,,,,,,,,1,0,1,0,3,1,13,0,,,,,,,,,707.1713328994811,go,squareblack.png,right,0.35,,,,,,,,,,,,,,,,,0.001663990318775177,0.4895450286567211,,709.6733875907958,test,2,,,,,,,,707.1900778673589,707.6869407854974,707.6869407854974,707.703559808433,708.0371654890478,708.5370590873063,708.6873934268951,709.692645534873,right,1,0.35,0.5383570119738579,,,,,,,,,,,s008,001,2024-07-12_16h57.12.021,simplestop_skeleton,2022.2.2,59.849078064682956,
None,None,,,,,,,,,1,0,1,0,3,2,14,3,,,,,,,,,709.6738168150187,go,circleblack.png,left,0.35,,,,,,,,,,,,,,,,,0.0017664358019828796,0.490025132894516,,712.1766092777252,test,2,,,,,,,,709.692645534873,710.189674437046,710.189674437046,710.2063240557909,710.5399043411016,711.0391155146062,711.1906019188464,712.1956743448973,left,1,0.35,0.5083625391125679,,,,,,,,,,,s008,001,2024-07-12_16h57.12.021,simplestop_skeleton,2022.2.2,59.849078064682956,
$currentCorrectResponse,$currentGoStim,,,,,,,,,1,0,1,0,3,3,15,0,,,,,,,,,712.1770524457097,go,squareblack.png,right,0.35,,,,,,,,,,,,,,,,,0.0016681812703609467,0.4894711412489414,,714.6791746579111,test,2,,,,,,,,712.1956743448973,712.6923931539059,712.6923931539059,712.7091620899737,713.0426503457129,713.5421947576106,713.6927662231028,714.6986152902246,right,1,0.35,0.5649529844522476,,,,,,,,,,,s008,001,2024-07-12_16h57.12.021,simplestop_skeleton,2022.2.2,59.849078064682956,
None,None,,,,,,,,,1,0,1,0,4,0,16,1,,,,,,,,,714.6796218976378,stop,circleblack.png,left,0.35,,,,,,,,,,,,,,,,,0.001862410455942154,0.48952871188521385,0.8397866152226925,717.1819607764482,test,2,,,,,,,,714.6986152902246,715.1952866241336,715.1952866241336,715.2118012942374,715.5455695316195,716.0461792647839,716.196609698236,717.2011082917452,None,0,0.4,,,,,,,,,,,,s008,001,2024-07-12_16h57.12.021,simplestop_skeleton,2022.2.2,59.849078064682956,
None,None,,,,,,,,,1,0,1,0,4,1,17,3,,,,,,,,,717.1824007630348,stop,squareblack.png,right,0.4,,,,,,,,,,,,,,,,,0.0016720332205295563,0.48979825899004936,0.8902732022106647,719.6847998946905,test,2,,,,,,,,717.2011082917452,717.6979475133121,717.6979475133121,717.7149208374321,718.0984116904438,718.5989993214607,718.6991465389729,719.7035189904273,None,0,0.45,,,,,,,,,,,,s008,001,2024-07-12_16h57.12.021,simplestop_skeleton,2022.2.2,59.849078064682956,
None,None,,,,,,,,,1,0,1,0,4,2,18,2,,,,,,,,,719.6852364391088,go,squareblack.png,right,0.45,,,,,,,,,,,,,,,,,0.0013012140989303589,0.4901706352829933,,722.1874993629754,test,2,,,,,,,,719.7035189904273,720.2007094062865,720.2007094062865,720.2174565196037,720.6512241177261,721.1517623886466,721.2004328407347,722.2069105096161,right,1,0.45,0.6947604045271873,,,,,,,,,,,s008,001,2024-07-12_16h57.12.021,simplestop_skeleton,2022.2.2,59.849078064682956,
$currentCorrectResponse,$currentGoStim,,,,,,,,,1,0,1,0,4,3,19,0,,,,,,,,,722.1880347430706,stop,circleblack.png,left,0.45,,,,,,,,,,,,,,,,,0.0018731579184532166,0.48930975049734116,0.9399168565869331,724.6901463419199,test,2,,,,,,,,722.2069105096161,722.7035521939397,722.7035521939397,722.7200112938881,723.1538376845419,723.654478598386,723.7044837735593,724.709159001708,None,0,0.5,,,,,,,,,,,,s008,001,2024-07-12_16h57.12.021,simplestop_skeleton,2022.2.2,59.849078064682956,
None,None,,,,,,,,,1,0,1,0,5,0,20,3,,,,,,,,,724.6905887536705,go,circleblack.png,left,0.5,,,,,,,,,,,,,,,,,0.0013283640146255493,0.4899400770664215,,727.1931612566113,test,2,,,,,,,,724.709159001708,725.2061845622957,725.2061845622957,725.222963731736,725.7067919075489,726.2074215374887,726.2074215374887,727.2121843881905,left,1,0.5,0.6301116086542606,,,,,,,,,,,s008,001,2024-07-12_16h57.12.021,simplestop_skeleton,2022.2.2,59.849078064682956,
$currentCorrectResponse,$currentGoStim,,,,,,,,,1,0,1,0,5,1,21,0,,,,,,,,,727.1936044357717,go,circleblack.png,left,0.5,,,,,,,,,,,,,,,,,0.0014297887682914734,0.48928819224238396,,729.6954713091254,test,2,,,,,,,,727.2121843881905,727.709003854543,727.709003854543,727.7256018705666,728.20963793993,728.725274823606,728.7086593173444,729.7147433646023,left,1,0.5,0.6720297187566757,,,,,,,,,,,s008,001,2024-07-12_16h57.12.021,simplestop_skeleton,2022.2.2,59.849078064682956,
None,None,,,,,,,,,1,0,1,0,5,2,22,3,,,,,,,,,729.695998813957,stop,squareblack.png,right,0.5,,,,,,,,,,,,,,,,,0.0017206929624080658,0.4899803623557091,0.9904334358870983,732.1985725238919,test,2,,,,,,,,729.7147433646023,730.2118024975061,730.2118024975061,730.2284260317683,730.7122761942446,731.2118068784475,731.2118068784475,732.2174669392407,right,1,0.45,0.6894172020256519,,,,,,,,,,,s008,001,2024-07-12_16h57.12.021,simplestop_skeleton,2022.2.2,59.849078064682956,
None,None,,,,,,,,,1,0,1,0,5,3,23,3,,,,,,,,,732.1990034431219,go,squareblack.png,right,0.45,,,,,,,,,,,,,,,,,0.0013619400560855865,0.4894060790538788,,734.7010478563607,test,2,,,,,,,,732.2174669392407,732.7144273668528,732.7144273668528,732.7311741374433,733.1647537052631,733.666068661958,733.7146536558867,734.7203143648803,right,1,0.45,0.698148813098669,,,,,,,,,,,s008,001,2024-07-12_16h57.12.021,simplestop_skeleton,2022.2.2,59.849078064682956,
None,None,,,,,,,,,1,0,1,0,6,0,24,2,,,,,,,,,734.7014777809381,go,circleblack.png,left,0.45,,,,,,,,,,,,,,,,,0.0018205009400844574,0.48993826285004616,,737.2041311636567,test,2,,,,,,,,734.7203143648803,735.2172088436782,735.2172088436782,735.2337637655437,735.6679807901382,736.1681953407824,736.2183075137436,737.223256111145,None,0,0.45,,,,,,,,,,,,s008,001,2024-07-12_16h57.12.021,simplestop_skeleton,2022.2.2,59.849078064682956,
None,None,,,,,,,,,1,0,1,0,6,1,25,2,,,,,,,,,737.2045580409467,go,squareblack.png,right,0.45,,,,,,,,,,,,,,,,,0.0018335245549678802,0.4896264225244522,,739.7067522592843,test,2,,,,,,,,737.223256111145,737.7201330028474,737.7201330028474,737.7368387505412,738.1704668216407,738.6704996451735,738.7206855379045,739.7254786044359,right,1,0.45,0.46001026406884193,,,,,,,,,,,s008,001,2024-07-12_16h57.12.021,simplestop_skeleton,2022.2.2,59.849078064682956,
None,None,,,,,,,,,1,0,1,0,6,2,26,1,,,,,,,,,739.7071947529912,go,squareblack.png,right,0.45,,,,,,,,,,,,,,,,,0.0011795386672019958,0.49005766212940216,,742.2099339924753,test,2,,,,,,,,739.7254786044359,740.2229668349028,740.2229668349028,740.2394925989211,740.6732305847108,741.1731915362179,741.2236561961472,742.228962212801,right,1,0.45,0.4776458144187927,,,,,,,,,,,s008,001,2024-07-12_16h57.12.021,simplestop_skeleton,2022.2.2,59.849078064682956,
$currentCorrectResponse,$currentGoStim,,,,,,,,,1,0,1,0,6,3,27,0,,,,,,,,,742.210375122726,go,squareblack.png,right,0.45,,,,,,,,,,,,,,,,,0.0014976449310779572,0.489446509629488,,744.712200678885,test,2,,,,,,,,742.228962212801,742.7255596779287,742.7255596779287,742.7421737611294,743.1753426380455,743.676556956023,743.7268801927567,744.731804009527,right,1,0.45,0.510793749243021,,,,,,,,,,,s008,001,2024-07-12_16h57.12.021,simplestop_skeleton,2022.2.2,59.849078064682956,
None,None,,,,,,,,,1,0,1,0,7,0,28,2,,,,,,,,,744.7126463912427,stop,circleblack.png,left,0.45,,,,,,,,,,,,,,,,,0.0020137950778007507,0.49000515788793564,0.940195020288229,747.2158547490835,test,2,,,,,,,,744.731804009527,745.2283213585615,745.2283213585615,745.2450584731996,745.6788045652211,746.1779632270336,746.2289791591465,747.2347015887499,left,1,0.4,0.5888972170650959,,,,,,,,,,,s008,001,2024-07-12_16h57.12.021,simplestop_skeleton,2022.2.2,59.849078064682956,
None,None,,,,,,,,,1,0,1,0,7,1,29,2,,,,,,,,,747.2162963822484,go,circleblack.png,left,0.4,,,,,,,,,,,,,,,,,0.001442883163690567,0.48907677456736565,,749.7175425291061,test,2,,,,,,,,747.2347015887499,747.731407251209,747.731407251209,747.747619792819,748.1313334107399,748.6319902464747,748.7322322130203,749.7366903014481,left,1,0.4,0.7121424488723278,,,,,,,,,,,s008,001,2024-07-12_16h57.12.021,simplestop_skeleton,2022.2.2,59.849078064682956,
None,None,,,,,,,,,1,0,1,0,7,2,30,1,,,,,,,,,749.7179657183588,stop,squareblack.png,right,0.4,,,,,,,,,,,,,,,,,0.0017272904515266418,0.48995216563344,0.8904490359127522,752.220710169524,test,2,,,,,,,,749.7366903014481,750.2337461076677,750.2337461076677,750.2505499273539,750.6340681128204,751.1344531215727,751.234655328095,752.239657998085,None,0,0.45,,,,,,,,,,,,s008,001,2024-07-12_16h57.12.021,simplestop_skeleton,2022.2.2,59.849078064682956,
None,None,,,,,,,,,1,0,1,0,7,3,31,2,,,,,,,,,752.221152793616,go,circleblack.png,left,0.45,,,,,,,,,,,,,,,,,0.0016325563192367554,0.48987554013729095,,754.7233942747116,test,2,,,,,,,,752.239657998085,752.736866209656,752.736866209656,752.7532887756824,753.187258258462,753.6867716610432,753.7374971844256,754.7422035448253,left,1,0.45,0.6088204719126225,,,,,,,,,,,s008,001,2024-07-12_16h57.12.021,simplestop_skeleton,2022.2.2,59.849078064682956,
None,None,,,,,,,,,1,0,1,0,8,0,32,1,,,,,,,,,754.7238300517201,stop,circleblack.png,left,0.45,,,,,,,,,,,,,,,,,0.0013933628797531128,0.49004657939076424,0.9400695152580738,757.2261058166623,test,2,,,,,,,,754.7422035448253,755.2394609600306,755.2394609600306,755.2563053481281,755.689908247441,756.1904004849494,756.2403597906232,757.2451881729066,None,0,0.5,,,,,,,,,,,,s008,001,2024-07-12_16h57.12.021,simplestop_skeleton,2022.2.2,59.849078064682956,
None,None,,,,,,,,,1,0,1,0,8,1,33,3,,,,,,,,,757.226533588022,go,circleblack.png,left,0.5,,,,,,,,,,,,,,,,,0.001362830400466919,0.48933976888656616,,759.7292769737542,test,2,,,,,,,,757.2451881729066,757.7422577291727,757.7422577291727,757.7589466273785,758.242801874876,758.7421366982162,758.7421366982162,759.7515968568623,left,1,0.5,0.6604978255927563,,,,,,,,,,,s008,001,2024-07-12_16h57.12.021,simplestop_skeleton,2022.2.2,59.849078064682956,
None,None,,,,,,,,,1,0,1,0,8,2,34,1,,,,,,,,,759.7297075614333,go,squareblack.png,right,0.5,,,,,,,,,,,,,,,,,0.007346067577600479,0.48965515196323395,,762.2314868234098,test,2,,,,,,,,759.7515968568623,760.2447029724717,760.2447029724717,760.2615917995572,760.745445240289,761.2454645745456,761.2454645745456,762.2502133846283,right,1,0.5,0.8362879864871502,,,,,,,,,,,s008,001,2024-07-12_16h57.12.021,simplestop_skeleton,2022.2.2,59.849078064682956,
None,None,,,,,,,,,1,0,1,0,8,3,35,2,,,,,,,,,762.2319197915494,stop,squareblack.png,right,0.5,,,,,,,,,,,,,,,,,0.0011906027793884277,0.48977963998913765,0.9904521964490414,764.7345668897033,test,2,,,,,,,,762.2502133846283,762.7477688118815,762.7477688118815,762.7642213590443,763.2481490932405,763.748726554215,763.748726554215,764.7531476579607,None,0,0.55,,,,,,,,,,,,s008,001,2024-07-12_16h57.12.021,simplestop_skeleton,2022.2.2,59.849078064682956,
None,None,,,,,,,,,1,0,1,0,9,0,36,3,,,,,,,,,764.7350013107061,go,squareblack.png,right,0.55,,,,,,,,,,,,,,,,,0.0012688636779785156,0.4896886795759201,,767.2370243407786,test,2,,,,,,,,764.7531476579607,765.2503300458193,765.2503300458193,765.2671318724751,765.8009720407426,766.3001717217267,766.2519171908498,767.2564357072115,right,1,0.55,0.7102968879044056,,,,,,,,,,,s008,001,2024-07-12_16h57.12.021,simplestop_skeleton,2022.2.2,59.849078064682956,
None,None,,,,,,,,,1,0,1,0,9,1,37,2,,,,,,,,,767.2374574877322,go,circleblack.png,left,0.55,,,,,,,,,,,,,,,,,0.001958344131708145,0.48965711891651154,,769.7396263629198,test,2,,,,,,,,767.2564357072115,767.7529365681112,767.7529365681112,767.7696752808988,768.3036151379347,768.8041775487363,768.7541419528425,769.757934872061,left,1,0.55,0.8725074157118797,,,,,,,,,,,s008,001,2024-07-12_16h57.12.021,simplestop_skeleton,2022.2.2,59.849078064682956,
None,None,,,,,,,,,1,0,1,0,9,2,38,2,,,,,,,,,769.7400619238615,go,circleblack.png,left,0.55,,,,,,,,,,,,,,,,,0.0012480616569519043,0.4900957942008972,,772.2425891906023,test,2,,,,,,,,769.757934872061,770.2557595856488,770.2557595856488,770.2725902348757,770.8068708516657,771.3066778108478,771.2562447190285,772.2618453763425,left,1,0.55,0.5506523624062538,,,,,,,,,,,s008,001,2024-07-12_16h57.12.021,simplestop_skeleton,2022.2.2,59.849078064682956,
None,None,,,,,,,,,1,0,1,0,9,3,39,1,,,,,,,,,772.2430164404213,go,circleblack.png,left,0.55,,,,,,,,,,,,,,,,,0.001392412930727005,0.489480409771204,,774.7452849633992,test,2,,,,,,,,772.2618453763425,772.7585745118558,772.7585745118558,772.7751838378608,773.309213321656,773.8094956129789,773.7591805197299,774.7646053396165,left,1,0.55,0.3703226260840893,,,,,,,,,,,s008,001,2024-07-12_16h57.12.021,simplestop_skeleton,2022.2.2,59.849078064682956,
None,None,,,,,,,,,1,0,1,0,10,0,40,3,,,,,,,,,774.7457274161279,stop,squareblack.png,right,0.55,,,,,,,,,,,,,,,,,0.0016178004443645477,0.489921934902668,1.0403637774288654,777.2482513226569,test,2,,,,,,,,774.7646053396165,775.2615291588008,775.2615291588008,775.2781512327492,775.8118989989161,776.3119959309697,776.2621484100819,777.2674132436514,right,1,0.5,0.4630023464560509,,,,,,,,,,,s008,001,2024-07-12_16h57.12.021,simplestop_skeleton,2022.2.2,59.849078064682956,
None,None,,,,,,,,,1,0,1,0,10,1,41,3,,,,,,,,,777.2486805096269,go,circleblack.png,left,0.5,,,,,,,,,,,,,,,,,0.0018419399857521057,0.4883282445371151,,779.7509882040322,test,2,,,,,,,,777.2674132436514,777.7628283202648,777.7628283202648,777.7818283587694,778.2646961472929,778.7651249803603,778.7651249803603,779.7700683698058,left,1,0.5,0.8844203390181065,,,,,,,,,,,s008,001,2024-07-12_16h57.12.021,simplestop_skeleton,2022.2.2,59.849078064682956,
None,None,,,,,,,,,1,0,1,0,10,2,42,1,,,,,,,,,779.7514299824834,stop,circleblack.png,left,0.5,,,,,,,,,,,,,,,,,0.0014095418155193329,0.4896502383053303,0.9903811402618885,782.2538577504456,test,2,,,,,,,,779.7700683698058,780.2668419331312,780.2668419331312,780.2836746163666,780.7674011141062,781.2675354145467,781.2675354145467,782.2734114862978,left,1,0.45,0.5146428756415844,,,,,,,,,,,s008,001,2024-07-12_16h57.12.021,simplestop_skeleton,2022.2.2,59.849078064682956,
$currentCorrectResponse,$currentGoStim,,,,,,,,,1,0,1,0,10,3,43,0,,,,,,,,,782.2542883530259,stop,squareblack.png,right,0.45,,,,,,,,,,,,,,,,,0.0017880313098430634,0.4891030974686146,0.9399182535707951,784.7564244270325,test,2,,,,,,,,782.2734114862978,782.7695452831686,782.7695452831686,782.7863559983671,783.2200553752482,783.7232845053077,783.7693188376725,784.7751700393856,None,0,0.5,,,,,,,,,,,,s008,001,2024-07-12_16h57.12.021,simplestop_skeleton,2022.2.2,59.849078064682956,
$currentCorrectResponse,$currentGoStim,,,,,,,,,1,0,1,0,11,0,44,0,,,,,,,,,784.7568667680025,go,squareblack.png,right,0.5,,,,,,,,,,,,,,,,,0.0011868737637996674,0.4898752123117447,,787.2592734768987,test,2,,,,,,,,784.7751700393856,785.2724709920585,785.2724709920585,785.2889958247542,785.7729801535606,786.2727571800351,786.2727571800351,787.2780497260392,right,1,0.5,0.501287218183279,,,,,,,,,,,s008,001,2024-07-12_16h57.12.021,simplestop_skeleton,2022.2.2,59.849078064682956,
None,None,,,,,,,,,1,0,1,0,11,1,45,1,,,,,,,,,787.2597126737237,go,squareblack.png,right,0.5,,,,,,,,,,,,,,,,,0.0013126879930496216,0.48970720171928406,,789.7616464421153,test,2,,,,,,,,787.2780497260392,787.7751982957125,787.7751982957125,787.7917020879686,788.2757779322565,788.776337325573,788.776337325573,789.7808243446052,right,1,0.5,0.7777537032961845,,,,,,,,,,,s008,001,2024-07-12_16h57.12.021,simplestop_skeleton,2022.2.2,59.849078064682956,
None,None,,,,,,,,,1,0,1,0,11,2,46,1,,,,,,,,,789.7620709612966,stop,circleblack.png,left,0.5,,,,,,,,,,,,,,,,,0.0018391124904155731,0.49005989730358124,0.9905988834798336,792.2648848257959,test,2,,,,,,,,789.7808243446052,790.2778296396136,790.2778296396136,790.2944871485233,790.7785364240408,791.278729096055,791.278729096055,792.2839938662946,left,1,0.45,0.4400915056467056,,,,,,,,,,,s008,001,2024-07-12_16h57.12.021,simplestop_skeleton,2022.2.2,59.849078064682956,
$currentCorrectResponse,$currentGoStim,,,,,,,,,1,0,1,0,11,3,47,0,,,,,,,,,792.265318300575,go,squareblack.png,right,0.45,,,,,,,,,,,,,,,,,0.0017999745905399323,0.48953209072351456,,794.7677484601736,test,2,,,,,,,,792.2839938662946,792.7806398570538,792.7806398570538,792.7974688746035,793.2312826476991,793.7306401357055,793.7808141559362,794.7832600995898,right,1,0.45,0.608525525778532,,,,,,,,,,,s008,001,2024-07-12_16h57.12.021,simplestop_skeleton,2022.2.2,59.849078064682956,
,,,,,,,,,,1,0,1,0,,,,,,,,,,,,,,,,,,,,,,,,,,,,,,,,,,,,,,,,,,,,,,,,,,,,,,,,,,,794.7832600995898,794.7832600995898,return,10.154587775468826,"[{'fileName': 'squareblack.png', 'correct_response': 'right', 'condition': 'stop'}, {'fileName': 'circleblack.png', 'correct_response': 'left', 'condition': 'stop'}, {'fileName': 'circleblack.png', 'correct_response': 'left', 'condition': 'go'}, {'fileName': 'circleblack.png', 'correct_response': 'left', 'condition': 'go'}, {'fileName': 'squareblack.png', 'correct_response': 'right', 'condition': 'go'}, {'fileName': 'squareblack.png', 'correct_response': 'right', 'condition': 'go'}, {'fileName': 'circleblack.png', 'correct_response': 'left', 'condition': 'go'}, {'fileName': 'circleblack.png', 'correct_response': 'left', 'condition': 'go'}, {'fileName': 'squareblack.png', 'correct_response': 'right', 'condition': 'go'}, {'fileName': 'circleblack.png', 'correct_response': 'left', 'condition': 'stop'}, {'fileName': 'squareblack.png', 'correct_response': 'right', 'condition': 'go'}, {'fileName': 'squareblack.png', 'correct_response': 'right', 'condition': 'stop'}, {'fileName': 'circleblack.png', 'correct_response': 'left', 'condition': 'stop'}, {'fileName': 'squareblack.png', 'correct_response': 'right', 'condition': 'go'}, {'fileName': 'circleblack.png', 'correct_response': 'left', 'condition': 'go'}, {'fileName': 'squareblack.png', 'correct_response': 'right', 'condition': 'go'}, {'fileName': 'circleblack.png', 'correct_response': 'left', 'condition': 'stop'}, {'fileName': 'circleblack.png', 'correct_response': 'left', 'condition': 'go'}, {'fileName': 'squareblack.png', 'correct_response': 'right', 'condition': 'stop'}, {'fileName': 'squareblack.png', 'correct_response': 'right', 'condition': 'go'}, {'fileName': 'squareblack.png', 'correct_response': 'right', 'condition': 'stop'}, {'fileName': 'circleblack.png', 'correct_response': 'left', 'condition': 'go'}, {'fileName': 'squareblack.png', 'correct_response': 'right', 'condition': 'go'}, {'fileName': 'circleblack.png', 'correct_response': 'left', 'condition': 'go'}, {'fileName': 'circleblack.png', 'correct_response': 'left', 'condition': 'go'}, {'fileName': 'circleblack.png', 'correct_response': 'left', 'condition': 'go'}, {'fileName': 'squareblack.png', 'correct_response': 'right', 'condition': 'stop'}, {'fileName': 'squareblack.png', 'correct_response': 'right', 'condition': 'go'}, {'fileName': 'circleblack.png', 'correct_response': 'left', 'condition': 'go'}, {'fileName': 'squareblack.png', 'correct_response': 'right', 'condition': 'go'}, {'fileName': 'circleblack.png', 'correct_response': 'left', 'condition': 'stop'}, {'fileName': 'squareblack.png', 'correct_response': 'right', 'condition': 'go'}, {'fileName': 'circleblack.png', 'correct_response': 'left', 'condition': 'go'}, {'fileName': 'squareblack.png', 'correct_response': 'right', 'condition': 'stop'}, {'fileName': 'circleblack.png', 'correct_response': 'left', 'condition': 'stop'}, {'fileName': 'squareblack.png', 'correct_response': 'right', 'condition': 'go'}, {'fileName': 'circleblack.png', 'correct_response': 'left', 'condition': 'go'}, {'fileName': 'circleblack.png', 'correct_response': 'left', 'condition': 'go'}, {'fileName': 'squareblack.png', 'correct_response': 'right', 'condition': 'stop'}, {'fileName': 'circleblack.png', 'correct_response': 'left', 'condition': 'go'}, {'fileName': 'squareblack.png', 'correct_response': 'right', 'condition': 'go'}, {'fileName': 'squareblack.png', 'correct_response': 'right', 'condition': 'stop'}, {'fileName': 'circleblack.png', 'correct_response': 'left', 'condition': 'stop'}, {'fileName': 'squareblack.png', 'correct_response': 'right', 'condition': 'go'}, {'fileName': 'squareblack.png', 'correct_response': 'right', 'condition': 'go'}, {'fileName': 'circleblack.png', 'correct_response': 'left', 'condition': 'stop'}, {'fileName': 'squareblack.png', 'correct_response': 'right', 'condition': 'go'}, {'fileName': 'circleblack.png', 'correct_response': 'left', 'condition': 'go'}]",,,,,,s008,001,2024-07-12_16h57.12.021,simplestop_skeleton,2022.2.2,59.849078064682956,
$currentCorrectResponse,$currentGoStim,,,,,,,,,2,0,2,0,0,0,0,0,,,,,,,,,804.9613411612809,stop,squareblack.png,right,0.45,,,,,,,,,,,,,,,,,0.0019194968044757843,0.48942825570702553,0.939776036888361,807.4651873968542,test,3,,,,,,,,804.9808657467365,805.478062171489,805.478062171489,805.4950962364674,805.9286338947713,806.429191172123,806.479163531214,807.4895084425807,None,0,0.5,,,,,,,,,,,,s008,001,2024-07-12_16h57.12.021,simplestop_skeleton,2022.2.2,59.849078064682956,
None,None,,,,,,,,,2,0,2,0,0,1,1,2,,,,,,,,,807.4657156467438,stop,circleblack.png,left,0.5,,,,,,,,,,,,,,,,,0.0074593015015125275,0.4894319772720337,0.9898626208305359,809.9676237627864,test,3,,,,,,,,807.4895084425807,807.981144785881,807.981144785881,807.9977472536266,808.4821626134217,808.9818793870509,808.9818793870509,809.9871390536427,left,1,0.45,0.4602466896176338,,,,,,,,,,,s008,001,2024-07-12_16h57.12.021,simplestop_skeleton,2022.2.2,59.849078064682956,
None,None,,,,,,,,,2,0,2,0,0,2,2,2,,,,,,,,,809.9680463075638,go,circleblack.png,left,0.45,,,,,,,,,,,,,,,,,0.0013982243835926056,0.48977192491292953,,812.4703131206334,test,3,,,,,,,,809.9871390536427,810.4841313734651,810.4841313734651,810.5008056648076,810.9340389929712,811.434611979872,811.4849584549665,812.4890556186438,left,1,0.45,0.840213667601347,,,,,,,,,,,s008,001,2024-07-12_16h57.12.021,simplestop_skeleton,2022.2.2,59.849078064682956,
None,None,,,,,,,,,2,0,2,0,0,3,3,2,,,,,,,,,812.4707443900406,go,circleblack.png,left,0.45,,,,,,,,,,,,,,,,,0.0012607350945472717,0.4901202581822872,,814.9730735905468,test,3,,,,,,,,812.4890556186438,812.9865987971425,812.9865987971425,813.0032159909606,813.4368666149676,813.9364807754755,813.9862788952887,814.9973555877805,left,1,0.45,0.5850009098649025,,,,,,,,,,,s008,001,2024-07-12_16h57.12.021,simplestop_skeleton,2022.2.2,59.849078064682956,
$currentCorrectResponse,$currentGoStim,,,,,,,,,2,0,2,0,1,0,4,0,,,,,,,,,814.9735085628927,go,squareblack.png,right,0.45,,,,,,,,,,,,,,,,,0.007196050137281418,0.4896024391055107,,817.4759312197566,test,3,,,,,,,,814.9973555877805,815.4890774339437,815.4890774339437,815.5062527917325,815.9395739734173,816.4397802576423,816.4902492724359,817.495061788708,right,1,0.45,0.3911295048892498,,,,,,,,,,,s008,001,2024-07-12_16h57.12.021,simplestop_skeleton,2022.2.2,59.849078064682956,
None,None,,,,,,,,,2,0,2,0,1,1,5,2,,,,,,,,,817.4763700515032,go,squareblack.png,right,0.45,,,,,,,,,,,,,,,,,0.001347023993730545,0.48930032923817635,,819.9785759188235,test,3,,,,,,,,817.495061788708,817.9917599111795,817.9917599111795,818.0086988955736,818.4424054920673,818.9425045959651,818.9925261735916,819.9984491914511,right,1,0.45,0.5009051896631718,,,,,,,,,,,s008,001,2024-07-12_16h57.12.021,simplestop_skeleton,2022.2.2,59.849078064682956,
None,None,,,,,,,,,2,0,2,0,1,2,6,1,,,,,,,,,819.9790167585015,go,circleblack.png,left,0.45,,,,,,,,,,,,,,,,,0.0018518827855587006,0.4897543676197529,,822.4814526252449,test,3,,,,,,,,819.9984491914511,820.4946068972349,820.4946068972349,820.5115236081183,820.9452860616148,821.4442337267101,821.4948390796781,822.5002477951348,left,1,0.45,0.5760196559131145,,,,,,,,,,,s008,001,2024-07-12_16h57.12.021,simplestop_skeleton,2022.2.2,59.849078064682956,
None,None,,,,,,,,,2,0,2,0,1,3,7,1,,,,,,,,,822.4819115251303,go,circleblack.png,left,0.45,,,,,,,,,,,,,,,,,0.0014250949025154114,0.48985571041703224,,824.9843425750732,test,3,,,,,,,,822.5002477951348,822.9973135925829,822.9973135925829,823.0139883309603,823.4480781145394,823.9483135901392,823.9986726231873,825.0037470124662,left,1,0.45,0.8136634565889835,,,,,,,,,,,s008,001,2024-07-12_16h57.12.021,simplestop_skeleton,2022.2.2,59.849078064682956,
$currentCorrectResponse,$currentGoStim,,,,,,,,,2,0,2,0,2,0,8,0,,,,,,,,,824.9847898036242,go,squareblack.png,right,0.45,,,,,,,,,,,,,,,,,0.0017699450254440308,0.4895354211330414,,827.4872475229204,test,3,,,,,,,,825.0037470124662,825.5001746155322,825.5001746155322,825.5166668780148,825.9504624567926,826.4500207006931,826.5004079788923,827.5064970627427,right,1,0.45,0.6355513371527195,,,,,,,,,,,s008,001,2024-07-12_16h57.12.021,simplestop_skeleton,2022.2.2,59.849078064682956,
$currentCorrectResponse,$currentGoStim,,,,,,,,,2,0,2,0,2,1,9,0,,,,,,,,,827.4877175651491,stop,circleblack.png,left,0.45,,,,,,,,,,,,,,,,,0.0018393918871879578,0.4894201122224331,0.9403547458350658,829.9898550212383,test,3,,,,,,,,827.5064970627427,828.0029757097363,828.0029757097363,828.0195920579135,828.4539953656495,828.9532696083188,829.0034946836531,830.0091890580952,right,0,0.4,0.4263819716870785,,,,,,,,,,,s008,001,2024-07-12_16h57.12.021,simplestop_skeleton,2022.2.2,59.849078064682956,
None,None,,,,,,,,,2,0,2,0,2,2,10,2,,,,,,,,,829.9903338700533,go,squareblack.png,right,0.4,,,,,,,,,,,,,,,,,0.0016729086637496948,0.48965492472052574,,832.4925748631358,test,3,,,,,,,,830.0091890580952,830.5062000192702,830.5062000192702,830.5225520804524,830.9061560481787,831.406916167587,831.5056033954024,832.5111093558371,right,1,0.4,0.6329617388546467,,,,,,,,,,,s008,001,2024-07-12_16h57.12.021,simplestop_skeleton,2022.2.2,59.849078064682956,
$currentCorrectResponse,$currentGoStim,,,,,,,,,2,0,2,0,2,3,11,0,,,,,,,,,832.4930111467838,stop,squareblack.png,right,0.4,,,,,,,,,,,,,,,,,0.0012745633721351624,0.4896720014512539,0.8904295042157173,834.9951798282564,test,3,,,,,,,,832.5111093558371,833.0083803497255,833.0083803497255,833.0254246145487,833.4088854491711,833.9100580960512,834.0087989233434,835.0148311369121,right,1,0.35,0.49969907104969025,,,,,,,,,,,s008,001,2024-07-12_16h57.12.021,simplestop_skeleton,2022.2.2,59.849078064682956,
$currentCorrectResponse,$currentGoStim,,,,,,,,,2,0,2,0,3,0,12,0,,,,,,,,,834.9956044889987,stop,circleblack.png,left,0.35,,,,,,,,,,,,,,,,,0.0019377917051315308,0.48969344049692154,0.8403030373156071,837.4983535036445,test,3,,,,,,,,835.0148311369121,835.51119203493,835.51119203493,835.5279967039824,835.8617987670004,836.3623808808625,836.5123313218355,837.5175999067724,None,0,0.4,,,,,,,,,,,,s008,001,2024-07-12_16h57.12.021,simplestop_skeleton,2022.2.2,59.849078064682956,
None,None,,,,,,,,,2,0,2,0,3,1,13,1,,,,,,,,,837.4987815991044,go,squareblack.png,right,0.4,,,,,,,,,,,,,,,,,0.0018189884722232819,0.4894348382949829,,840.000844180584,test,3,,,,,,,,837.5175999067724,838.0139932893217,838.0139932893217,838.0306685715914,838.4148797281086,838.9159156195819,839.0144161768258,840.0201486423612,right,1,0.4,0.5040566958487034,,,,,,,,,,,s008,001,2024-07-12_16h57.12.021,simplestop_skeleton,2022.2.2,59.849078064682956,
None,None,,,,,,,,,2,0,2,0,3,2,14,3,,,,,,,,,840.0012827664614,go,circleblack.png,left,0.4,,,,,,,,,,,,,,,,,0.0018546879291534424,0.49015384167432785,,842.5033233352005,test,3,,,,,,,,840.0201486423612,840.5168228819966,840.5168228819966,840.5333759114146,840.9174142479897,841.4173698760569,841.5173743292689,842.5224938690662,left,1,0.4,0.47581879794597626,,,,,,,,,,,s008,001,2024-07-12_16h57.12.021,simplestop_skeleton,2022.2.2,59.849078064682956,
None,None,,,,,,,,,2,0,2,0,3,3,15,3,,,,,,,,,842.5037551224232,go,squareblack.png,right,0.4,,,,,,,,,,,,,,,,,0.0016146935522556305,0.49017276987433434,,845.0061595886946,test,3,,,,,,,,842.5224938690662,843.0194920711219,843.0194920711219,843.036141321063,843.4199103526771,843.9196054376662,844.0197951607406,845.025445330888,right,1,0.4,0.4561273567378521,,,,,,,,,,,s008,001,2024-07-12_16h57.12.021,simplestop_skeleton,2022.2.2,59.849078064682956,
$currentCorrectResponse,$currentGoStim,,,,,,,,,2,0,2,0,4,0,16,0,,,,,,,,,845.0065795890987,stop,circleblack.png,left,0.4,,,,,,,,,,,,,,,,,0.0017878301441669464,0.48854492977261543,0.8901017159223557,847.5092085972428,test,3,,,,,,,,845.025445330888,845.5209237597883,845.5209237597883,845.5377187505364,845.9226251132786,846.4232985712588,846.5234677568078,847.5280650481582,left,1,0.35,0.3382973149418831,,,,,,,,,,,s008,001,2024-07-12_16h57.12.021,simplestop_skeleton,2022.2.2,59.849078064682956,
None,None,,,,,,,,,2,0,2,0,4,1,17,1,,,,,,,,,847.5096334964037,go,circleblack.png,left,0.35,,,,,,,,,,,,,,,,,0.0013729706406593323,0.48957374691963196,,850.0121853686869,test,3,,,,,,,,847.5280650481582,848.02524895221,848.02524895221,848.041620157659,848.3754277378321,848.8759004436433,849.0258786939085,850.0313754156232,left,1,0.35,0.5962462984025478,,,,,,,,,,,s008,001,2024-07-12_16h57.12.021,simplestop_skeleton,2022.2.2,59.849078064682956,
None,None,,,,,,,,,2,0,2,0,4,2,18,2,,,,,,,,,850.0126193761826,stop,squareblack.png,right,0.35,,,,,,,,,,,,,,,,,0.0017840825021266937,0.48974740132689476,0.8399824649095535,852.5147167742252,test,3,,,,,,,,850.0313754156232,850.5280793979764,850.5280793979764,850.5444448180497,850.8781271576881,851.3787159509957,851.5288919098675,852.5336192809045,None,0,0.4,,,,,,,,,,,,s008,001,2024-07-12_16h57.12.021,simplestop_skeleton,2022.2.2,59.849078064682956,
None,None,,,,,,,,,2,0,2,0,4,3,19,3,,,,,,,,,852.5151514448225,go,squareblack.png,right,0.4,,,,,,,,,,,,,,,,,0.001400049775838852,0.48950453102588654,,855.0171133317053,test,3,,,,,,,,852.5336192809045,853.0307027846575,853.0307027846575,853.0473402254283,853.4310178793967,853.9303644709289,854.0305031053722,855.0357298851013,left,0,0.4,0.4261369928717613,,,,,,,,,,,s008,001,2024-07-12_16h57.12.021,simplestop_skeleton,2022.2.2,59.849078064682956,
$currentCorrectResponse,$currentGoStim,,,,,,,,,2,0,2,0,5,0,20,0,,,,,,,,,855.0175395421684,stop,squareblack.png,right,0.4,,,,,,,,,,,,,,,,,0.0011971890926361084,0.49016062542796135,0.8902544118463993,857.5198527239263,test,3,,,,,,,,855.0357298851013,855.5332004763186,855.5332004763186,855.5500080548227,855.9337473101914,856.4342354498804,856.5343212746084,857.5389431752264,None,0,0.45,,,,,,,,,,,,s008,001,2024-07-12_16h57.12.021,simplestop_skeleton,2022.2.2,59.849078064682956,
None,None,,,,,,,,,2,0,2,0,5,1,21,1,,,,,,,,,857.5202807560563,go,circleblack.png,left,0.45,,,,,,,,,,,,,,,,,0.001807820051908493,0.4899195283651352,,860.0227797999978,test,3,,,,,,,,857.5389431752264,858.0361727848649,858.0361727848649,858.0526780225337,858.486617166549,858.9856979735196,859.0364018827677,860.0420665070415,left,1,0.45,0.558556817471981,,,,,,,,,,,s008,001,2024-07-12_16h57.12.021,simplestop_skeleton,2022.2.2,59.849078064682956,
None,None,,,,,,,,,2,0,2,0,5,2,22,3,,,,,,,,,860.0232061222196,go,squareblack.png,right,0.45,,,,,,,,,,,,,,,,,0.0014919936656951904,0.48947659879922867,,862.5254932418466,test,3,,,,,,,,860.0420665070415,860.538705829531,860.538705829531,860.555658493191,860.9895143732429,861.490797560662,861.5385211072862,862.5446369424462,right,1,0.45,0.6297049038112164,,,,,,,,,,,s008,001,2024-07-12_16h57.12.021,simplestop_skeleton,2022.2.2,59.849078064682956,
None,None,,,,,,,,,2,0,2,0,5,3,23,3,,,,,,,,,862.5259333476424,go,circleblack.png,left,0.45,,,,,,,,,,,,,,,,,0.0017520338296890259,0.48976634070277214,,865.0281052142382,test,3,,,,,,,,862.5446369424462,863.0414068587124,863.0414068587124,863.0582476705313,863.4917914494872,863.9914499931037,864.0422207713127,865.0464552901685,left,1,0.45,0.5563186481595039,,,,,,,,,,,s008,001,2024-07-12_16h57.12.021,simplestop_skeleton,2022.2.2,59.849078064682956,
None,None,,,,,,,,,2,0,2,0,6,0,24,2,,,,,,,,,865.0285374931991,go,circleblack.png,left,0.45,,,,,,,,,,,,,,,,,0.0012463368475437164,0.4901424050331116,,867.5308814905584,test,3,,,,,,,,865.0464552901685,865.5443473309278,865.5443473309278,865.5608544945717,865.9946774542332,866.4948207177222,866.5448244549334,867.5499263480306,right,0,0.45,0.5292273573577404,,,,,,,,,,,s008,001,2024-07-12_16h57.12.021,simplestop_skeleton,2022.2.2,59.849078064682956,
None,None,,,,,,,,,2,0,2,0,6,1,25,3,,,,,,,,,867.5313126221299,go,circleblack.png,left,0.45,,,,,,,,,,,,,,,,,0.001267220824956894,0.48972148075699806,,870.0339129269123,test,3,,,,,,,,867.5499263480306,868.0470013618469,868.0470013618469,868.0637646690011,868.4977316632867,868.9973856508732,869.0475706346333,870.0530918091536,left,1,0.45,0.52470688149333,,,,,,,,,,,s008,001,2024-07-12_16h57.12.021,simplestop_skeleton,2022.2.2,59.849078064682956,
None,None,,,,,,,,,2,0,2,0,6,2,26,3,,,,,,,,,870.0343351401389,stop,squareblack.png,right,0.45,,,,,,,,,,,,,,,,,0.0017472170293331146,0.4897528178989887,0.9403543658554554,872.5366256609559,test,3,,,,,,,,870.0530918091536,870.549864269793,870.549864269793,870.566348362714,871.0002219565213,871.5007054544985,871.5503695346415,872.5557296648622,right,1,0.4,0.5417466908693314,,,,,,,,,,,s008,001,2024-07-12_16h57.12.021,simplestop_skeleton,2022.2.2,59.849078064682956,
None,None,,,,,,,,,2,0,2,0,6,3,27,2,,,,,,,,,872.5370467044413,go,squareblack.png,right,0.4,,,,,,,,,,,,,,,,,0.0013208724558353424,0.4893662966787815,,875.0392393544316,test,3,,,,,,,,872.5557296648622,873.0525804758072,873.0525804758072,873.0693308338523,873.4530470110476,873.9536126330495,874.0522730536759,875.0586210936308,right,1,0.4,0.6570815294981003,,,,,,,,,,,s008,001,2024-07-12_16h57.12.021,simplestop_skeleton,2022.2.2,59.849078064682956,
None,None,,,,,,,,,2,0,2,0,7,0,28,2,,,,,,,,,875.0396675691009,go,circleblack.png,left,0.4,,,,,,,,,,,,,,,,,0.0018798410892486572,0.4898824766278267,,877.5420993082225,test,3,,,,,,,,875.0586210936308,875.5553310960531,875.5553310960531,875.5720796696842,875.9556885957718,876.4567702077329,876.5560752935708,877.5609874725342,left,1,0.4,0.5995853096246719,,,,,,,,,,,s008,001,2024-07-12_16h57.12.021,simplestop_skeleton,2022.2.2,59.849078064682956,
$currentCorrectResponse,$currentGoStim,,,,,,,,,2,0,2,0,7,1,29,0,,,,,,,,,877.5425239503384,go,squareblack.png,right,0.4,,,,,,,,,,,,,,,,,0.0016252882778644562,0.4898591451346874,,880.0447001904249,test,3,,,,,,,,877.5609874725342,878.0580417998135,878.0580417998135,878.0748680904508,878.458537388593,878.9592780545354,879.0577799230814,880.0639459751546,right,1,0.4,0.6177606545388699,,,,,,,,,,,s008,001,2024-07-12_16h57.12.021,simplestop_skeleton,2022.2.2,59.849078064682956,
None,None,,,,,,,,,2,0,2,0,7,2,30,3,,,,,,,,,880.0451340675354,stop,circleblack.png,left,0.4,,,,,,,,,,,,,,,,,0.0017790421843528748,0.4898633658885956,0.8903350159525871,882.547705244273,test,3,,,,,,,,880.0639459751546,880.5608437471092,880.5608437471092,880.5775677748024,880.9613258130848,881.4620220027864,881.562062844634,882.566631346941,None,0,0.45,,,,,,,,,,,,s008,001,2024-07-12_16h57.12.021,simplestop_skeleton,2022.2.2,59.849078064682956,
None,None,,,,,,,,,2,0,2,0,7,3,31,1,,,,,,,,,882.5481389425695,go,squareblack.png,right,0.45,,,,,,,,,,,,,,,,,0.0015993490815162659,0.48988547548651695,,885.0504562854767,test,3,,,,,,,,882.566631346941,883.0637275576591,883.0637275576591,883.0803964324296,883.5141486413777,884.0134925767779,884.0645395368338,885.0696686841547,right,1,0.45,0.5771491043269634,,,,,,,,,,,s008,001,2024-07-12_16h57.12.021,simplestop_skeleton,2022.2.2,59.849078064682956,
None,None,,,,,,,,,2,0,2,0,8,0,32,1,,,,,,,,,885.0508914962411,go,circleblack.png,left,0.45,,,,,,,,,,,,,,,,,0.0018637143075466156,0.4898730665445328,,887.5529629774392,test,3,,,,,,,,885.0696686841547,885.5668901652098,885.5668901652098,885.5831656083465,886.0172338746488,886.5328413620591,886.5682578571141,887.5719495750964,left,1,0.45,0.555407453328371,,,,,,,,,,,s008,001,2024-07-12_16h57.12.021,simplestop_skeleton,2022.2.2,59.849078064682956,
None,None,,,,,,,,,2,0,2,0,8,1,33,3,,,,,,,,,887.5533876083791,stop,squareblack.png,right,0.45,,,,,,,,,,,,,,,,,0.001700717955827713,0.4898168183863163,0.9404803216457367,890.0557932145894,test,3,,,,,,,,887.5719495750964,888.0690248981118,888.0690248981118,888.0856528617442,888.5196873322129,889.0203335881233,889.0703076384962,890.0749132670462,None,0,0.5,,,,,,,,,,,,s008,001,2024-07-12_16h57.12.021,simplestop_skeleton,2022.2.2,59.849078064682956,
None,None,,,,,,,,,2,0,2,0,8,2,34,1,,,,,,,,,890.0562166571617,stop,circleblack.png,left,0.5,,,,,,,,,,,,,,,,,0.001743752509355545,0.489844236522913,0.990271870046854,892.5586151368916,test,3,,,,,,,,890.0749132670462,890.5717559121549,890.5717559121549,890.5884891264141,891.0724254250526,891.5716539472342,891.5716539472342,892.5780970863998,left,1,0.45,0.6290173269808292,,,,,,,,,,,s008,001,2024-07-12_16h57.12.021,simplestop_skeleton,2022.2.2,59.849078064682956,
None,None,,,,,,,,,2,0,2,0,8,3,35,1,,,,,,,,,892.5590376891196,go,squareblack.png,right,0.45,,,,,,,,,,,,,,,,,0.0018490701913833618,0.48933250084519386,,895.0615431256592,test,3,,,,,,,,892.5780970863998,893.0745650716126,893.0745650716126,893.0912923365831,893.5254297293723,894.0256485976279,894.078092366457,895.080567792058,right,1,0.45,0.646985612809658,,,,,,,,,,,s008,001,2024-07-12_16h57.12.021,simplestop_skeleton,2022.2.2,59.849078064682956,
$currentCorrectResponse,$currentGoStim,,,,,,,,,2,0,2,0,9,0,36,0,,,,,,,,,895.0619657635689,go,circleblack.png,left,0.45,,,,,,,,,,,,,,,,,0.0017410777509212494,0.48967554420232773,,897.5642874874175,test,3,,,,,,,,895.080567792058,895.5773308314383,895.5773308314383,895.594187065959,896.0278171636164,896.5272334367037,896.5770912840962,897.5834799595177,left,1,0.45,0.5813559219241142,,,,,,,,,,,s008,001,2024-07-12_16h57.12.021,simplestop_skeleton,2022.2.2,59.849078064682956,
None,None,,,,,,,,,2,0,2,0,9,1,37,3,,,,,,,,,897.564774043858,go,circleblack.png,left,0.45,,,,,,,,,,,,,,,,,0.0013948678970336914,0.4896373152732849,,900.0668075866997,test,3,,,,,,,,897.5834799595177,898.0801401175559,898.0801401175559,898.0969478785992,898.5307310894132,899.0300354063511,899.0823451206088,900.0858574770391,left,1,0.45,0.6072602644562721,,,,,,,,,,,s008,001,2024-07-12_16h57.12.021,simplestop_skeleton,2022.2.2,59.849078064682956,
None,None,,,,,,,,,2,0,2,0,9,2,38,1,,,,,,,,,900.0672496296465,stop,squareblack.png,right,0.45,,,,,,,,,,,,,,,,,0.0016470849514007568,0.48970337957143784,0.9402244947850704,902.5696624033153,test,3,,,,,,,,900.0858574770391,900.5829745046794,900.5829745046794,900.5996958762407,901.0336583033204,901.5493852160871,901.583639331162,902.58888040483,right,1,0.4,0.5645925924181938,,,,,,,,,,,s008,001,2024-07-12_16h57.12.021,simplestop_skeleton,2022.2.2,59.849078064682956,
None,None,,,,,,,,,2,0,2,0,9,3,39,3,,,,,,,,,902.5701773092151,go,circleblack.png,left,0.4,,,,,,,,,,,,,,,,,0.0018845908343791962,0.48986754193902016,,905.072397056967,test,3,,,,,,,,902.58888040483,903.0856203734875,903.0856203734875,903.1022702790797,903.48629771173,903.9852957837284,904.086094558239,905.0915815196931,left,1,0.4,0.5515395887196064,,,,,,,,,,,s008,001,2024-07-12_16h57.12.021,simplestop_skeleton,2022.2.2,59.849078064682956,
None,None,,,,,,,,,2,0,2,0,10,0,40,2,,,,,,,,,905.0728290565312,go,squareblack.png,right,0.4,,,,,,,,,,,,,,,,,0.001652158796787262,0.4894685409963131,,907.5753762610257,test,3,,,,,,,,905.0915815196931,905.5884668491781,905.5884668491781,905.60533676669,905.9889158084989,906.4898242205381,906.5907954908907,907.5943383909762,right,1,0.4,0.6686956137418747,,,,,,,,,,,s008,001,2024-07-12_16h57.12.021,simplestop_skeleton,2022.2.2,59.849078064682956,
None,None,,,,,,,,,2,0,2,0,10,1,41,1,,,,,,,,,907.5758252330124,stop,squareblack.png,right,0.4,,,,,,,,,,,,,,,,,0.001273859292268753,0.48955532535910606,0.8902395851910114,910.0781858228147,test,3,,,,,,,,907.5943383909762,908.090676099062,908.090676099062,908.1076120696962,908.491601485759,908.9922547079623,909.0925503410399,910.0975432470441,right,1,0.35,0.5054707005620003,,,,,,,,,,,s008,001,2024-07-12_16h57.12.021,simplestop_skeleton,2022.2.2,59.849078064682956,
$currentCorrectResponse,$currentGoStim,,,,,,,,,2,0,2,0,10,2,42,0,,,,,,,,,910.0786101967096,stop,circleblack.png,left,0.35,,,,,,,,,,,,,,,,,0.0019687265157699585,0.48978791385889053,0.8403491824865341,912.5809689871967,test,3,,,,,,,,910.0975432470441,910.5941224135458,910.5941224135458,910.6107559651136,910.9446226321161,911.4450488574803,911.5939077362418,912.6002114526927,left,1,0.3,0.6731554977595806,,,,,,,,,,,s008,001,2024-07-12_16h57.12.021,simplestop_skeleton,2022.2.2,59.849078064682956,
None,None,,,,,,,,,2,0,2,0,10,3,43,2,,,,,,,,,912.5814167112112,go,squareblack.png,right,0.3,,,,,,,,,,,,,,,,,0.0017741955816745758,0.4895192123949528,,915.0838799551129,test,3,,,,,,,,912.6002114526927,913.0970387943089,913.0970387943089,913.1137014850974,913.3971404209733,913.8977043405175,914.097462836653,915.1028563603759,right,1,0.3,0.5597280263900757,,,,,,,,,,,s008,001,2024-07-12_16h57.12.021,simplestop_skeleton,2022.2.2,59.849078064682956,
None,None,,,,,,,,,2,0,2,0,11,0,44,2,,,,,,,,,915.0843164995313,go,squareblack.png,right,0.3,,,,,,,,,,,,,,,,,0.0012859366834163666,0.4894960969686508,,917.586373846978,test,3,,,,,,,,915.1028563603759,915.5996215566993,915.5996215566993,915.6166381649673,915.8999986499548,916.4006401747465,916.5993555821478,917.605869717896,right,1,0.3,0.6465019099414349,,,,,,,,,,,s008,001,2024-07-12_16h57.12.021,simplestop_skeleton,2022.2.2,59.849078064682956,
None,None,,,,,,,,,2,0,2,0,11,1,45,1,,,,,,,,,917.5868039764464,stop,circleblack.png,left,0.3,,,,,,,,,,,,,,,,,0.001947641372680664,0.48970765620470047,0.7898364402353764,920.089450892061,test,3,,,,,,,,917.605869717896,918.1024200730026,918.1024200730026,918.11900293082,918.4031386040151,918.9035167470574,919.1036100722849,920.1088444441557,None,0,0.35,,,,,,,,,,,,s008,001,2024-07-12_16h57.12.021,simplestop_skeleton,2022.2.2,59.849078064682956,
None,None,,,,,,,,,2,0,2,0,11,2,46,3,,,,,,,,,920.0898747257888,go,squareblack.png,right,0.35,,,,,,,,,,,,,,,,,0.001803562045097351,0.4895847402513027,,922.5920208990574,test,3,,,,,,,,920.1088444441557,920.6052170842886,920.6052170842886,920.6217976137996,920.9556329511106,921.4556143432856,921.6065957956016,922.6113718114793,right,1,0.35,0.5764167197048664,,,,,,,,,,,s008,001,2024-07-12_16h57.12.021,simplestop_skeleton,2022.2.2,59.849078064682956,
$currentCorrectResponse,$currentGoStim,,,,,,,,,2,0,2,0,11,3,47,0,,,,,,,,,922.5924623087049,go,circleblack.png,left,0.35,,,,,,,,,,,,,,,,,0.001863960176706314,0.4895531050860882,,925.0951532013714,test,3,,,,,,,,922.6113718114793,923.1079760082066,923.1079760082066,923.124691106379,923.4584222622216,923.9588594920933,924.1089885234833,925.1102243848145,left,1,0.35,0.7357460744678974,,,,,,,,,,,s008,001,2024-07-12_16h57.12.021,simplestop_skeleton,2022.2.2,59.849078064682956,
