corrGoResp,shape,practiceBlocks.thisRepN,practiceBlocks.thisTrialN,practiceBlocks.thisN,practiceBlocks.thisIndex,practiceTrials.thisRepN,practiceTrials.thisTrialN,practiceTrials.thisN,practiceTrials.thisIndex,stopBlocks.thisRepN,stopBlocks.thisTrialN,stopBlocks.thisN,stopBlocks.thisIndex,testTrials.thisRepN,testTrials.thisTrialN,testTrials.thisN,testTrials.thisIndex,stopPracTrialList,Test Block: 1,welcome.started,start_exp.started,start_exp.keys,start_exp.rt,instrStopText.started,start_prac.started,StartTrialTimeStamp,trialType,goStim,correctResponse,ssd,fixation.started,rules.started,goStim.started,goResp.started,fixation.stopped,stopSignal.started,stopSignal.stopped,goStim.stopped,goResp.stopped,rules.stopped,goResp.keys,goResp.corr,text.started,rules_2.started,fixationOnset,goStimOnset,stopSignalOnset,EndTrialTimeStamp,Phase,Block,text.stopped,rules_2.stopped,goResp.rt,text_5.started,key_resp_3.started,key_resp_3.keys,key_resp_3.rt,key_resp.started,testText.started,test_fixation.started,goStim_test.started,goResp_test.started,test_fixation.stopped,stopSignal_test.started,stopSignal_test.stopped,goStim_test.stopped,goResp_test.stopped,goResp_test.keys,goResp_test.corr,goResp_test.rt,EndingSSD,text_6.started,key_resp_4.started,key_resp_4.keys,key_resp_4.rt,Test Block: 2,Test Block: 3,ending_text.started,end_resp.started,end_resp.keys,end_resp.rt,participant,session,date,expName,psychopyVersion,frameRate,
,,,,,,,,,,,,,,,,,,"[{'fileName': 'squareblack.png', 'correct_response': 'right', 'condition': 'stop'}, {'fileName': 'circleblack.png', 'correct_response': 'left', 'condition': 'go'}, {'fileName': 'circleblack.png', 'correct_response': 'left', 'condition': 'go'}, {'fileName': 'circleblack.png', 'correct_response': 'left', 'condition': 'stop'}, {'fileName': 'squareblack.png', 'correct_response': 'right', 'condition': 'stop'}, {'fileName': 'squareblack.png', 'correct_response': 'right', 'condition': 'go'}, {'fileName': 'squareblack.png', 'correct_response': 'right', 'condition': 'go'}, {'fileName': 'circleblack.png', 'correct_response': 'left', 'condition': 'go'}, {'fileName': 'circleblack.png', 'correct_response': 'left', 'condition': 'go'}, {'fileName': 'circleblack.png', 'correct_response': 'left', 'condition': 'stop'}, {'fileName': 'squareblack.png', 'correct_response': 'right', 'condition': 'go'}, {'fileName': 'squareblack.png', 'correct_response': 'right', 'condition': 'go'}, {'fileName': 'squareblack.png', 'correct_response': 'right', 'condition': 'stop'}, {'fileName': 'circleblack.png', 'correct_response': 'left', 'condition': 'go'}, {'fileName': 'squareblack.png', 'correct_response': 'right', 'condition': 'go'}, {'fileName': 'circleblack.png', 'correct_response': 'left', 'condition': 'go'}, {'fileName': 'circleblack.png', 'correct_response': 'left', 'condition': 'stop'}, {'fileName': 'circleblack.png', 'correct_response': 'left', 'condition': 'go'}, {'fileName': 'squareblack.png', 'correct_response': 'right', 'condition': 'go'}, {'fileName': 'circleblack.png', 'correct_response': 'left', 'condition': 'go'}, {'fileName': 'squareblack.png', 'correct_response': 'right', 'condition': 'stop'}, {'fileName': 'circleblack.png', 'correct_response': 'left', 'condition': 'stop'}, {'fileName': 'squareblack.png', 'correct_response': 'right', 'condition': 'go'}, {'fileName': 'squareblack.png', 'correct_response': 'right', 'condition': 'go'}]","[{'fileName': 'squareblack.png', 'correct_response': 'right', 'condition': 'go'}, {'fileName': 'squareblack.png', 'correct_response': 'right', 'condition': 'go'}, {'fileName': 'circleblack.png', 'correct_response': 'left', 'condition': 'go'}, {'fileName': 'circleblack.png', 'correct_response': 'left', 'condition': 'go'}, {'fileName': 'squareblack.png', 'correct_response': 'right', 'condition': 'go'}, {'fileName': 'circleblack.png', 'correct_response': 'left', 'condition': 'stop'}, {'fileName': 'squareblack.png', 'correct_response': 'right', 'condition': 'stop'}, {'fileName': 'circleblack.png', 'correct_response': 'left', 'condition': 'go'}, {'fileName': 'squareblack.png', 'correct_response': 'right', 'condition': 'stop'}, {'fileName': 'circleblack.png', 'correct_response': 'left', 'condition': 'go'}, {'fileName': 'squareblack.png', 'correct_response': 'right', 'condition': 'go'}, {'fileName': 'circleblack.png', 'correct_response': 'left', 'condition': 'stop'}, {'fileName': 'circleblack.png', 'correct_response': 'left', 'condition': 'go'}, {'fileName': 'squareblack.png', 'correct_response': 'right', 'condition': 'go'}, {'fileName': 'squareblack.png', 'correct_response': 'right', 'condition': 'go'}, {'fileName': 'circleblack.png', 'correct_response': 'left', 'condition': 'go'}, {'fileName': 'squareblack.png', 'correct_response': 'right', 'condition': 'go'}, {'fileName': 'circleblack.png', 'correct_response': 'left', 'condition': 'stop'}, {'fileName': 'squareblack.png', 'correct_response': 'right', 'condition': 'stop'}, {'fileName': 'circleblack.png', 'correct_response': 'left', 'condition': 'stop'}, {'fileName': 'squareblack.png', 'correct_response': 'right', 'condition': 'go'}, {'fileName': 'circleblack.png', 'correct_response': 'left', 'condition': 'go'}, {'fileName': 'squareblack.png', 'correct_response': 'right', 'condition': 'stop'}, {'fileName': 'circleblack.png', 'correct_response': 'left', 'condition': 'go'}, {'fileName': 'circleblack.png', 'correct_response': 'left', 'condition': 'go'}, {'fileName': 'squareblack.png', 'correct_response': 'right', 'condition': 'go'}, {'fileName': 'circleblack.png', 'correct_response': 'left', 'condition': 'stop'}, {'fileName': 'circleblack.png', 'correct_response': 'left', 'condition': 'go'}, {'fileName': 'squareblack.png', 'correct_response': 'right', 'condition': 'stop'}, {'fileName': 'circleblack.png', 'correct_response': 'left', 'condition': 'go'}, {'fileName': 'squareblack.png', 'correct_response': 'right', 'condition': 'go'}, {'fileName': 'squareblack.png', 'correct_response': 'right', 'condition': 'stop'}, {'fileName': 'squareblack.png', 'correct_response': 'right', 'condition': 'go'}, {'fileName': 'squareblack.png', 'correct_response': 'right', 'condition': 'go'}, {'fileName': 'circleblack.png', 'correct_response': 'left', 'condition': 'go'}, {'fileName': 'circleblack.png', 'correct_response': 'left', 'condition': 'stop'}, {'fileName': 'squareblack.png', 'correct_response': 'right', 'condition': 'stop'}, {'fileName': 'circleblack.png', 'correct_response': 'left', 'condition': 'stop'}, {'fileName': 'circleblack.png', 'correct_response': 'left', 'condition': 'go'}, {'fileName': 'squareblack.png', 'correct_response': 'right', 'condition': 'go'}, {'fileName': 'squareblack.png', 'correct_response': 'right', 'condition': 'go'}, {'fileName': 'circleblack.png', 'correct_response': 'left', 'condition': 'go'}, {'fileName': 'circleblack.png', 'correct_response': 'left', 'condition': 'go'}, {'fileName': 'squareblack.png', 'correct_response': 'right', 'condition': 'stop'}, {'fileName': 'squareblack.png', 'correct_response': 'right', 'condition': 'go'}, {'fileName': 'squareblack.png', 'correct_response': 'right', 'condition': 'go'}, {'fileName': 'circleblack.png', 'correct_response': 'left', 'condition': 'go'}, {'fileName': 'circleblack.png', 'correct_response': 'left', 'condition': 'stop'}]",3358.4490693584085,3358.4490693584085,return,1.9928999282419682,,,,,,,,,,,,,,,,,,,,,,,,,,,,,,,,,,,,,,,,,,,,,,,,,,,,,,,,,,,s019 ,001,2024-07-25_15h46.14.218,simplestop_skeleton,2022.2.2,60.02564974941372,
None,None,0,0,0,0,0,0,0,1,,,,,,,,,,,,,,,3360.487305495888,3360.487305495888,3422.9694366902113,stop,squareblack.png,right,0.35,3422.992300916463,3422.992300916463,3423.484705414623,3423.484705414623,3423.501317087561,3423.8350049853325,3424.3355097025633,3424.4856840856373,3425.4869370386004,3425.5034734867513,None,0,3425.5034734867513,3425.5034734867513,0.002790842205286026,0.4888249486684799,0.8393907770514488,3425.988484747708,practice,1,,,,,,,,,,,,,,,,,,,,,,,,,,,,,,,,s019 ,001,2024-07-25_15h46.14.218,simplestop_skeleton,2022.2.2,60.02564974941372,
None,None,0,0,0,0,0,1,1,2,,,,,,,,,,,,,,,,,3425.9890194125473,go,circleblack.png,left,0.4,3426.0142974443734,3426.0142974443734,3426.5049952864647,3426.5049952864647,3426.521707624197,3426.9037607721984,3427.4054321423173,3427.506003949791,3428.507139146328,3428.5244537331164,None,0,3428.5244537331164,3428.5244537331164,0.007928099483251572,0.4900563135743141,0.8887380063533783,3429.008650407195,practice,1,3429.0284414477646,3429.0284414477646,,,,,,,,,,,,,,,,,,,,,,,,,,,,,,s019 ,001,2024-07-25_15h46.14.218,simplestop_skeleton,2022.2.2,60.02564974941372,
None,None,0,0,0,0,0,2,2,2,,,,,,,,,,,,,,,,,3429.009072303772,go,circleblack.png,left,0.4,3429.0284414477646,3429.0284414477646,3429.5248414725065,3429.5248414725065,3429.541783530265,3429.925212562084,3430.4268567711115,3430.525421258062,3431.527184523642,3431.543683324009,right,0,3431.543683324009,3431.543683324009,0.001423317939043045,0.48980291932821274,0.8903807550668716,3432.028379537165,practice,1,3432.0483444333076,3432.0483444333076,0.23927516862750053,,,,,,,,,,,,,,,,,,,,,,,,,,,,,s019 ,001,2024-07-25_15h46.14.218,simplestop_skeleton,2022.2.2,60.02564974941372,
$currentCorrectResponse,$currentGoStim,0,0,0,0,0,3,3,0,,,,,,,,,,,,,,,,,3432.0288302265108,stop,circleblack.png,left,0.4,3432.0483444333076,3432.0483444333076,3432.545166492462,3432.545166492462,3432.5614936873317,3432.9454660899937,3433.4610646031797,3433.544620681554,3434.5476785860956,3434.5636000335217,left,1,3434.5636000335217,3434.5636000335217,0.0013993680477142334,0.49000123888254166,0.8907412886619568,3435.0484466142952,practice,1,3435.0685649886727,3435.0685649886727,0.37437915056943893,,,,,,,,,,,,,,,,,,,,,,,,,,,,,s019 ,001,2024-07-25_15h46.14.218,simplestop_skeleton,2022.2.2,60.02564974941372,
None,None,0,0,0,0,1,0,4,1,,,,,,,,,,,,,,,,,3435.0488687455654,stop,squareblack.png,right,0.35,3435.0685649886727,3435.0685649886727,3435.564981840551,3435.564981840551,3435.5815827474,3435.915375120938,3436.4308946095407,3436.5646040141582,3437.566893771291,3437.583418391645,right,1,3437.583418391645,3437.583418391645,0.0017505474388599396,0.4898729920387268,0.8405095711350441,3438.0684258677065,practice,1,,,0.31784114986658096,,,,,,,,,,,,,,,,,,,,,,,,,,,,,s019 ,001,2024-07-25_15h46.14.218,simplestop_skeleton,2022.2.2,60.02564974941372,
None,None,0,0,0,0,1,1,5,3,,,,,,,,,,,,,,,,,3438.0688687115908,go,squareblack.png,right,0.3,3438.0881202444434,3438.0881202444434,3438.5847276747227,3438.5847276747227,3438.6013451702893,3438.8849639184773,3439.384616084397,3439.5844627693295,3440.586865365505,3440.6036094017327,right,1,3440.6036094017327,3440.6036094017327,0.0011824332177639008,0.48987651243805885,0.7902280651032925,3441.088569622487,practice,1,,,0.4389057010412216,,,,,,,,,,,,,,,,,,,,,,,,,,,,,s019 ,001,2024-07-25_15h46.14.218,simplestop_skeleton,2022.2.2,60.02564974941372,
None,None,0,0,0,0,1,2,6,2,,,,,,,,,,,,,,,,,3441.0890206210315,go,squareblack.png,right,0.3,3441.108116749674,3441.108116749674,3441.605000961572,3441.605000961572,3441.6215431392193,3441.9051476605237,3442.404385726899,3442.6044008657336,3443.607103906572,3443.623767875135,right,1,3443.623767875135,3443.623767875135,0.001221098005771637,0.4899929128587246,0.7906351312994957,3444.1084843836725,practice,1,3444.128630813211,3444.128630813211,0.3677390217781067,,,,,,,,,,,,,,,,,,,,,,,,,,,,,s019 ,001,2024-07-25_15h46.14.218,simplestop_skeleton,2022.2.2,60.02564974941372,
None,None,0,0,0,0,1,3,7,3,,,,,,,,,,,,,,,,,3444.1089081838727,go,circleblack.png,left,0.3,3444.128630813211,3444.128630813211,3444.6247743815184,3444.6247743815184,3444.641781758517,3444.9255692735314,3445.440900657326,3445.6248711794615,3446.6269726753235,3446.6438201367855,left,1,3446.6438201367855,3446.6438201367855,0.0017844662070274353,0.4902047887444496,0.7906130254268646,3447.128481812775,practice,1,,,0.3678651638329029,,,,,,,,,,,,,,,,,,,,,,,,,,,,,s019 ,001,2024-07-25_15h46.14.218,simplestop_skeleton,2022.2.2,60.02564974941372,
None,None,0,0,0,0,2,0,8,3,,,,,,,,,,,,,,,,,3447.1290884651244,go,circleblack.png,left,0.3,3447.149210587144,3447.149210587144,3447.6450310647488,3447.6450310647488,3447.661611687392,3447.945171352476,3448.4610517285764,3448.6452626511455,3449.6475925669074,3449.6635946407914,left,1,3449.6635946407914,3449.6635946407914,0.0013718493282794952,0.48964187875390053,0.7900910675525665,3450.1485851742327,practice,1,3450.168184336275,3450.168184336275,0.3566758893430233,,,,,,,,,,,,,,,,,,,,,,,,,,,,,s019 ,001,2024-07-25_15h46.14.218,simplestop_skeleton,2022.2.2,60.02564974941372,
None,None,0,0,0,0,2,1,9,3,,,,,,,,,,,,,,,,,3450.1490186676383,stop,circleblack.png,left,0.3,3450.168184336275,3450.168184336275,3450.6648587435484,3450.6648587435484,3450.6815431267023,3450.965431533754,3451.4807165637612,3451.6659634411335,3452.6668348051608,3452.683891300112,left,1,3452.683891300112,3452.683891300112,0.0012430138885974884,0.48983364179730415,0.79018983989954,3453.1685740202665,practice,1,3453.1885905191302,3453.1885905191302,0.29588255286216736,,,,,,,,,,,,,,,,,,,,,,,,,,,,,s019 ,001,2024-07-25_15h46.14.218,simplestop_skeleton,2022.2.2,60.02564974941372,
None,None,0,0,0,0,2,2,10,2,,,,,,,,,,,,,,,,,3453.169020716101,go,squareblack.png,right,0.25,3453.1885905191302,3453.1885905191302,3453.6846198886633,3453.6846198886633,3453.701368521899,3453.9350093081594,3454.4341169036925,3454.6844345368445,3455.686840828508,3455.7035742625594,right,1,3455.7035742625594,3455.7035742625594,0.0017653033137321472,0.4898529648780823,0.7401307187974453,3456.1883936077356,practice,1,3456.2078549675643,3456.2078549675643,0.33937323838472366,,,,,,,,,,,,,,,,,,,,,,,,,,,,,s019 ,001,2024-07-25_15h46.14.218,simplestop_skeleton,2022.2.2,60.02564974941372,
None,None,0,0,0,0,2,3,11,1,,,,,,,,,,,,,,,,,3456.1888099573553,go,squareblack.png,right,0.25,3456.2078549675643,3456.2078549675643,3456.70493106544,3456.70493106544,3456.721385154873,3456.955073174089,3457.454116296023,3457.7056821882725,3458.707155227661,3458.707155227661,left,0,3458.707155227661,3458.707155227661,0.001184958964586258,0.4901050925254822,0.7402534671127796,3459.192037973553,practice,1,,,0.27740728855133057,,,,,,,,,,,,,,,,,,,,,,,,,,,,,s019 ,001,2024-07-25_15h46.14.218,simplestop_skeleton,2022.2.2,60.02564974941372,
None,None,0,0,0,0,3,0,12,1,,,,,,,,,,,,,,,,,3459.192460332066,stop,squareblack.png,right,0.25,3459.2114562503994,3459.2114562503994,3459.7082201875746,3459.7082201875746,3459.7249636389315,3459.958431996405,3460.4742159359157,3460.707696918398,3461.710464067757,3461.7273237109184,left,0,3461.7273237109184,3461.7273237109184,0.0012796968221664429,0.48982885479927063,0.7401327006518841,3462.211964059621,practice,1,3462.2322081923485,3462.2322081923485,0.4231405220925808,,,,,,,,,,,,,,,,,,,,,,,,,,,,,s019 ,001,2024-07-25_15h46.14.218,simplestop_skeleton,2022.2.2,60.02564974941372,
None,None,0,0,0,0,3,1,13,1,,,,,,,,,,,,,,,,,3462.21237745136,go,circleblack.png,left,0.2,3462.2322081923485,3462.2322081923485,3462.728167694062,3462.728167694062,3462.7450552731752,3462.928274605423,3463.427541807294,3463.730397321284,3464.730530589819,3464.7471733652055,left,1,3464.7471733652055,3464.7471733652055,0.0019257180392742157,0.4900999367237091,0.6902073845267296,3465.2319260947406,practice,1,3465.251686718315,3465.251686718315,0.3148296847939491,,,,,,,,,,,,,,,,,,,,,,,,,,,,,s019 ,001,2024-07-25_15h46.14.218,simplestop_skeleton,2022.2.2,60.02564974941372,
None,None,0,0,0,0,3,2,14,3,,,,,,,,,,,,,,,,,3465.2323615327477,go,squareblack.png,right,0.2,3465.251686718315,3465.251686718315,3465.7482045590878,3465.7482045590878,3465.7649994529784,3465.94848010689,3466.448881685734,3466.747869145125,3467.7502796910703,3467.766985375434,right,1,3467.766985375434,3467.766985375434,0.0016324482858181,0.48981717973947525,0.6900678984820843,3468.2516076266766,practice,1,3468.271633375436,3468.271633375436,0.5178305730223656,,,,,,,,,,,,,,,,,,,,,,,,,,,,,s019 ,001,2024-07-25_15h46.14.218,simplestop_skeleton,2022.2.2,60.02564974941372,
None,None,0,0,0,0,3,3,15,2,,,,,,,,,,,,,,,,,3468.252024911344,go,circleblack.png,left,0.2,3468.271633375436,3468.271633375436,3468.7679554745555,3468.7679554745555,3468.784827552736,3468.968226443976,3469.4677266329527,3469.770139787346,3470.7701793313026,3470.7868275903165,left,1,3470.7868275903165,3470.7868275903165,0.0018382184207439423,0.4900975078344345,0.6904316842556,3471.271664388478,practice,1,3471.2911980226636,3471.2911980226636,0.3267724737524986,,,,,,,,,,,,,,,,,,,,,,,,,,,,,s019 ,001,2024-07-25_15h46.14.218,simplestop_skeleton,2022.2.2,60.02564974941372,
None,None,0,0,0,0,4,0,16,2,,,,,,,,,,,,,,,,,3471.2721335440874,stop,circleblack.png,left,0.2,3471.2911980226636,3471.2911980226636,3471.788034070283,3471.788034070283,3471.804778072983,3471.9882623665035,3472.4873790815473,3472.787946291268,3473.790251288563,3473.790251288563,left,1,3473.790251288563,3473.790251288563,0.0012381859123706818,0.49018173292279243,0.6907227076590061,3474.2750692032278,practice,1,3474.2948474511504,3474.2948474511504,0.3572762571275234,,,,,,,,,,,,,,,,,,,,,,,,,,,,,s019 ,001,2024-07-25_15h46.14.218,simplestop_skeleton,2022.2.2,60.02564974941372,
None,None,0,0,0,0,4,1,17,1,,,,,,,,,,,,,,,,,3474.275487549603,go,circleblack.png,left,0.15,3474.2948474511504,3474.2948474511504,3474.791278850287,3474.791278850287,3474.8080558404326,3474.9415702186525,3475.4408073574305,3475.79110102728,3476.793404851109,3476.810243062675,left,1,3476.810243062675,3476.810243062675,0.0012527070939540863,0.4899021349847317,0.6400684528052807,3477.2948748655617,practice,1,,,0.37328220158815384,,,,,,,,,,,,,,,,,,,,,,,,,,,,,s019 ,001,2024-07-25_15h46.14.218,simplestop_skeleton,2022.2.2,60.02564974941372,
None,None,0,0,0,0,4,2,18,3,,,,,,,,,,,,,,,,,3477.2953048720956,go,squareblack.png,right,0.15,3477.3201327621937,3477.3201327621937,3477.811337672174,3477.811337672174,3477.827908489853,3477.9617856889963,3478.4623707532883,3478.8112199902534,3479.813837464899,3479.8302297629416,left,0,3479.8302297629416,3479.8302297629416,0.007913272827863693,0.49027812480926514,0.6402806378901005,3480.315112825483,practice,1,3480.334993381053,3480.334993381053,0.38580383360385895,,,,,,,,,,,,,,,,,,,,,,,,,,,,,s019 ,001,2024-07-25_15h46.14.218,simplestop_skeleton,2022.2.2,60.02564974941372,
$currentCorrectResponse,$currentGoStim,0,0,0,0,4,3,19,0,,,,,,,,,,,,,,,,,3480.3155330382288,go,circleblack.png,left,0.15,3480.334993381053,3480.334993381053,3480.83129799366,3480.83129799366,3480.8481738828123,3480.9814129918814,3481.4820253178477,3481.8309034258127,3482.8335319384933,3482.8501636087894,left,1,3482.8501636087894,3482.8501636087894,0.0017864182591438293,0.490190003067255,0.6400797851383686,3483.335165489465,practice,1,3483.3550667203963,3483.3550667203963,0.4981226474046707,,,,,,,,,,,,,,,,,,,,,,,,,,,,,s019 ,001,2024-07-25_15h46.14.218,simplestop_skeleton,2022.2.2,60.02564974941372,
$currentCorrectResponse,$currentGoStim,0,0,0,0,5,0,20,0,,,,,,,,,,,,,,,,,3483.335580546409,stop,squareblack.png,right,0.15,3483.3550667203963,3483.3550667203963,3483.851259060204,3483.851259060204,3483.8681338354945,3484.0014806091785,3484.5005272440612,3484.8509971387684,3485.853488393128,3485.870299976319,right,1,3485.870299976319,3485.870299976319,0.0017923414707183838,0.48987795040011406,0.640011191368103,3486.3549662083387,practice,1,,,0.3461684435606003,,,,,,,,,,,,,,,,,,,,,,,,,,,,,s019 ,001,2024-07-25_15h46.14.218,simplestop_skeleton,2022.2.2,60.02564974941372,
$currentCorrectResponse,$currentGoStim,0,0,0,0,5,1,21,0,,,,,,,,,,,,,,,,,3486.3554212749004,stop,circleblack.png,left,0.1,3486.3762037865818,3486.3762037865818,3486.8712731562555,3486.8712731562555,3486.8881701231003,3486.9717560335994,3487.472277689725,3487.8710348419845,3488.8735727481544,3488.8903891146183,left,1,3488.8903891146183,3488.8903891146183,0.001820981502532959,0.4896189458668232,0.5894978307187557,3489.3750908002257,practice,1,3489.394921414554,3489.394921414554,0.3987533859908581,,,,,,,,,,,,,,,,,,,,,,,,,,,,,s019 ,001,2024-07-25_15h46.14.218,simplestop_skeleton,2022.2.2,60.02564974941372,
$currentCorrectResponse,$currentGoStim,0,0,0,0,5,2,22,0,,,,,,,,,,,,,,,,,3489.3756965324283,go,squareblack.png,right,0.05,3489.394921414554,3489.394921414554,3489.891387272626,3489.891387272626,3489.908138412982,3489.9416345097125,3490.442072495818,3490.8911076299846,3491.893987596035,3491.893987596035,right,1,3491.893987596035,3491.893987596035,0.0015736296772956848,0.49021340534090996,0.5400249920785427,3492.3785554096103,practice,1,3492.397916097194,3492.397916097194,0.5394441038370132,,,,,,,,,,,,,,,,,,,,,,,,,,,,,s019 ,001,2024-07-25_15h46.14.218,simplestop_skeleton,2022.2.2,60.02564974941372,
$currentCorrectResponse,$currentGoStim,0,0,0,0,5,3,23,0,,,,,,,,,,,,,,,,,3492.3789762854576,go,squareblack.png,right,0.05,3492.397916097194,3492.397916097194,3492.894635654986,3492.894635654986,3492.9115011952817,3492.9447948485613,3493.4455563798547,3493.894336462021,3494.8971458636224,3494.91355291754,right,1,3494.91355291754,3494.91355291754,0.0011837184429168701,0.49011683836579323,0.5399922989308834,3495.398554265499,practice,1,,,0.4978220909833908,,,,,,,,,,,,,,,,,,,,,,,,,,,,,s019 ,001,2024-07-25_15h46.14.218,simplestop_skeleton,2022.2.2,60.02564974941372,
,,0,0,0,0,,,,,,,,,,,,,"[{'fileName': 'circleblack.png', 'correct_response': 'left', 'condition': 'go'}, {'fileName': 'squareblack.png', 'correct_response': 'right', 'condition': 'go'}, {'fileName': 'circleblack.png', 'correct_response': 'left', 'condition': 'go'}, {'fileName': 'squareblack.png', 'correct_response': 'right', 'condition': 'go'}, {'fileName': 'circleblack.png', 'correct_response': 'left', 'condition': 'stop'}, {'fileName': 'circleblack.png', 'correct_response': 'left', 'condition': 'go'}, {'fileName': 'circleblack.png', 'correct_response': 'left', 'condition': 'go'}, {'fileName': 'squareblack.png', 'correct_response': 'right', 'condition': 'go'}, {'fileName': 'circleblack.png', 'correct_response': 'left', 'condition': 'stop'}, {'fileName': 'squareblack.png', 'correct_response': 'right', 'condition': 'go'}, {'fileName': 'squareblack.png', 'correct_response': 'right', 'condition': 'stop'}, {'fileName': 'squareblack.png', 'correct_response': 'right', 'condition': 'stop'}, {'fileName': 'circleblack.png', 'correct_response': 'left', 'condition': 'go'}, {'fileName': 'squareblack.png', 'correct_response': 'right', 'condition': 'go'}, {'fileName': 'squareblack.png', 'correct_response': 'right', 'condition': 'go'}, {'fileName': 'squareblack.png', 'correct_response': 'right', 'condition': 'go'}, {'fileName': 'circleblack.png', 'correct_response': 'left', 'condition': 'stop'}, {'fileName': 'circleblack.png', 'correct_response': 'left', 'condition': 'stop'}, {'fileName': 'squareblack.png', 'correct_response': 'right', 'condition': 'stop'}, {'fileName': 'circleblack.png', 'correct_response': 'left', 'condition': 'go'}, {'fileName': 'circleblack.png', 'correct_response': 'left', 'condition': 'go'}, {'fileName': 'circleblack.png', 'correct_response': 'left', 'condition': 'go'}, {'fileName': 'squareblack.png', 'correct_response': 'right', 'condition': 'go'}, {'fileName': 'squareblack.png', 'correct_response': 'right', 'condition': 'stop'}]",,,,,,,,,,,,,,,,,,,,,,,,,,,,,,,,,,,,3495.4161130189896,3495.4161130189896,return,3.8759581483900547,,,,,,,,,,,,,,,,,,,,,,,,,s019 ,001,2024-07-25_15h46.14.218,simplestop_skeleton,2022.2.2,60.02564974941372,
None,None,,,,,,,,,0,0,0,0,0,0,0,2,,,,,,,,,3507.044887110591,go,squareblack.png,right,0.05,,,,,,,,,,,,,,,0.001963157206773758,0.4895043969154358,,3509.5476246997714,test,1,,,,,,,,3499.3188257925212,3499.3188257925212,3507.0635598115623,3507.560988660902,3507.560988660902,3507.5773078091443,3507.611242249608,3508.1114488206804,3508.562121357769,3509.566885538399,right,1,0.4339718855917454,0.05,,,,,,,,,,,s019 ,001,2024-07-25_15h46.14.218,simplestop_skeleton,2022.2.2,60.02564974941372,
None,None,,,,,,,,,0,0,0,0,0,1,1,3,,,,,,,,,3509.548158850521,go,squareblack.png,right,0.05,,,,,,,,,,,,,,,0.0013596117496490479,0.48956484720110893,,3512.050288669765,test,1,,,,,,,,,,3509.566885538399,3510.0635773949325,3510.0635773949325,3510.0803021006286,3510.1136421076953,3510.614130590111,3511.0631918013096,3512.0750604346395,right,1,0.3590763658285141,0.05,,,,,,,,,,,s019 ,001,2024-07-25_15h46.14.218,simplestop_skeleton,2022.2.2,60.02564974941372,
None,None,,,,,,,,,0,0,0,0,0,2,2,3,,,,,,,,,3512.0507290773094,go,circleblack.png,left,0.05,,,,,,,,,,,,,,,0.00796573981642723,0.4899500012397766,,3514.5530657470226,test,1,,,,,,,,,,3512.0750604346395,3512.566308449954,3512.566308449954,3512.5829548723996,3512.616363849491,3513.1168993115425,3513.5658877789974,3514.572046790272,left,1,0.4060605950653553,0.05,,,,,,,,,,,s019 ,001,2024-07-25_15h46.14.218,simplestop_skeleton,2022.2.2,60.02564974941372,
None,None,,,,,,,,,0,0,0,0,0,3,3,1,,,,,,,,,3514.5535476468503,go,circleblack.png,left,0.05,,,,,,,,,,,,,,,0.0013595446944236755,0.4897415079176426,,3517.055798549205,test,1,,,,,,,,,,3514.572046790272,3515.0690597333014,3515.0690597333014,3515.0857971683145,3515.119042251259,3515.619750585407,3516.0707742609084,3517.0750579945743,left,1,0.30984148010611534,0.05,,,,,,,,,,,s019 ,001,2024-07-25_15h46.14.218,simplestop_skeleton,2022.2.2,60.02564974941372,
None,None,,,,,,,,,0,0,0,0,1,0,4,1,,,,,,,,,3517.0563252829015,go,squareblack.png,right,0.05,,,,,,,,,,,,,,,0.001643594354391098,0.48976030200719833,,3519.558633491397,test,1,,,,,,,,,,3517.0750579945743,3517.5719109997153,3517.5719109997153,3517.588621929288,3517.6219102703035,3518.1224642060697,3518.5718800760806,3519.578002795577,right,1,0.334601528942585,0.05,,,,,,,,,,,s019 ,001,2024-07-25_15h46.14.218,simplestop_skeleton,2022.2.2,60.02564974941372,
None,None,,,,,,,,,0,0,0,0,1,1,5,2,,,,,,,,,3519.559078723192,stop,circleblack.png,left,0.05,,,,,,,,,,,,,,,0.0017669573426246643,0.4897639527916908,0.5397471934556961,3522.061236422509,test,1,,,,,,,,,,3519.578002795577,3520.0746590942144,3520.0746590942144,3520.091373745352,3520.1246933564544,3520.625436913222,3521.075909409672,3522.0807797499,None,0,,0.1,,,,,,,,,,,s019 ,001,2024-07-25_15h46.14.218,simplestop_skeleton,2022.2.2,60.02564974941372,
None,None,,,,,,,,,0,0,0,0,1,2,6,1,,,,,,,,,3522.0616764500737,stop,squareblack.png,right,0.1,,,,,,,,,,,,,,,0.0017269998788833618,0.4895763099193573,0.5897842198610306,3524.5641171969473,test,1,,,,,,,,,,3522.0807797499,3522.57749158144,3522.57749158144,3522.594160851091,3522.6775443665683,3523.1780780404806,3523.578596793115,3524.583489663899,None,0,,0.15,,,,,,,,,,,s019 ,001,2024-07-25_15h46.14.218,simplestop_skeleton,2022.2.2,60.02564974941372,
None,None,,,,,,,,,0,0,0,0,1,3,7,1,,,,,,,,,3524.56456624344,go,circleblack.png,left,0.15,,,,,,,,,,,,,,,0.0019126124680042267,0.48956892639398575,,3527.0669940151274,test,1,,,,,,,,,,3524.583489663899,3525.0801874622703,3525.0801874622703,3525.096848588437,3525.2303429208696,3525.7308341115713,3526.079783588648,3527.0863328948617,left,1,0.3840508610010147,0.15,,,,,,,,,,,s019 ,001,2024-07-25_15h46.14.218,simplestop_skeleton,2022.2.2,60.02564974941372,
$currentCorrectResponse,$currentGoStim,,,,,,,,,0,0,0,0,2,0,8,0,,,,,,,,,3527.0674407705665,stop,squareblack.png,right,0.15,,,,,,,,,,,,,,,0.0018054284155368805,0.4895903281867504,0.6396857276558876,3529.5698509588838,test,1,,,,,,,,,,3527.0863328948617,3527.582884360105,3527.582884360105,3527.599600162357,3527.7330826967955,3528.2337392643094,3528.5839557014406,3529.589198358357,None,0,,0.2,,,,,,,,,,,s019 ,001,2024-07-25_15h46.14.218,simplestop_skeleton,2022.2.2,60.02564974941372,
None,None,,,,,,,,,0,0,0,0,2,1,9,2,,,,,,,,,3529.570291366428,go,circleblack.png,left,0.2,,,,,,,,,,,,,,,0.0018689408898353577,0.4895492233335972,,3532.0725832022727,test,1,,,,,,,,,,3529.589198358357,3530.0857507921755,3530.0857507921755,3530.1023331023753,3530.286006618291,3530.7864521555603,3531.085210606456,3532.0916381441057,left,1,0.4226958900690079,0.2,,,,,,,,,,,s019 ,001,2024-07-25_15h46.14.218,simplestop_skeleton,2022.2.2,60.02564974941372,
None,None,,,,,,,,,0,0,0,0,2,2,10,2,,,,,,,,,3532.0730239525437,go,squareblack.png,right,0.2,,,,,,,,,,,,,,,0.0016428232192993164,0.4895864836871624,,3534.5753933675587,test,1,,,,,,,,,,3532.0916381441057,3532.5885994918644,3532.5885994918644,3532.6052068434656,3532.788763064891,3533.2892618067563,3533.5883495286107,3534.594795089215,right,1,0.6104708723723888,0.2,,,,,,,,,,,s019 ,001,2024-07-25_15h46.14.218,simplestop_skeleton,2022.2.2,60.02564974941372,
None,None,,,,,,,,,0,0,0,0,2,3,11,2,,,,,,,,,3534.575836610049,stop,circleblack.png,left,0.2,,,,,,,,,,,,,,,0.0017879344522953033,0.4899119958281517,0.689795583486557,3537.078205820173,test,1,,,,,,,,,,3534.594795089215,3535.0912370979786,3535.0912370979786,3535.1083685159683,3535.2916277199984,3535.8079183511436,3536.090822327882,3537.097300041467,left,1,0.3251495845615864,0.15,,,,,,,,,,,s019 ,001,2024-07-25_15h46.14.218,simplestop_skeleton,2022.2.2,60.02564974941372,
None,None,,,,,,,,,0,0,0,0,3,0,12,3,,,,,,,,,3537.0786430984735,go,circleblack.png,left,0.15,,,,,,,,,,,,,,,0.001434076577425003,0.4894610270857811,,3539.580799330026,test,1,,,,,,,,,,3537.097300041467,3537.5941192917526,3537.5941192917526,3537.610868114978,3537.7441560700536,3538.243275344372,3538.596206456423,3539.6002143882215,left,1,0.28112150356173515,0.15,,,,,,,,,,,s019 ,001,2024-07-25_15h46.14.218,simplestop_skeleton,2022.2.2,60.02564974941372,
None,None,,,,,,,,,0,0,0,0,3,1,13,1,,,,,,,,,3539.5812451168895,go,squareblack.png,right,0.15,,,,,,,,,,,,,,,0.0015689283609390259,0.48967503756284714,,3542.0834898985922,test,1,,,,,,,,,,3539.6002143882215,3540.0967523679137,3540.0967523679137,3540.1133845746517,3540.24684535712,3540.747614007443,3541.097895719111,3542.1024923473597,right,1,0.8508996330201626,0.15,,,,,,,,,,,s019 ,001,2024-07-25_15h46.14.218,simplestop_skeleton,2022.2.2,60.02564974941372,
$currentCorrectResponse,$currentGoStim,,,,,,,,,0,0,0,0,3,2,14,0,,,,,,,,,3542.083923622966,go,squareblack.png,right,0.15,,,,,,,,,,,,,,,0.0013241581618785858,0.4896034486591816,,3544.58629328385,test,1,,,,,,,,,,3542.1024923473597,3542.59938165918,3542.59938165918,3542.616091698408,3542.7496274486184,3543.250088311732,3543.599116627127,3544.6057026460767,right,1,0.3842972330749035,0.15,,,,,,,,,,,s019 ,001,2024-07-25_15h46.14.218,simplestop_skeleton,2022.2.2,60.02564974941372,
$currentCorrectResponse,$currentGoStim,,,,,,,,,0,0,0,0,3,3,15,0,,,,,,,,,3544.586737010628,go,circleblack.png,left,0.15,,,,,,,,,,,,,,,0.0019212514162063599,0.48964012786746025,,3547.0893722064793,test,1,,,,,,,,,,3544.6057026460767,3545.102236419916,3545.102236419916,3545.118893560022,3545.252307470888,3545.7514389790595,3546.102224677801,3547.108477693051,left,1,0.31762076914310455,0.15,,,,,,,,,,,s019 ,001,2024-07-25_15h46.14.218,simplestop_skeleton,2022.2.2,60.02564974941372,
None,None,,,,,,,,,0,0,0,0,4,0,16,2,,,,,,,,,3547.0898160636425,go,squareblack.png,right,0.15,,,,,,,,,,,,,,,0.0017570070922374725,0.48937828838825226,,3549.5917765684426,test,1,,,,,,,,,,3547.108477693051,3547.6049579121172,3547.6049579121172,3547.621908172965,3547.7553203068674,3548.271579351276,3548.60611782223,3549.6114219240844,right,1,0.273811899125576,0.15,,,,,,,,,,,s019 ,001,2024-07-25_15h46.14.218,simplestop_skeleton,2022.2.2,60.02564974941372,
None,None,,,,,,,,,0,0,0,0,4,1,17,3,,,,,,,,,3549.5922157280147,stop,circleblack.png,left,0.15,,,,,,,,,,,,,,,0.0019098185002803802,0.48943737521767616,0.6397031359374523,3552.094416961074,test,1,,,,,,,,,,3549.6114219240844,3550.1081122495234,3550.1081122495234,3550.1244872659445,3550.257798407227,3550.7572980746627,3551.1087390892208,3552.113647982478,left,1,0.27398520335555077,0.1,,,,,,,,,,,s019 ,001,2024-07-25_15h46.14.218,simplestop_skeleton,2022.2.2,60.02564974941372,
None,None,,,,,,,,,0,0,0,0,4,2,18,3,,,,,,,,,3552.0948484502733,stop,squareblack.png,right,0.1,,,,,,,,,,,,,,,0.0016422048211097717,0.48955608159303665,0.5896630026400089,3554.5972098745406,test,1,,,,,,,,,,3552.113647982478,3552.6104906722903,3552.6104906722903,3552.6271602399647,3552.7105101794004,3553.2115123048425,3553.6114162504673,3554.6164099276066,None,0,,0.15,,,,,,,,,,,s019 ,001,2024-07-25_15h46.14.218,simplestop_skeleton,2022.2.2,60.02564974941372,
None,None,,,,,,,,,0,0,0,0,4,3,19,2,,,,,,,,,3554.5976484827697,stop,circleblack.png,left,0.15,,,,,,,,,,,,,,,0.0016865618526935577,0.48962995782494545,0.6398687623441219,3557.1005679257214,test,1,,,,,,,,,,3554.6164099276066,3555.1133073084056,3555.1133073084056,3555.130017787218,3555.263373017311,3555.7639829814434,3556.1129263192415,3557.1198085919023,left,1,0.34564386308193207,0.1,,,,,,,,,,,s019 ,001,2024-07-25_15h46.14.218,simplestop_skeleton,2022.2.2,60.02564974941372,
$currentCorrectResponse,$currentGoStim,,,,,,,,,0,0,0,0,5,0,20,0,,,,,,,,,3557.1010094136,go,squareblack.png,right,0.1,,,,,,,,,,,,,,,0.0017599686980247498,0.48912613466382027,,3559.602859765291,test,1,,,,,,,,,,3557.1198085919023,3557.6162372864783,3557.6162372864783,3557.6329180821776,3557.716101434082,3558.2167310863733,3558.6156809851527,3559.622340656817,right,1,0.6416389457881451,0.1,,,,,,,,,,,s019 ,001,2024-07-25_15h46.14.218,simplestop_skeleton,2022.2.2,60.02564974941372,
$currentCorrectResponse,$currentGoStim,,,,,,,,,0,0,0,0,5,1,21,0,,,,,,,,,3559.6033065728843,go,circleblack.png,left,0.1,,,,,,,,,,,,,,,0.0017535127699375153,0.4898083247244358,,3562.105699174106,test,1,,,,,,,,,,3559.622340656817,3560.118895061314,3560.118895061314,3560.1355291716754,3560.21900113672,3560.7195536717772,3561.1186075769365,3562.124770592898,right,0,0.3477122448384762,0.1,,,,,,,,,,,s019 ,001,2024-07-25_15h46.14.218,simplestop_skeleton,2022.2.2,60.02564974941372,
None,None,,,,,,,,,0,0,0,0,5,2,22,3,,,,,,,,,3562.106150202453,stop,squareblack.png,right,0.1,,,,,,,,,,,,,,,0.001566525548696518,0.4895980507135391,0.5897988528013229,3564.6085763201118,test,1,,,,,,,,,,3562.124770592898,3562.6219156607985,3562.6219156607985,3562.6382526792586,3562.721780858934,3563.222286246717,3563.622316982597,3564.6280594952404,None,0,,0.15,,,,,,,,,,,s019 ,001,2024-07-25_15h46.14.218,simplestop_skeleton,2022.2.2,60.02564974941372,
None,None,,,,,,,,,0,0,0,0,5,3,23,1,,,,,,,,,3564.609014619142,go,circleblack.png,left,0.15,,,,,,,,,,,,,,,0.0018623694777488708,0.4893812760710716,,3567.1114635802805,test,1,,,,,,,,,,3564.6280594952404,3565.1242637485266,3565.1242637485266,3565.1411807723343,3565.2745150625706,3565.77363307029,3566.124054081738,3567.130363561213,left,1,0.35053104534745216,0.15,,,,,,,,,,,s019 ,001,2024-07-25_15h46.14.218,simplestop_skeleton,2022.2.2,60.02564974941372,
None,None,,,,,,,,,0,0,0,0,6,0,24,2,,,,,,,,,3567.111903846264,go,circleblack.png,left,0.15,,,,,,,,,,,,,,,0.0013995245099067688,0.48927929252386093,,3569.6138610988855,test,1,,,,,,,,,,3567.130363561213,3567.6272899843752,3567.6272899843752,3567.643937472254,3567.777538832277,3568.277773272246,3568.626771468669,3569.634287804365,right,0,0.37266040593385696,0.15,,,,,,,,,,,s019 ,001,2024-07-25_15h46.14.218,simplestop_skeleton,2022.2.2,60.02564974941372,
None,None,,,,,,,,,0,0,0,0,6,1,25,2,,,,,,,,,3569.6142918989062,go,squareblack.png,right,0.15,,,,,,,,,,,,,,,0.0022469237446784973,0.4884823262691498,,3572.1166322492063,test,1,,,,,,,,,,3569.634287804365,3570.130168110132,3570.130168110132,3570.1465748101473,3570.2799669131637,3570.7806379646063,3571.1294806711376,3572.136044830084,right,1,0.45103221759200096,0.15,,,,,,,,,,,s019 ,001,2024-07-25_15h46.14.218,simplestop_skeleton,2022.2.2,60.02564974941372,
$currentCorrectResponse,$currentGoStim,,,,,,,,,0,0,0,0,6,2,26,0,,,,,,,,,3572.117073941976,stop,circleblack.png,left,0.15,,,,,,,,,,,,,,,0.0017821192741394043,0.49006327241659164,0.6398416608572006,3574.6195186674595,test,1,,,,,,,,,,3572.136044830084,3572.632594920695,3572.632594920695,3572.649307888001,3572.7827787809074,3573.2818807289004,3573.6322773210704,3574.638478666544,left,1,0.3255748152732849,0.1,,,,,,,,,,,s019 ,001,2024-07-25_15h46.14.218,simplestop_skeleton,2022.2.2,60.02564974941372,
None,None,,,,,,,,,0,0,0,0,6,3,27,3,,,,,,,,,3574.6199602894485,go,circleblack.png,left,0.1,,,,,,,,,,,,,,,0.00134306401014328,0.4894956089556217,,3577.1224710568786,test,1,,,,,,,,,,3574.638478666544,3575.135713648051,3575.135713648051,3575.1520975865424,3575.235629249364,3575.73603271693,3576.1350475251675,3577.141747225076,left,1,0.31103694438934326,0.1,,,,,,,,,,,s019 ,001,2024-07-25_15h46.14.218,simplestop_skeleton,2022.2.2,60.02564974941372,
None,None,,,,,,,,,0,0,0,0,7,0,28,3,,,,,,,,,3577.1229098923504,stop,squareblack.png,right,0.1,,,,,,,,,,,,,,,0.0016725175082683563,0.4892188459634781,0.5893303826451302,3579.6248716451228,test,1,,,,,,,,,,3577.141747225076,3577.638085283339,3577.638085283339,3577.654872484505,3577.738090787083,3578.23877479136,3578.6391349323094,3579.6441583037376,None,0,,0.15,,,,,,,,,,,s019 ,001,2024-07-25_15h46.14.218,simplestop_skeleton,2022.2.2,60.02564974941372,
None,None,,,,,,,,,0,0,0,0,7,1,29,1,,,,,,,,,3579.625307843089,go,circleblack.png,left,0.15,,,,,,,,,,,,,,,0.0018656961619853973,0.4896719865500927,,3582.127766277641,test,1,,,,,,,,,,3579.6441583037376,3580.1406609229743,3580.1406609229743,3580.1574204973876,3580.291030306369,3580.7902476787567,3581.1404946111143,3582.1470960192382,left,1,0.35137441009283066,0.15,,,,,,,,,,,s019 ,001,2024-07-25_15h46.14.218,simplestop_skeleton,2022.2.2,60.02564974941372,
None,None,,,,,,,,,0,0,0,0,7,2,30,3,,,,,,,,,3582.128218512982,go,squareblack.png,right,0.15,,,,,,,,,,,,,,,0.0017801597714424133,0.489420510828495,,3584.6306378021836,test,1,,,,,,,,,,3582.1470960192382,3582.6438591852784,3582.6438591852784,3582.660448178649,3582.794244159013,3583.2943924702704,3583.6433263868093,3584.649882670492,right,1,0.5182612650096416,0.15,,,,,,,,,,,s019 ,001,2024-07-25_15h46.14.218,simplestop_skeleton,2022.2.2,60.02564974941372,
None,None,,,,,,,,,0,0,0,0,7,3,31,2,,,,,,,,,3584.6310742907226,stop,squareblack.png,right,0.15,,,,,,,,,,,,,,,0.0013275481760501862,0.48936115205287933,0.6393807046115398,3587.1332590281963,test,1,,,,,,,,,,3584.649882670492,3585.1462953537703,3585.1462953537703,3585.163335196674,3585.2968562804163,3585.7972299084067,3586.1475348435342,3587.1523278690875,None,0,,0.2,,,,,,,,,,,s019 ,001,2024-07-25_15h46.14.218,simplestop_skeleton,2022.2.2,60.02564974941372,
$currentCorrectResponse,$currentGoStim,,,,,,,,,0,0,0,0,8,0,32,0,,,,,,,,,3587.13371001184,go,squareblack.png,right,0.2,,,,,,,,,,,,,,,0.0013371892273426056,0.48947739601135254,,3589.6360392197967,test,1,,,,,,,,,,3587.1523278690875,3587.6494168117642,3587.6494168117642,3587.665748294443,3587.8494173958898,3588.348548244685,3588.6488788835704,3589.655095536262,right,1,0.39169228076934814,0.2,,,,,,,,,,,s019 ,001,2024-07-25_15h46.14.218,simplestop_skeleton,2022.2.2,60.02564974941372,
None,None,,,,,,,,,0,0,0,0,8,1,33,1,,,,,,,,,3589.6364780068398,go,squareblack.png,right,0.2,,,,,,,,,,,,,,,0.0013151951134204865,0.4892720393836498,,3592.138536322862,test,1,,,,,,,,,,3589.655095536262,3590.152254499495,3590.152254499495,3590.168812662363,3590.3522442914546,3590.851297162473,3591.151618734002,3592.16471709311,right,1,0.355647686868906,0.2,,,,,,,,,,,s019 ,001,2024-07-25_15h46.14.218,simplestop_skeleton,2022.2.2,60.02564974941372,
None,None,,,,,,,,,0,0,0,0,8,2,34,1,,,,,,,,,3592.1389761790633,go,circleblack.png,left,0.2,,,,,,,,,,,,,,,0.009003650397062302,0.48975175619125366,,3594.641546756029,test,1,,,,,,,,,,3592.16471709311,3592.6548131480813,3592.6548131480813,3592.6713205352426,3592.8548274822533,3593.355412006378,3593.65431105718,3594.660633482039,left,1,0.357937291264534,0.2,,,,,,,,,,,s019 ,001,2024-07-25_15h46.14.218,simplestop_skeleton,2022.2.2,60.02564974941372,
None,None,,,,,,,,,0,0,0,0,8,3,35,3,,,,,,,,,3594.642001271248,stop,circleblack.png,left,0.2,,,,,,,,,,,,,,,0.0014670342206954956,0.4894232712686062,0.6898848563432693,3597.144561704248,test,1,,,,,,,,,,3594.660633482039,3595.1575106084347,3595.1575106084347,3595.174294870347,3595.3575481921434,3595.8569195233285,3596.156994085759,3597.164560869336,left,1,0.3585018515586853,0.15,,,,,,,,,,,s019 ,001,2024-07-25_15h46.14.218,simplestop_skeleton,2022.2.2,60.02564974941372,
$currentCorrectResponse,$currentGoStim,,,,,,,,,0,0,0,0,9,0,36,0,,,,,,,,,3597.145017616451,stop,squareblack.png,right,0.15,,,,,,,,,,,,,,,0.0025590024888515472,0.48846304789185524,0.6391586847603321,3599.647390846163,test,1,,,,,,,,,,3597.164560869336,3597.659864105284,3597.659864105284,3597.6764142885804,3597.810671776533,3598.3095013685524,3598.660271476954,3599.6665606349707,right,1,0.34461840614676476,0.1,,,,,,,,,,,s019 ,001,2024-07-25_15h46.14.218,simplestop_skeleton,2022.2.2,60.02564974941372,
None,None,,,,,,,,,0,0,0,0,9,1,37,3,,,,,,,,,3599.647825822234,stop,circleblack.png,left,0.1,,,,,,,,,,,,,,,0.0017949342727661133,0.4895887076854706,0.589285034686327,3602.1496976278722,test,1,,,,,,,,,,3599.6665606349707,3600.1631607562304,3600.1631607562304,3600.179608274251,3600.2630248218775,3600.7637454867363,3601.1641996838152,3602.1686707623303,None,0,,0.15,,,,,,,,,,,s019 ,001,2024-07-25_15h46.14.218,simplestop_skeleton,2022.2.2,60.02564974941372,
None,None,,,,,,,,,0,0,0,0,9,2,38,2,,,,,,,,,3602.150139197707,go,circleblack.png,left,0.15,,,,,,,,,,,,,,,0.001303359866142273,0.4899185076355934,,3604.652317877859,test,1,,,,,,,,,,3602.1686707623303,3602.6658722534776,3602.6658722534776,3602.6823754683137,3602.816044639796,3603.3165020123124,3603.6654190272093,3604.6715766340494,left,1,0.29421088099479675,0.15,,,,,,,,,,,s019 ,001,2024-07-25_15h46.14.218,simplestop_skeleton,2022.2.2,60.02564974941372,
None,None,,,,,,,,,0,0,0,0,9,3,39,3,,,,,,,,,3604.652762286365,go,squareblack.png,right,0.15,,,,,,,,,,,,,,,0.0016096383333206177,0.48962626978755,,3607.155547324568,test,1,,,,,,,,,,3604.6715766340494,3605.1687452867627,3605.1687452867627,3605.185174137354,3605.31880235672,3605.819160528481,3606.168196093291,3607.174606129527,right,1,0.4400150403380394,0.15,,,,,,,,,,,s019 ,001,2024-07-25_15h46.14.218,simplestop_skeleton,2022.2.2,60.02564974941372,
None,None,,,,,,,,,0,0,0,0,10,0,40,1,,,,,,,,,3607.155995339155,go,squareblack.png,right,0.15,,,,,,,,,,,,,,,0.0013349354267120361,0.4893035441637039,,3609.6580696590245,test,1,,,,,,,,,,3607.174606129527,3607.671260163188,3607.671260163188,3607.6880292892456,3607.8215088769794,3608.3219737932086,3608.67103780061,3609.6774955764413,right,1,0.41805510595440865,0.15,,,,,,,,,,,s019 ,001,2024-07-25_15h46.14.218,simplestop_skeleton,2022.2.2,60.02564974941372,
None,None,,,,,,,,,0,0,0,0,10,1,41,1,,,,,,,,,3609.6585080251098,go,circleblack.png,left,0.15,,,,,,,,,,,,,,,0.0019033104181289673,0.4896683394908905,,3612.160851750523,test,1,,,,,,,,,,3609.6774955764413,3610.1742728985846,3610.1742728985846,3610.190823800862,3610.32432429865,3610.8246997967362,3611.1736911349,3612.1796278320253,left,1,0.3725191093981266,0.15,,,,,,,,,,,s019 ,001,2024-07-25_15h46.14.218,simplestop_skeleton,2022.2.2,60.02564974941372,
$currentCorrectResponse,$currentGoStim,,,,,,,,,0,0,0,0,10,2,42,0,,,,,,,,,3612.161305565387,go,circleblack.png,left,0.15,,,,,,,,,,,,,,,0.0013148076832294464,0.48978162929415703,,3614.6637363135815,test,1,,,,,,,,,,3612.1796278320253,3612.6770137511194,3612.6770137511194,3612.693536352366,3612.8270968981087,3613.3427020199597,3613.6763766855,3614.682878766209,left,1,0.3296406455338001,0.15,,,,,,,,,,,s019 ,001,2024-07-25_15h46.14.218,simplestop_skeleton,2022.2.2,60.02564974941372,
$currentCorrectResponse,$currentGoStim,,,,,,,,,0,0,0,0,10,3,43,0,,,,,,,,,3614.6641749963164,stop,squareblack.png,right,0.15,,,,,,,,,,,,,,,0.0016748979687690735,0.4897174760699272,0.6398879140615463,3617.1664572507143,test,1,,,,,,,,,,3614.682878766209,3615.179842222482,3615.179842222482,3615.196117155254,3615.3301662430167,3615.8304409198463,3616.180576760322,3617.1853365004063,None,0,,0.2,,,,,,,,,,,s019 ,001,2024-07-25_15h46.14.218,simplestop_skeleton,2022.2.2,60.02564974941372,
None,None,,,,,,,,,0,0,0,0,11,0,44,1,,,,,,,,,3617.1668842099607,go,squareblack.png,right,0.2,,,,,,,,,,,,,,,0.001323692500591278,0.48942454904317856,,3619.6692473441362,test,1,,,,,,,,,,3617.1853365004063,3617.6824242025614,3617.6824242025614,3617.6990411542356,3617.8827118463814,3618.3983117230237,3618.6820337474346,3619.6882436536252,right,1,0.3792313039302826,0.2,,,,,,,,,,,s019 ,001,2024-07-25_15h46.14.218,simplestop_skeleton,2022.2.2,60.02564974941372,
$currentCorrectResponse,$currentGoStim,,,,,,,,,0,0,0,0,11,1,45,0,,,,,,,,,3619.6696771271527,go,squareblack.png,right,0.2,,,,,,,,,,,,,,,0.001330781728029251,0.489493228495121,,3622.1717962808907,test,1,,,,,,,,,,3619.6882436536252,3620.185092587024,3620.185092587024,3620.202092677355,3620.3851817920804,3620.8858732953668,3621.1847971864045,3622.1912746056914,right,1,0.4179808646440506,0.2,,,,,,,,,,,s019 ,001,2024-07-25_15h46.14.218,simplestop_skeleton,2022.2.2,60.02564974941372,
None,None,,,,,,,,,0,0,0,0,11,2,46,2,,,,,,,,,3622.1722242198884,go,circleblack.png,left,0.2,,,,,,,,,,,,,,,0.0019813813269138336,0.4897677004337311,,3624.674700036645,test,1,,,,,,,,,,3622.1912746056914,3622.687894806266,3622.687894806266,3622.704678732902,3622.888271328062,3623.404466792941,3623.6874448135495,3624.693600732833,left,1,0.28458017483353615,0.2,,,,,,,,,,,s019 ,001,2024-07-25_15h46.14.218,simplestop_skeleton,2022.2.2,60.02564974941372,
$currentCorrectResponse,$currentGoStim,,,,,,,,,0,0,0,0,11,3,47,0,,,,,,,,,3624.675131995231,stop,circleblack.png,left,0.2,,,,,,,,,,,,,,,0.001349329948425293,0.4896038621664047,0.6898494735360146,3627.1775117740035,test,1,,,,,,,,,,3624.693600732833,3625.190819464624,3625.190819464624,3625.207302160561,3625.3908693939447,3625.8905673883855,3626.1903210431337,3627.198437385261,left,1,0.2771339863538742,0.15,,,,,,,,,,,s019 ,001,2024-07-25_15h46.14.218,simplestop_skeleton,2022.2.2,60.02564974941372,
,,,,,,,,,,0,0,0,0,,,,,,"[{'fileName': 'circleblack.png', 'correct_response': 'left', 'condition': 'stop'}, {'fileName': 'squareblack.png', 'correct_response': 'right', 'condition': 'stop'}, {'fileName': 'squareblack.png', 'correct_response': 'right', 'condition': 'go'}, {'fileName': 'circleblack.png', 'correct_response': 'left', 'condition': 'go'}, {'fileName': 'squareblack.png', 'correct_response': 'right', 'condition': 'go'}, {'fileName': 'squareblack.png', 'correct_response': 'right', 'condition': 'go'}, {'fileName': 'circleblack.png', 'correct_response': 'left', 'condition': 'go'}, {'fileName': 'circleblack.png', 'correct_response': 'left', 'condition': 'go'}, {'fileName': 'squareblack.png', 'correct_response': 'right', 'condition': 'go'}, {'fileName': 'circleblack.png', 'correct_response': 'left', 'condition': 'go'}, {'fileName': 'circleblack.png', 'correct_response': 'left', 'condition': 'stop'}, {'fileName': 'squareblack.png', 'correct_response': 'right', 'condition': 'stop'}, {'fileName': 'circleblack.png', 'correct_response': 'left', 'condition': 'stop'}, {'fileName': 'squareblack.png', 'correct_response': 'right', 'condition': 'go'}, {'fileName': 'squareblack.png', 'correct_response': 'right', 'condition': 'stop'}, {'fileName': 'squareblack.png', 'correct_response': 'right', 'condition': 'stop'}, {'fileName': 'squareblack.png', 'correct_response': 'right', 'condition': 'go'}, {'fileName': 'circleblack.png', 'correct_response': 'left', 'condition': 'go'}, {'fileName': 'circleblack.png', 'correct_response': 'left', 'condition': 'go'}, {'fileName': 'circleblack.png', 'correct_response': 'left', 'condition': 'stop'}, {'fileName': 'circleblack.png', 'correct_response': 'left', 'condition': 'go'}, {'fileName': 'squareblack.png', 'correct_response': 'right', 'condition': 'go'}, {'fileName': 'circleblack.png', 'correct_response': 'left', 'condition': 'go'}, {'fileName': 'squareblack.png', 'correct_response': 'right', 'condition': 'go'}, {'fileName': 'circleblack.png', 'correct_response': 'left', 'condition': 'go'}, {'fileName': 'squareblack.png', 'correct_response': 'right', 'condition': 'go'}, {'fileName': 'squareblack.png', 'correct_response': 'right', 'condition': 'go'}, {'fileName': 'squareblack.png', 'correct_response': 'right', 'condition': 'stop'}, {'fileName': 'circleblack.png', 'correct_response': 'left', 'condition': 'stop'}, {'fileName': 'circleblack.png', 'correct_response': 'left', 'condition': 'go'}, {'fileName': 'circleblack.png', 'correct_response': 'left', 'condition': 'go'}, {'fileName': 'circleblack.png', 'correct_response': 'left', 'condition': 'go'}, {'fileName': 'squareblack.png', 'correct_response': 'right', 'condition': 'go'}, {'fileName': 'squareblack.png', 'correct_response': 'right', 'condition': 'go'}, {'fileName': 'circleblack.png', 'correct_response': 'left', 'condition': 'stop'}, {'fileName': 'squareblack.png', 'correct_response': 'right', 'condition': 'stop'}, {'fileName': 'squareblack.png', 'correct_response': 'right', 'condition': 'go'}, {'fileName': 'squareblack.png', 'correct_response': 'right', 'condition': 'go'}, {'fileName': 'circleblack.png', 'correct_response': 'left', 'condition': 'stop'}, {'fileName': 'circleblack.png', 'correct_response': 'left', 'condition': 'go'}, {'fileName': 'circleblack.png', 'correct_response': 'left', 'condition': 'go'}, {'fileName': 'circleblack.png', 'correct_response': 'left', 'condition': 'go'}, {'fileName': 'circleblack.png', 'correct_response': 'left', 'condition': 'stop'}, {'fileName': 'squareblack.png', 'correct_response': 'right', 'condition': 'go'}, {'fileName': 'circleblack.png', 'correct_response': 'left', 'condition': 'go'}, {'fileName': 'squareblack.png', 'correct_response': 'right', 'condition': 'stop'}, {'fileName': 'squareblack.png', 'correct_response': 'right', 'condition': 'go'}, {'fileName': 'squareblack.png', 'correct_response': 'right', 'condition': 'stop'}]",,,,,,,,,,,,,,,,,,,,,,,,,,,,,,,,,,,,,,,,,,,,,,,,,,,,,3627.198437385261,3627.198437385261,return,7.543761406093836,,,,,,,s019 ,001,2024-07-25_15h46.14.218,simplestop_skeleton,2022.2.2,60.02564974941372,
$currentCorrectResponse,$currentGoStim,,,,,,,,,1,0,1,0,0,0,0,0,,,,,,,,,3634.770874951035,stop,circleblack.png,left,0.15,,,,,,,,,,,,,,,0.0019377432763576508,0.4839020222425461,0.6339626088738441,3637.2722676321864,test,2,,,,,,,,,,3634.793529417366,3635.2834892719984,3635.2834892719984,3635.300268124789,3635.4336632974446,3635.935733985156,3636.286275535822,3637.296351533383,left,1,0.260407954454422,0.1,,,,,,,,,,,s019 ,001,2024-07-25_15h46.14.218,simplestop_skeleton,2022.2.2,60.02564974941372,
None,None,,,,,,,,,1,0,1,0,0,1,1,3,,,,,,,,,3637.2727942429483,stop,squareblack.png,right,0.1,,,,,,,,,,,,,,,0.00719878077507019,0.4889550544321537,0.5890937112271786,3639.7746243290603,test,2,,,,,,,,,,3637.296351533383,3637.7884847074747,3637.7884847074747,3637.8048396781087,3637.8878703415394,3638.387026567012,3638.8040649034083,3639.793492771685,left,0,0.29252076521515846,0.05,,,,,,,,,,,s019 ,001,2024-07-25_15h46.14.218,simplestop_skeleton,2022.2.2,60.02564974941372,
None,None,,,,,,,,,1,0,1,0,0,2,2,2,,,,,,,,,3639.775095835328,go,squareblack.png,right,0.05,,,,,,,,,,,,,,,0.0013311170041561127,0.4898427203297615,,3642.2770866192877,test,2,,,,,,,,,,3639.793492771685,3640.290621459484,3640.290621459484,3640.3073321059346,3640.3407107032835,3640.841318320483,3641.2902307771146,3642.3018032833934,right,1,0.4385637007653713,0.05,,,,,,,,,,,s019 ,001,2024-07-25_15h46.14.218,simplestop_skeleton,2022.2.2,60.02564974941372,
None,None,,,,,,,,,1,0,1,0,0,3,3,2,,,,,,,,,3642.277522712946,go,circleblack.png,left,0.05,,,,,,,,,,,,,,,0.007952138781547546,0.4898347407579422,,3644.780294891447,test,2,,,,,,,,,,3642.3018032833934,3642.793258201331,3642.793258201331,3642.809963557869,3642.8433636911213,3643.3440199159086,3643.7944675982,3644.799841899425,left,1,0.45609093829989433,0.05,,,,,,,,,,,s019 ,001,2024-07-25_15h46.14.218,simplestop_skeleton,2022.2.2,60.02564974941372,
None,None,,,,,,,,,1,0,1,0,1,0,4,3,,,,,,,,,3644.78073367849,go,squareblack.png,right,0.05,,,,,,,,,,,,,,,0.001754123717546463,0.4890892170369625,,3647.282826818526,test,2,,,,,,,,,,3644.799841899425,3645.296264577657,3645.296264577657,3645.3128247074783,3645.34615528211,3645.846645887941,3646.295633330941,3647.3017380535603,right,1,0.3670264221727848,0.05,,,,,,,,,,,s019 ,001,2024-07-25_15h46.14.218,simplestop_skeleton,2022.2.2,60.02564974941372,
None,None,,,,,,,,,1,0,1,0,1,1,5,1,,,,,,,,,3647.2832610085607,go,squareblack.png,right,0.05,,,,,,,,,,,,,,,0.0012548714876174927,0.49015866219997406,,3649.785824596882,test,2,,,,,,,,,,3647.3017380535603,3647.799065385014,3647.799065385014,3647.8154630325735,3647.8491892553866,3648.3496300913393,3648.798483259976,3649.809440009296,right,1,0.36099128797650337,0.05,,,,,,,,,,,s019 ,001,2024-07-25_15h46.14.218,simplestop_skeleton,2022.2.2,60.02564974941372,
None,None,,,,,,,,,1,0,1,0,1,2,6,2,,,,,,,,,3649.786269452423,go,circleblack.png,left,0.05,,,,,,,,,,,,,,,0.007861193269491196,0.4893396534025669,,3652.2881958782673,test,2,,,,,,,,,,3649.809440009296,3650.301668666303,3650.301668666303,3650.3184440024197,3650.352023202926,3650.8522735089064,3651.301464717835,3652.3073799163103,left,1,0.3477976769208908,0.05,,,,,,,,,,,s019 ,001,2024-07-25_15h46.14.218,simplestop_skeleton,2022.2.2,60.02564974941372,
None,None,,,,,,,,,1,0,1,0,1,3,7,2,,,,,,,,,3652.2886231020093,go,circleblack.png,left,0.05,,,,,,,,,,,,,,,0.0013919956982135773,0.4897700995206833,,3654.791155025363,test,2,,,,,,,,,,3652.3073799163103,3652.8041808344424,3652.8041808344424,3652.8208757787943,3652.8544064983726,3653.354929074645,3653.803959429264,3654.8101546131074,left,1,0.3050612658262253,0.05,,,,,,,,,,,s019 ,001,2024-07-25_15h46.14.218,simplestop_skeleton,2022.2.2,60.02564974941372,
None,None,,,,,,,,,1,0,1,0,2,0,8,3,,,,,,,,,3654.7915851697326,go,squareblack.png,right,0.05,,,,,,,,,,,,,,,0.0016289353370666504,0.48967331275343895,,3657.294173527509,test,2,,,,,,,,,,3654.8101546131074,3655.306969754398,3655.306969754398,3655.323903296143,3655.357291031629,3655.857811614871,3656.3067038990557,3657.3136009685695,left,0,0.32173165678977966,0.05,,,,,,,,,,,s019 ,001,2024-07-25_15h46.14.218,simplestop_skeleton,2022.2.2,60.02564974941372,
None,None,,,,,,,,,1,0,1,0,2,1,9,3,,,,,,,,,3657.2946153581142,go,circleblack.png,left,0.05,,,,,,,,,,,,,,,0.0018213354051113129,0.4897232949733734,,3659.7967647723854,test,2,,,,,,,,,,3657.3136009685695,3657.809925340116,3657.809925340116,3657.826738372445,3657.8604155667126,3658.3605089634657,3658.809645116329,3659.815846506506,left,1,0.41361498460173607,0.05,,,,,,,,,,,s019 ,001,2024-07-25_15h46.14.218,simplestop_skeleton,2022.2.2,60.02564974941372,
None,None,,,,,,,,,1,0,1,0,2,2,10,3,,,,,,,,,3659.7972042560577,stop,circleblack.png,left,0.05,,,,,,,,,,,,,,,0.0014691278338432312,0.48962290957570076,0.5395545139908791,3662.299360577017,test,2,,,,,,,,,,3659.815846506506,3660.3128172270954,3660.3128172270954,3660.3293059803545,3660.362807173282,3660.8636274188757,3661.313793923706,3662.3184984624386,None,0,,0.1,,,,,,,,,,,s019 ,001,2024-07-25_15h46.14.218,simplestop_skeleton,2022.2.2,60.02564974941372,
$currentCorrectResponse,$currentGoStim,,,,,,,,,1,0,1,0,2,3,11,0,,,,,,,,,3662.2997994311154,stop,squareblack.png,right,0.1,,,,,,,,,,,,,,,0.0016156546771526337,0.4898667000234127,0.5900517627596855,3664.802199933678,test,2,,,,,,,,,,3662.3184984624386,3662.8154245354235,3662.8154245354235,3662.832318983972,3662.9157628938556,3663.416176147759,3663.816376462579,3664.821483951062,None,0,,0.15,,,,,,,,,,,s019 ,001,2024-07-25_15h46.14.218,simplestop_skeleton,2022.2.2,60.02564974941372,
None,None,,,,,,,,,1,0,1,0,3,0,12,1,,,,,,,,,3664.8026252500713,stop,circleblack.png,left,0.15,,,,,,,,,,,,,,,0.0018171854317188263,0.48962506651878357,0.6399122066795826,3667.3051753751934,test,2,,,,,,,,,,3664.821483951062,3665.3183083646,3665.3183083646,3665.335184827447,3665.4685244970024,3665.969042517245,3666.317927531898,3667.324326876551,left,1,0.31251899898052216,0.1,,,,,,,,,,,s019 ,001,2024-07-25_15h46.14.218,simplestop_skeleton,2022.2.2,60.02564974941372,
None,None,,,,,,,,,1,0,1,0,3,1,13,1,,,,,,,,,3667.3056127503514,go,squareblack.png,right,0.1,,,,,,,,,,,,,,,0.0017089061439037323,0.48935749381780624,,3669.8075859211385,test,2,,,,,,,,,,3667.324326876551,3667.8210313655436,3667.8210313655436,3667.837680157274,3667.9212086051702,3668.4216764457524,3668.820604402572,3669.82639695704,right,1,0.6689874939620495,0.1,,,,,,,,,,,s019 ,001,2024-07-25_15h46.14.218,simplestop_skeleton,2022.2.2,60.02564974941372,
None,None,,,,,,,,,1,0,1,0,3,2,14,3,,,,,,,,,3669.8080338053405,stop,squareblack.png,right,0.1,,,,,,,,,,,,,,,0.0011917240917682648,0.4899827912449837,0.5899173319339752,3672.3106772601604,test,2,,,,,,,,,,3669.82639695704,3670.3237725533545,3670.3237725533545,3670.3402455039322,3670.4240117408335,3670.924634706229,3671.324988823384,3672.329650517553,None,0,,0.15,,,,,,,,,,,s019 ,001,2024-07-25_15h46.14.218,simplestop_skeleton,2022.2.2,60.02564974941372,
None,None,,,,,,,,,1,0,1,0,3,3,15,3,,,,,,,,,3672.3111225515604,stop,squareblack.png,right,0.15,,,,,,,,,,,,,,,0.001349814236164093,0.4897634759545326,0.6396887712180614,3674.8134706653655,test,2,,,,,,,,,,3672.329650517553,3672.826555516571,3672.826555516571,3672.8432342857122,3672.9766504503787,3673.4774989187717,3673.8276418074965,3674.832354616374,None,0,,0.2,,,,,,,,,,,s019 ,001,2024-07-25_15h46.14.218,simplestop_skeleton,2022.2.2,60.02564974941372,
None,None,,,,,,,,,1,0,1,0,4,0,16,2,,,,,,,,,3674.8139196410775,go,squareblack.png,right,0.2,,,,,,,,,,,,,,,0.001344975084066391,0.489548459649086,,3677.316088475287,test,2,,,,,,,,,,3674.832354616374,3675.329431336373,3675.329431336373,3675.3458884730935,3675.5294232741,3676.030073199421,3676.3288442008197,3677.3414883613586,left,0,0.4242410846054554,0.2,,,,,,,,,,,s019 ,001,2024-07-25_15h46.14.218,simplestop_skeleton,2022.2.2,60.02564974941372,
$currentCorrectResponse,$currentGoStim,,,,,,,,,1,0,1,0,4,1,17,0,,,,,,,,,3677.3165234439075,go,circleblack.png,left,0.2,,,,,,,,,,,,,,,0.008659061044454575,0.48969804868102074,,3679.818913541734,test,2,,,,,,,,,,3677.3414883613586,3677.8320575989783,3677.8320575989783,3677.848673556,3678.032279625535,3678.531417619437,3678.8316934667528,3679.838201891631,left,1,0.35107140988111496,0.2,,,,,,,,,,,s019 ,001,2024-07-25_15h46.14.218,simplestop_skeleton,2022.2.2,60.02564974941372,
None,None,,,,,,,,,1,0,1,0,4,2,18,1,,,,,,,,,3679.819353248924,go,circleblack.png,left,0.2,,,,,,,,,,,,,,,0.001386839896440506,0.48969803005456924,,3682.3215528316796,test,2,,,,,,,,,,3679.838201891631,3680.3349158354104,3680.3349158354104,3680.3519364632666,3680.535042773932,3681.0340136401355,3681.334380581975,3682.3403109759092,left,1,0.39670028164982796,0.2,,,,,,,,,,,s019 ,001,2024-07-25_15h46.14.218,simplestop_skeleton,2022.2.2,60.02564974941372,
None,None,,,,,,,,,1,0,1,0,4,3,19,2,,,,,,,,,3682.3219870738685,stop,circleblack.png,left,0.2,,,,,,,,,,,,,,,0.001334216445684433,0.48949310183525085,0.6896325498819351,3684.824329677969,test,2,,,,,,,,,,3682.3403109759092,3682.8375371210277,3682.8375371210277,3682.854134619236,3683.037604574114,3683.5381675176322,3683.8386961594224,3684.843487724662,None,0,,0.25,,,,,,,,,,,s019 ,001,2024-07-25_15h46.14.218,simplestop_skeleton,2022.2.2,60.02564974941372,
None,None,,,,,,,,,1,0,1,0,5,0,20,1,,,,,,,,,3684.8247716911137,go,circleblack.png,left,0.25,,,,,,,,,,,,,,,0.0014086104929447174,0.48936348035931587,,3687.3269517458975,test,2,,,,,,,,,,3684.843487724662,3685.340003270656,3685.340003270656,3685.35709605366,3685.59055634588,3686.106345947832,3686.340054515749,3687.351632092148,left,1,0.4178031161427498,0.25,,,,,,,,,,,s019 ,001,2024-07-25_15h46.14.218,simplestop_skeleton,2022.2.2,60.02564974941372,
$currentCorrectResponse,$currentGoStim,,,,,,,,,1,0,1,0,5,1,21,0,,,,,,,,,3687.3273835740983,go,squareblack.png,right,0.25,,,,,,,,,,,,,,,0.00770602747797966,0.4896746575832367,,3689.829958651215,test,2,,,,,,,,,,3687.351632092148,3687.8430669493973,3687.8430669493973,3687.859734546393,3688.0934218354523,3688.6091191992164,3688.8427905514836,3689.8491601757705,right,1,0.4417850226163864,0.25,,,,,,,,,,,s019 ,001,2024-07-25_15h46.14.218,simplestop_skeleton,2022.2.2,60.02564974941372,
$currentCorrectResponse,$currentGoStim,,,,,,,,,1,0,1,0,5,2,22,0,,,,,,,,,3689.8303867913783,go,circleblack.png,left,0.25,,,,,,,,,,,,,,,0.0019439943134784698,0.48980075493454933,,3692.3324394263327,test,2,,,,,,,,,,3689.8491601757705,3690.3461272753775,3690.3461272753775,3690.362455304712,3690.5960531271994,3691.0951794683933,3691.345610510558,3692.351769670844,left,1,0.39811549708247185,0.25,,,,,,,,,,,s019 ,001,2024-07-25_15h46.14.218,simplestop_skeleton,2022.2.2,60.02564974941372,
$currentCorrectResponse,$currentGoStim,,,,,,,,,1,0,1,0,5,3,23,0,,,,,,,,,3692.332875214517,go,squareblack.png,right,0.25,,,,,,,,,,,,,,,0.0015997551381587982,0.4896799996495247,,3694.8351391665637,test,2,,,,,,,,,,3692.351769670844,3692.848565839231,3692.848565839231,3692.8651918284595,3693.0988725349307,3693.6146624796093,3693.848112002015,3694.8547105528414,right,1,0.39300045743584633,0.25,,,,,,,,,,,s019 ,001,2024-07-25_15h46.14.218,simplestop_skeleton,2022.2.2,60.02564974941372,
$currentCorrectResponse,$currentGoStim,,,,,,,,,1,0,1,0,6,0,24,0,,,,,,,,,3694.835567213595,go,circleblack.png,left,0.25,,,,,,,,,,,,,,,0.001793447881937027,0.4896828457713127,,3697.3381467573345,test,2,,,,,,,,,,3694.8547105528414,3695.351239427924,3695.351239427924,3695.3680684417486,3695.6015640310943,3696.10069251433,3696.3508261032403,3697.3571708910167,left,1,0.409786943346262,0.25,,,,,,,,,,,s019 ,001,2024-07-25_15h46.14.218,simplestop_skeleton,2022.2.2,60.02564974941372,
$currentCorrectResponse,$currentGoStim,,,,,,,,,1,0,1,0,6,1,25,0,,,,,,,,,3697.3385891616344,go,squareblack.png,right,0.25,,,,,,,,,,,,,,,0.0015574097633361816,0.4897165112197399,,3699.840844511986,test,2,,,,,,,,,,3697.3571708910167,3697.8540187850595,3697.8540187850595,3697.8706036880612,3698.1042556986213,3698.6033952645957,3698.8536307252944,3699.859761722386,right,1,0.4277643524110317,0.25,,,,,,,,,,,s019 ,001,2024-07-25_15h46.14.218,simplestop_skeleton,2022.2.2,60.02564974941372,
None,None,,,,,,,,,1,0,1,0,6,2,26,1,,,,,,,,,3699.8412734381855,go,squareblack.png,right,0.25,,,,,,,,,,,,,,,0.001300916075706482,0.48961682617664337,,3702.343790810555,test,2,,,,,,,,,,3699.859761722386,3700.356835398823,3700.356835398823,3700.3734255880117,3700.6073892340064,3701.1229868344963,3701.3564152754843,3702.362675603479,right,1,0.40599242597818375,0.25,,,,,,,,,,,s019 ,001,2024-07-25_15h46.14.218,simplestop_skeleton,2022.2.2,60.02564974941372,
None,None,,,,,,,,,1,0,1,0,6,3,27,1,,,,,,,,,3702.3442907221615,stop,squareblack.png,right,0.25,,,,,,,,,,,,,,,0.001291561871767044,0.4895786941051483,0.7395813502371311,3704.8467297255993,test,2,,,,,,,,,,3702.362675603479,3702.8597335629165,3702.8597335629165,3702.87652862072,3703.1102889478207,3703.6256525069475,3703.859239913523,3704.8664602413774,right,1,0.3324279747903347,0.2,,,,,,,,,,,s019 ,001,2024-07-25_15h46.14.218,simplestop_skeleton,2022.2.2,60.02564974941372,
None,None,,,,,,,,,1,0,1,0,7,0,28,3,,,,,,,,,3704.84715378657,stop,circleblack.png,left,0.2,,,,,,,,,,,,,,,0.00202004611492157,0.48930342122912407,0.6899258345365524,3707.349137213081,test,2,,,,,,,,,,3704.8664602413774,3705.3623640164733,3705.3623640164733,3705.37913826108,3705.5626417584717,3706.0631262287498,3706.3635767400265,3707.368149895221,None,0,,0.25,,,,,,,,,,,s019 ,001,2024-07-25_15h46.14.218,simplestop_skeleton,2022.2.2,60.02564974941372,
None,None,,,,,,,,,1,0,1,0,7,1,29,2,,,,,,,,,3707.3495634682477,go,circleblack.png,left,0.25,,,,,,,,,,,,,,,0.0013138540089130402,0.4895733669400215,,3709.8518211059272,test,2,,,,,,,,,,3707.368149895221,3707.8651621080935,3707.8651621080935,3707.88181008026,3708.11542102322,3708.6144704297185,3708.8647783212364,3709.870559897274,left,1,0.37316156923770905,0.25,,,,,,,,,,,s019 ,001,2024-07-25_15h46.14.218,simplestop_skeleton,2022.2.2,60.02564974941372,
None,None,,,,,,,,,1,0,1,0,7,2,30,2,,,,,,,,,3709.8522546328604,go,circleblack.png,left,0.25,,,,,,,,,,,,,,,0.0013579018414020538,0.4900384098291397,,3712.3546059131622,test,2,,,,,,,,,,3709.870559897274,3710.3679815232754,3710.3679815232754,3710.384691916406,3710.618158172816,3711.118754260242,3711.3678527511656,3712.373511880636,left,1,0.4887732118368149,0.25,,,,,,,,,,,s019 ,001,2024-07-25_15h46.14.218,simplestop_skeleton,2022.2.2,60.02564974941372,
None,None,,,,,,,,,1,0,1,0,7,3,31,1,,,,,,,,,3712.3550488203764,go,circleblack.png,left,0.25,,,,,,,,,,,,,,,0.0013410411775112152,0.4899660609662533,,3714.857342105359,test,2,,,,,,,,,,3712.373511880636,3712.8707844652236,3712.8707844652236,3712.887342378497,3713.120933867991,3713.6200384758413,3713.8703488335013,3714.8783224336803,left,1,0.4323382042348385,0.25,,,,,,,,,,,s019 ,001,2024-07-25_15h46.14.218,simplestop_skeleton,2022.2.2,60.02564974941372,
$currentCorrectResponse,$currentGoStim,,,,,,,,,1,0,1,0,8,0,32,0,,,,,,,,,3714.8577793985605,go,squareblack.png,right,0.25,,,,,,,,,,,,,,,0.0039890967309474945,0.4896062947809696,,3717.3604091480374,test,2,,,,,,,,,,3714.8783224336803,3715.3738181591034,3715.3738181591034,3715.3902665004134,3715.623835876584,3716.123107776046,3716.3731115721166,3717.379459016025,right,1,0.46181900799274445,0.25,,,,,,,,,,,s019 ,001,2024-07-25_15h46.14.218,simplestop_skeleton,2022.2.2,60.02564974941372,
None,None,,,,,,,,,1,0,1,0,8,1,33,3,,,,,,,,,3717.360845256597,go,squareblack.png,right,0.25,,,,,,,,,,,,,,,0.0013543032109737396,0.48943254724144936,,3719.8627445548773,test,2,,,,,,,,,,3717.379459016025,3717.876146018505,3717.876146018505,3717.892819251865,3718.126472339034,3718.625600978732,3718.875845722854,3719.8822813667357,right,1,0.38388992473483086,0.25,,,,,,,,,,,s019 ,001,2024-07-25_15h46.14.218,simplestop_skeleton,2022.2.2,60.02564974941372,
$currentCorrectResponse,$currentGoStim,,,,,,,,,1,0,1,0,8,2,34,0,,,,,,,,,3719.8631697893143,stop,circleblack.png,left,0.25,,,,,,,,,,,,,,,0.0019074901938438416,0.48983174562454224,0.7402492798864841,3722.365729879588,test,2,,,,,,,,,,3719.8822813667357,3720.3789195604622,3720.3789195604622,3720.3955917432904,3720.629383020103,3721.1449882909656,3721.3785564117134,3722.385009303689,left,1,0.3550183065235615,0.2,,,,,,,,,,,s019 ,001,2024-07-25_15h46.14.218,simplestop_skeleton,2022.2.2,60.02564974941372,
None,None,,,,,,,,,1,0,1,0,8,3,35,1,,,,,,,,,3722.3661537207663,stop,squareblack.png,right,0.2,,,,,,,,,,,,,,,0.0016924738883972168,0.48970892280340195,0.6897219270467758,3724.868615977466,test,2,,,,,,,,,,3722.385009303689,3722.8817404061556,3722.8817404061556,3722.89839829877,3723.0821635089815,3723.5825602412224,3723.882816694677,3724.8877973258495,None,0,,0.25,,,,,,,,,,,s019 ,001,2024-07-25_15h46.14.218,simplestop_skeleton,2022.2.2,60.02564974941372,
None,None,,,,,,,,,1,0,1,0,9,0,36,1,,,,,,,,,3724.869046084583,go,squareblack.png,right,0.25,,,,,,,,,,,,,,,0.0013291053473949432,0.48959867656230927,,3727.3711677379906,test,2,,,,,,,,,,3724.8877973258495,3725.384866286069,3725.384866286069,3725.4010533988476,3725.6348575763404,3726.1505637466908,3726.384953401983,3727.390227910131,right,1,0.42442936077713966,0.25,,,,,,,,,,,s019 ,001,2024-07-25_15h46.14.218,simplestop_skeleton,2022.2.2,60.02564974941372,
None,None,,,,,,,,,1,0,1,0,9,1,37,1,,,,,,,,,3727.37159351632,go,squareblack.png,right,0.25,,,,,,,,,,,,,,,0.0013492107391357422,0.48948506638407707,,3729.8740113526583,test,2,,,,,,,,,,3727.390227910131,3727.8873798027635,3727.8873798027635,3727.9039058871567,3728.137430638075,3728.6365262381732,3728.886905338615,3729.893365442753,right,1,0.3891187012195587,0.25,,,,,,,,,,,s019 ,001,2024-07-25_15h46.14.218,simplestop_skeleton,2022.2.2,60.02564974941372,
None,None,,,,,,,,,1,0,1,0,9,2,38,2,,,,,,,,,3729.8744515031576,stop,circleblack.png,left,0.25,,,,,,,,,,,,,,,0.001849152147769928,0.4897688627243042,0.7398489080369473,3732.3769176080823,test,2,,,,,,,,,,3729.893365442753,3730.390095215291,3730.390095215291,3730.4065305516124,3730.6401990801096,3731.1393923945725,3731.3896051831543,3732.396000701934,left,1,0.41499627009034157,0.2,,,,,,,,,,,s019 ,001,2024-07-25_15h46.14.218,simplestop_skeleton,2022.2.2,60.02564974941372,
$currentCorrectResponse,$currentGoStim,,,,,,,,,1,0,1,0,9,3,39,0,,,,,,,,,3732.377449337393,go,circleblack.png,left,0.2,,,,,,,,,,,,,,,0.00141926109790802,0.48959822207689285,,3734.8793685622513,test,2,,,,,,,,,,3732.396000701934,3732.892917599529,3732.892917599529,3732.909494996071,3733.092964746058,3733.593734115362,3733.8924483433366,3734.8986090123653,right,0,0.37155992165207863,0.2,,,,,,,,,,,s019 ,001,2024-07-25_15h46.14.218,simplestop_skeleton,2022.2.2,60.02564974941372,
None,None,,,,,,,,,1,0,1,0,10,0,40,2,,,,,,,,,3734.87979625538,go,circleblack.png,left,0.2,,,,,,,,,,,,,,,0.0013738460838794708,0.48976730182766914,,3737.3823729529977,test,2,,,,,,,,,,3734.8986090123653,3735.3955418542027,3735.3955418542027,3735.412628494203,3735.5957341082394,3736.0965420864522,3736.3952064178884,3737.4014256708324,left,1,0.4405780993402004,0.2,,,,,,,,,,,s019 ,001,2024-07-25_15h46.14.218,simplestop_skeleton,2022.2.2,60.02564974941372,
None,None,,,,,,,,,1,0,1,0,10,1,41,2,,,,,,,,,3737.382811240852,go,circleblack.png,left,0.2,,,,,,,,,,,,,,,0.0013809390366077423,0.4894932806491852,,3739.8850064724684,test,2,,,,,,,,,,3737.4014256708324,3737.8981298170984,3737.8981298170984,3737.914866436273,3738.0984575226903,3738.597718529403,3738.8978524766862,3739.9038021601737,left,1,0.39644431695342064,0.2,,,,,,,,,,,s019 ,001,2024-07-25_15h46.14.218,simplestop_skeleton,2022.2.2,60.02564974941372,
None,None,,,,,,,,,1,0,1,0,10,2,42,1,,,,,,,,,3739.885440055281,stop,circleblack.png,left,0.2,,,,,,,,,,,,,,,0.0014343447983264923,0.48980747908353806,0.6900842376053333,3742.387991324067,test,2,,,,,,,,,,3739.9038021601737,3740.4009841009974,3740.4009841009974,3740.417610730976,3740.601183027029,3741.100279469043,3741.4006763398647,3742.412546224892,left,1,0.33140577375888824,0.15,,,,,,,,,,,s019 ,001,2024-07-25_15h46.14.218,simplestop_skeleton,2022.2.2,60.02564974941372,
None,None,,,,,,,,,1,0,1,0,10,3,43,3,,,,,,,,,3742.388427551836,go,squareblack.png,right,0.15,,,,,,,,,,,,,,,0.007830630987882614,0.4894760809838772,,3744.8905254751444,test,2,,,,,,,,,,3742.412546224892,3742.9037224128842,3742.9037224128842,3742.9206539690495,3743.0541084967554,3743.5545571371913,3743.9035601355135,3744.9100974723697,right,1,0.49947237595915794,0.15,,,,,,,,,,,s019 ,001,2024-07-25_15h46.14.218,simplestop_skeleton,2022.2.2,60.02564974941372,
$currentCorrectResponse,$currentGoStim,,,,,,,,,1,0,1,0,11,0,44,0,,,,,,,,,3744.8909665085375,go,circleblack.png,left,0.15,,,,,,,,,,,,,,,0.0020033419132232666,0.489718958735466,,3747.393411617726,test,2,,,,,,,,,,3744.9100974723697,3745.4065226241946,3745.4065226241946,3745.42334549129,3745.556779075414,3746.0724668204784,3746.4061964526772,3747.4126971289515,left,1,0.32239897549152374,0.15,,,,,,,,,,,s019 ,001,2024-07-25_15h46.14.218,simplestop_skeleton,2022.2.2,60.02564974941372,
None,None,,,,,,,,,1,0,1,0,11,1,45,3,,,,,,,,,3747.393838133663,stop,squareblack.png,right,0.15,,,,,,,,,,,,,,,0.0018093101680278778,0.4895566441118717,0.6397059969604015,3749.896237246692,test,2,,,,,,,,,,3747.4126971289515,3747.90936216712,3747.90936216712,3747.9261157400906,3748.059790380299,3748.560454364866,3748.910716239363,3749.914950530976,None,0,,0.2,,,,,,,,,,,s019 ,001,2024-07-25_15h46.14.218,simplestop_skeleton,2022.2.2,60.02564974941372,
None,None,,,,,,,,,1,0,1,0,11,2,46,2,,,,,,,,,3749.896671552211,go,squareblack.png,right,0.2,,,,,,,,,,,,,,,0.0013158619403839111,0.49003905802965164,,3752.398767732084,test,2,,,,,,,,,,3749.914950530976,3750.412015620619,3750.412015620619,3750.4287379533052,3750.612308230251,3751.1113680899143,3751.4116714634,3752.4180083163083,left,0,0.32389814406633377,0.2,,,,,,,,,,,s019 ,001,2024-07-25_15h46.14.218,simplestop_skeleton,2022.2.2,60.02564974941372,
None,None,,,,,,,,,1,0,1,0,11,3,47,3,,,,,,,,,3752.3992146737874,stop,squareblack.png,right,0.2,,,,,,,,,,,,,,,0.00138154998421669,0.48915956541895866,0.6895668134093285,3754.9015705250204,test,2,,,,,,,,,,3752.4180083163083,3752.9149411544204,3752.9149411544204,3752.931662350893,3753.1150538548827,3753.6156849078834,3753.9163057804108,3754.921284314245,None,0,,0.25,,,,,,,,,,,s019 ,001,2024-07-25_15h46.14.218,simplestop_skeleton,2022.2.2,60.02564974941372,
,,,,,,,,,,1,0,1,0,,,,,,,,,,,,,,,,,,,,,,,,,,,,,,,,,,,,,,,,,,,,,,,,,,,,,,,,,,,3754.921284314245,3754.921284314245,return,35.68709626048803,"[{'fileName': 'squareblack.png', 'correct_response': 'right', 'condition': 'go'}, {'fileName': 'circleblack.png', 'correct_response': 'left', 'condition': 'stop'}, {'fileName': 'squareblack.png', 'correct_response': 'right', 'condition': 'go'}, {'fileName': 'circleblack.png', 'correct_response': 'left', 'condition': 'go'}, {'fileName': 'circleblack.png', 'correct_response': 'left', 'condition': 'stop'}, {'fileName': 'circleblack.png', 'correct_response': 'left', 'condition': 'go'}, {'fileName': 'squareblack.png', 'correct_response': 'right', 'condition': 'go'}, {'fileName': 'circleblack.png', 'correct_response': 'left', 'condition': 'go'}, {'fileName': 'circleblack.png', 'correct_response': 'left', 'condition': 'go'}, {'fileName': 'squareblack.png', 'correct_response': 'right', 'condition': 'stop'}, {'fileName': 'squareblack.png', 'correct_response': 'right', 'condition': 'stop'}, {'fileName': 'squareblack.png', 'correct_response': 'right', 'condition': 'go'}, {'fileName': 'circleblack.png', 'correct_response': 'left', 'condition': 'go'}, {'fileName': 'circleblack.png', 'correct_response': 'left', 'condition': 'stop'}, {'fileName': 'squareblack.png', 'correct_response': 'right', 'condition': 'stop'}, {'fileName': 'squareblack.png', 'correct_response': 'right', 'condition': 'go'}, {'fileName': 'squareblack.png', 'correct_response': 'right', 'condition': 'go'}, {'fileName': 'circleblack.png', 'correct_response': 'left', 'condition': 'go'}, {'fileName': 'squareblack.png', 'correct_response': 'right', 'condition': 'go'}, {'fileName': 'squareblack.png', 'correct_response': 'right', 'condition': 'go'}, {'fileName': 'circleblack.png', 'correct_response': 'left', 'condition': 'stop'}, {'fileName': 'squareblack.png', 'correct_response': 'right', 'condition': 'stop'}, {'fileName': 'circleblack.png', 'correct_response': 'left', 'condition': 'go'}, {'fileName': 'circleblack.png', 'correct_response': 'left', 'condition': 'go'}, {'fileName': 'squareblack.png', 'correct_response': 'right', 'condition': 'go'}, {'fileName': 'circleblack.png', 'correct_response': 'left', 'condition': 'stop'}, {'fileName': 'squareblack.png', 'correct_response': 'right', 'condition': 'go'}, {'fileName': 'circleblack.png', 'correct_response': 'left', 'condition': 'go'}, {'fileName': 'circleblack.png', 'correct_response': 'left', 'condition': 'go'}, {'fileName': 'squareblack.png', 'correct_response': 'right', 'condition': 'go'}, {'fileName': 'squareblack.png', 'correct_response': 'right', 'condition': 'stop'}, {'fileName': 'circleblack.png', 'correct_response': 'left', 'condition': 'stop'}, {'fileName': 'squareblack.png', 'correct_response': 'right', 'condition': 'stop'}, {'fileName': 'squareblack.png', 'correct_response': 'right', 'condition': 'go'}, {'fileName': 'circleblack.png', 'correct_response': 'left', 'condition': 'go'}, {'fileName': 'circleblack.png', 'correct_response': 'left', 'condition': 'go'}, {'fileName': 'circleblack.png', 'correct_response': 'left', 'condition': 'go'}, {'fileName': 'squareblack.png', 'correct_response': 'right', 'condition': 'go'}, {'fileName': 'squareblack.png', 'correct_response': 'right', 'condition': 'go'}, {'fileName': 'squareblack.png', 'correct_response': 'right', 'condition': 'stop'}, {'fileName': 'circleblack.png', 'correct_response': 'left', 'condition': 'stop'}, {'fileName': 'squareblack.png', 'correct_response': 'right', 'condition': 'stop'}, {'fileName': 'squareblack.png', 'correct_response': 'right', 'condition': 'go'}, {'fileName': 'squareblack.png', 'correct_response': 'right', 'condition': 'go'}, {'fileName': 'circleblack.png', 'correct_response': 'left', 'condition': 'go'}, {'fileName': 'circleblack.png', 'correct_response': 'left', 'condition': 'stop'}, {'fileName': 'circleblack.png', 'correct_response': 'left', 'condition': 'go'}, {'fileName': 'circleblack.png', 'correct_response': 'left', 'condition': 'go'}]",,,,,,s019 ,001,2024-07-25_15h46.14.218,simplestop_skeleton,2022.2.2,60.02564974941372,
None,None,,,,,,,,,2,0,2,0,0,0,0,1,,,,,,,,,3790.650231849402,go,squareblack.png,right,0.25,,,,,,,,,,,,,,,0.0017009340226650238,0.4958810620009899,,3793.1608106456697,test,3,,,,,,,,,,3790.6723013073206,3791.1736647225916,3791.1736647225916,3791.1736647225916,3791.423778768629,3791.925006903708,3792.174802802503,3793.185471948236,left,0,0.5093739666044712,0.25,,,,,,,,,,,s019 ,001,2024-07-25_15h46.14.218,simplestop_skeleton,2022.2.2,60.02564974941372,
None,None,,,,,,,,,2,0,2,0,0,1,1,2,,,,,,,,,3793.161358553916,stop,circleblack.png,left,0.25,,,,,,,,,,,,,,,0.007887929677963257,0.48935260996222496,0.7394222058355808,3795.6634832769632,test,3,,,,,,,,,,3793.185471948236,3793.6763877533376,3793.6763877533376,3793.6931260488927,3793.926672052592,3794.425879754126,3794.676034707576,3795.6824938692153,None,0,,0.3,,,,,,,,,,,s019 ,001,2024-07-25_15h46.14.218,simplestop_skeleton,2022.2.2,60.02564974941372,
None,None,,,,,,,,,2,0,2,0,0,2,2,1,,,,,,,,,3795.6639117114246,go,squareblack.png,right,0.3,,,,,,,,,,,,,,,0.00166238471865654,0.48944883421063423,,3798.1661119274795,test,3,,,,,,,,,,3795.6824938692153,3796.1791835948825,3796.1791835948825,3796.195978883654,3796.479547858238,3796.978650610894,3797.1788391694427,3798.1855350248516,left,0,0.4531666375696659,0.3,,,,,,,,,,,s019 ,001,2024-07-25_15h46.14.218,simplestop_skeleton,2022.2.2,60.02564974941372,
None,None,,,,,,,,,2,0,2,0,0,3,3,2,,,,,,,,,3798.1665564104915,go,circleblack.png,left,0.3,,,,,,,,,,,,,,,0.0017762072384357452,0.48931657895445824,,3800.668544303626,test,3,,,,,,,,,,3798.1855350248516,3798.681879013777,3798.681879013777,3798.6986763589084,3798.982068479061,3799.481365714222,3799.6816924512386,3800.687731590122,None,0,,0.3,,,,,,,,,,,s019 ,001,2024-07-25_15h46.14.218,simplestop_skeleton,2022.2.2,60.02564974941372,
$currentCorrectResponse,$currentGoStim,,,,,,,,,2,0,2,0,1,0,4,0,,,,,,,,,3800.668973401189,stop,circleblack.png,left,0.3,,,,,,,,,,,,,,,0.0013030990958213806,0.48979371786117554,0.7902127206325531,3803.171456422657,test,3,,,,,,,,,,3800.687731590122,3801.18496498093,3801.18496498093,3801.201292477548,3801.484972063452,3801.9840347729623,3802.1850633844733,3803.1909623220563,None,0,,0.35,,,,,,,,,,,s019 ,001,2024-07-25_15h46.14.218,simplestop_skeleton,2022.2.2,60.02564974941372,
$currentCorrectResponse,$currentGoStim,,,,,,,,,2,0,2,0,1,1,5,0,,,,,,,,,3803.1718906238675,go,circleblack.png,left,0.35,,,,,,,,,,,,,,,0.001281503587961197,0.4898847006261349,,3805.6741464063525,test,3,,,,,,,,,,3803.1909623220563,3803.687496546656,3803.687496546656,3803.7039370946586,3804.037908807397,3804.5537765733898,3804.687094632536,3805.693347532302,None,0,,0.35,,,,,,,,,,,s019 ,001,2024-07-25_15h46.14.218,simplestop_skeleton,2022.2.2,60.02564974941372,
None,None,,,,,,,,,2,0,2,0,1,2,6,3,,,,,,,,,3805.674578629434,go,squareblack.png,right,0.35,,,,,,,,,,,,,,,0.0016277506947517395,0.49024127796292305,,3808.1768348030746,test,3,,,,,,,,,,3805.693347532302,3806.1904489845037,3806.1904489845037,3806.2074502408504,3806.5390709601343,3807.041683781892,3807.19092316553,3808.196279630065,left,0,0.5533247329294682,0.35,,,,,,,,,,,s019 ,001,2024-07-25_15h46.14.218,simplestop_skeleton,2022.2.2,60.02564974941372,
None,None,,,,,,,,,2,0,2,0,1,3,7,2,,,,,,,,,3808.1772704832256,go,circleblack.png,left,0.35,,,,,,,,,,,,,,,0.0018882639706134796,0.4896553084254265,,3810.6797031611204,test,3,,,,,,,,,,3808.196279630065,3808.692995477468,3808.692995477468,3808.7095511741936,3809.043572679162,3809.559215672314,3809.692614044994,3810.6984879001975,None,0,,0.35,,,,,,,,,,,s019 ,001,2024-07-25_15h46.14.218,simplestop_skeleton,2022.2.2,60.02564974941372,
$currentCorrectResponse,$currentGoStim,,,,,,,,,2,0,2,0,2,0,8,0,,,,,,,,,3810.680143021047,go,circleblack.png,left,0.35,,,,,,,,,,,,,,,0.001299094408750534,0.4897884763777256,,3813.182457610965,test,3,,,,,,,,,,3810.6984879001975,3811.1956688649952,3811.1956688649952,3811.212302673608,3811.5460247918963,3812.0451137796044,3812.195389844477,3813.2018334157765,None,0,,0.35,,,,,,,,,,,s019 ,001,2024-07-25_15h46.14.218,simplestop_skeleton,2022.2.2,60.02564974941372,
None,None,,,,,,,,,2,0,2,0,2,1,9,1,,,,,,,,,3813.1829159632325,stop,squareblack.png,right,0.35,,,,,,,,,,,,,,,0.0016338340938091278,0.4898456297814846,0.8400807529687881,3815.685346696526,test,3,,,,,,,,,,3813.2018334157765,3813.698638267815,3813.698638267815,3813.715134628117,3814.048697795719,3814.5479015149176,3814.698176730424,3815.7040593214333,left,0,0.4162968024611473,0.3,,,,,,,,,,,s019 ,001,2024-07-25_15h46.14.218,simplestop_skeleton,2022.2.2,60.02564974941372,
None,None,,,,,,,,,2,0,2,0,2,2,10,3,,,,,,,,,3815.685773808509,stop,squareblack.png,right,0.3,,,,,,,,,,,,,,,0.0013507381081581116,0.48941514268517494,0.7898689471185207,3818.18839456141,test,3,,,,,,,,,,3815.7040593214333,3816.2013087831438,3816.2013087831438,3816.218077067286,3816.501426320523,3817.000953029841,3817.2008521966636,3818.2072133645415,left,0,0.5228339396417141,0.25,,,,,,,,,,,s019 ,001,2024-07-25_15h46.14.218,simplestop_skeleton,2022.2.2,60.02564974941372,
None,None,,,,,,,,,2,0,2,0,2,3,11,1,,,,,,,,,3818.1888500005007,go,squareblack.png,right,0.25,,,,,,,,,,,,,,,0.00138169527053833,0.4892675653100014,,3820.6908213868737,test,3,,,,,,,,,,3818.2072133645415,3818.7041689530015,3818.7041689530015,3818.720703717321,3818.954250905663,3819.455229628831,3819.7036395408213,3820.7103756330907,left,0,0.5557433888316154,0.25,,,,,,,,,,,s019 ,001,2024-07-25_15h46.14.218,simplestop_skeleton,2022.2.2,60.02564974941372,
None,None,,,,,,,,,2,0,2,0,3,0,12,3,,,,,,,,,3820.6912590824068,go,circleblack.png,left,0.25,,,,,,,,,,,,,,,0.002011112868785858,0.4897199384868145,,3823.1932021752,test,3,,,,,,,,,,3820.7103756330907,3821.2067876420915,3821.2067876420915,3821.223484110087,3821.456996873021,3821.9563782699406,3822.2064157500863,3823.212381567806,None,0,,0.25,,,,,,,,,,,s019 ,001,2024-07-25_15h46.14.218,simplestop_skeleton,2022.2.2,60.02564974941372,
None,None,,,,,,,,,2,0,2,0,3,1,13,3,,,,,,,,,3823.1936391703784,stop,circleblack.png,left,0.25,,,,,,,,,,,,,,,0.0013417452573776245,0.4897615648806095,0.7400979734957218,3825.6963395550847,test,3,,,,,,,,,,3823.212381567806,3823.7095998190343,3823.7095998190343,3823.7262919954956,3823.9599250108004,3824.460436772555,3824.710521414876,3825.715649597347,None,0,,0.3,,,,,,,,,,,s019 ,001,2024-07-25_15h46.14.218,simplestop_skeleton,2022.2.2,60.02564974941372,
None,None,,,,,,,,,2,0,2,0,3,2,14,1,,,,,,,,,3825.696792732924,stop,squareblack.png,right,0.3,,,,,,,,,,,,,,,0.0017124712467193604,0.4896984398365021,0.7899839915335178,3828.199019894004,test,3,,,,,,,,,,3825.715649597347,3826.2123319655657,3826.2123319655657,3826.2288316860795,3826.512698058039,3827.01171868667,3827.211832895875,3828.218030795455,left,0,0.3890187181532383,0.25,,,,,,,,,,,s019 ,001,2024-07-25_15h46.14.218,simplestop_skeleton,2022.2.2,60.02564974941372,
None,None,,,,,,,,,2,0,2,0,3,3,15,2,,,,,,,,,3828.199453525245,go,squareblack.png,right,0.25,,,,,,,,,,,,,,,0.0012394823133945465,0.4897999279201031,,3830.7017890773714,test,3,,,,,,,,,,3828.218030795455,3828.715052329004,3828.715052329004,3828.7316441312432,3828.9653098657727,3829.465966705233,3829.71470329538,3830.7204586714506,left,0,0.40076905861496925,0.25,,,,,,,,,,,s019 ,001,2024-07-25_15h46.14.218,simplestop_skeleton,2022.2.2,60.02564974941372,
None,None,,,,,,,,,2,0,2,0,4,0,16,1,,,,,,,,,3830.7022995576262,go,squareblack.png,right,0.25,,,,,,,,,,,,,,,0.001246042549610138,0.4897448979318142,,3833.204384241253,test,3,,,,,,,,,,3830.7204586714506,3831.2178136967123,3831.2178136967123,3831.234505943954,3831.4682102128863,3831.983887437731,3832.217383299023,3833.22391917184,left,0,0.40123284235596657,0.25,,,,,,,,,,,s019 ,001,2024-07-25_15h46.14.218,simplestop_skeleton,2022.2.2,60.02564974941372,
None,None,,,,,,,,,2,0,2,0,4,1,17,3,,,,,,,,,3833.2048220448196,go,circleblack.png,left,0.25,,,,,,,,,,,,,,,0.0019187889993190765,0.4897383451461792,,3835.7073122411966,test,3,,,,,,,,,,3833.22391917184,3833.7204687818885,3833.7204687818885,3833.7372340485454,3833.970865558833,3834.4701617881656,3834.720259167254,3835.7264831252396,None,0,,0.25,,,,,,,,,,,s019 ,001,2024-07-25_15h46.14.218,simplestop_skeleton,2022.2.2,60.02564974941372,
$currentCorrectResponse,$currentGoStim,,,,,,,,,2,0,2,0,4,2,18,0,,,,,,,,,3835.7077423147857,go,squareblack.png,right,0.25,,,,,,,,,,,,,,,0.0015649013221263885,0.489533681422472,,3838.209925994277,test,3,,,,,,,,,,3835.7264831252396,3836.223382651806,3836.223382651806,3836.2399723753333,3836.4736400954425,3836.9741123765707,3837.2228747829795,3838.2288718409836,left,0,0.564689289778471,0.25,,,,,,,,,,,s019 ,001,2024-07-25_15h46.14.218,simplestop_skeleton,2022.2.2,60.02564974941372,
$currentCorrectResponse,$currentGoStim,,,,,,,,,2,0,2,0,4,3,19,0,,,,,,,,,3838.21035528183,go,squareblack.png,right,0.25,,,,,,,,,,,,,,,0.0012632347643375397,0.4900723323225975,,3840.7126725912094,test,3,,,,,,,,,,3838.2288718409836,3838.726199813187,3838.726199813187,3838.7427322641015,3838.976371470839,3839.492085520178,3839.7257106415927,3840.732500884682,left,0,0.3255034387111664,0.25,,,,,,,,,,,s019 ,001,2024-07-25_15h46.14.218,simplestop_skeleton,2022.2.2,60.02564974941372,
None,None,,,,,,,,,2,0,2,0,5,0,20,2,,,,,,,,,3840.713108908385,stop,circleblack.png,left,0.25,,,,,,,,,,,,,,,0.0019501261413097382,0.4894113056361675,0.7398416697978973,3843.2154029905796,test,3,,,,,,,,,,3840.732500884682,3841.228845346719,3841.228845346719,3841.245361145586,3841.47914782539,3841.978223811835,3842.2284551151097,3843.2354620061815,None,0,,0.3,,,,,,,,,,,s019 ,001,2024-07-25_15h46.14.218,simplestop_skeleton,2022.2.2,60.02564974941372,
None,None,,,,,,,,,2,0,2,0,5,1,21,2,,,,,,,,,3843.2158618718386,stop,squareblack.png,right,0.3,,,,,,,,,,,,,,,0.002555638551712036,0.4891291372478008,0.7893710844218731,3845.7182630077004,test,3,,,,,,,,,,3843.2354620061815,3843.7316163778305,3843.7316163778305,3843.7482751831412,3844.031981304288,3844.5325480178,3844.7325918599963,3845.737719606608,None,0,,0.35,,,,,,,,,,,s019 ,001,2024-07-25_15h46.14.218,simplestop_skeleton,2022.2.2,60.02564974941372,
None,None,,,,,,,,,2,0,2,0,5,2,22,3,,,,,,,,,3845.7187249064445,go,circleblack.png,left,0.35,,,,,,,,,,,,,,,0.0019291229546070099,0.489855345338583,,3848.22093141824,test,3,,,,,,,,,,3845.737719606608,3846.2344533093274,3846.2344533093274,3846.251125726849,3846.584688413888,3847.083810221404,3847.234137337655,3848.239696133882,None,0,,0.35,,,,,,,,,,,s019 ,001,2024-07-25_15h46.14.218,simplestop_skeleton,2022.2.2,60.02564974941372,
$currentCorrectResponse,$currentGoStim,,,,,,,,,2,0,2,0,5,3,23,0,,,,,,,,,3848.221366625279,go,circleblack.png,left,0.35,,,,,,,,,,,,,,,0.0012529194355010986,0.48989546298980713,,3850.723619930446,test,3,,,,,,,,,,3848.239696133882,3848.7371603250504,3848.7371603250504,3848.7538064047694,3849.0874512270093,3849.586694717407,3849.737437531352,3850.7428112365305,None,0,,0.35,,,,,,,,,,,s019 ,001,2024-07-25_15h46.14.218,simplestop_skeleton,2022.2.2,60.02564974941372,
None,None,,,,,,,,,2,0,2,0,6,0,24,1,,,,,,,,,3850.7240626104176,go,squareblack.png,right,0.35,,,,,,,,,,,,,,,0.0017851926386356354,0.4899009019136429,,3853.2266026102006,test,3,,,,,,,,,,3850.7428112365305,3851.239762034267,3851.239762034267,3851.2565471194685,3851.5903997793794,3852.091113574803,3852.2396266646683,3853.245888773352,left,0,0.5794223695993423,0.35,,,,,,,,,,,s019 ,001,2024-07-25_15h46.14.218,simplestop_skeleton,2022.2.2,60.02564974941372,
None,None,,,,,,,,,2,0,2,0,6,1,25,2,,,,,,,,,3853.2270714342594,stop,circleblack.png,left,0.35,,,,,,,,,,,,,,,0.0018183663487434387,0.4900469705462456,0.8401086181402206,3855.729382481426,test,3,,,,,,,,,,3853.245888773352,3853.7425205484033,3853.7425205484033,3853.7594173289835,3854.092872772366,3854.592108439654,3854.7422477565706,3855.748835608363,None,0,,0.4,,,,,,,,,,,s019 ,001,2024-07-25_15h46.14.218,simplestop_skeleton,2022.2.2,60.02564974941372,
None,None,,,,,,,,,2,0,2,0,6,2,26,3,,,,,,,,,3855.7298114150763,go,squareblack.png,right,0.4,,,,,,,,,,,,,,,0.0016991309821605682,0.4894065670669079,,3858.2320616170764,test,3,,,,,,,,,,3855.748835608363,3856.245489448309,3856.245489448309,3856.2621231414378,3856.6456477865577,3857.1449366249144,3857.245173558593,3858.2514851763844,left,0,0.4550352320075035,0.4,,,,,,,,,,,s019 ,001,2024-07-25_15h46.14.218,simplestop_skeleton,2022.2.2,60.02564974941372,
None,None,,,,,,,,,2,0,2,0,6,3,27,3,,,,,,,,,3858.2325044311583,go,circleblack.png,left,0.4,,,,,,,,,,,,,,,0.001752171665430069,0.4898529127240181,,3860.7351564876735,test,3,,,,,,,,,,3858.2514851763844,3858.7481554336846,3858.7481554336846,3858.7650036364794,3859.1489169858396,3859.6649174019694,3859.7477639764547,3860.754314456135,None,0,,0.4,,,,,,,,,,,s019 ,001,2024-07-25_15h46.14.218,simplestop_skeleton,2022.2.2,60.02564974941372,
None,None,,,,,,,,,2,0,2,0,7,0,28,1,,,,,,,,,3860.735597010702,go,circleblack.png,left,0.4,,,,,,,,,,,,,,,0.0014197006821632385,0.48932262510061264,,3863.2374187484384,test,3,,,,,,,,,,3860.754314456135,3861.2507471479475,3861.2507471479475,3861.267511572689,3861.6511693373322,3862.150840770453,3862.2505736202,3863.256690930575,None,0,,0.4,,,,,,,,,,,s019 ,001,2024-07-25_15h46.14.218,simplestop_skeleton,2022.2.2,60.02564974941372,
$currentCorrectResponse,$currentGoStim,,,,,,,,,2,0,2,0,7,1,29,0,,,,,,,,,3863.237844865769,go,squareblack.png,right,0.4,,,,,,,,,,,,,,,0.0016642138361930847,0.48985733464360237,,3865.740565754473,test,3,,,,,,,,,,3863.256690930575,3863.753710690886,3863.753710690886,3863.7703527212143,3864.154319740832,3864.6537693329155,3864.753472946584,3865.7596427612007,left,0,0.4089813567698002,0.4,,,,,,,,,,,s019 ,001,2024-07-25_15h46.14.218,simplestop_skeleton,2022.2.2,60.02564974941372,
$currentCorrectResponse,$currentGoStim,,,,,,,,,2,0,2,0,7,2,30,0,,,,,,,,,3865.7410287111998,stop,squareblack.png,right,0.4,,,,,,,,,,,,,,,0.0012958981096744537,0.48936752602458,0.8898529186844826,3868.2432153113186,test,3,,,,,,,,,,3865.7596427612007,3866.2563102394342,3866.2563102394342,3866.2733019292355,3866.6567277237773,3867.156155090779,3867.2563128732145,3868.2625385969877,left,0,0.4090355150401592,0.35,,,,,,,,,,,s019 ,001,2024-07-25_15h46.14.218,simplestop_skeleton,2022.2.2,60.02564974941372,
None,None,,,,,,,,,2,0,2,0,7,3,31,2,,,,,,,,,3868.2436411716044,stop,circleblack.png,left,0.35,,,,,,,,,,,,,,,0.0018875710666179657,0.48966410011053085,0.8400297947227955,3870.7461063712835,test,3,,,,,,,,,,3868.2625385969877,3868.7594743147492,3868.7594743147492,3868.7758439816535,3869.110178951174,3869.6259325370193,3869.7588788978755,3870.7651751711965,None,0,,0.4,,,,,,,,,,,s019 ,001,2024-07-25_15h46.14.218,simplestop_skeleton,2022.2.2,60.02564974941372,
None,None,,,,,,,,,2,0,2,0,8,0,32,1,,,,,,,,,3870.7465475983918,stop,squareblack.png,right,0.4,,,,,,,,,,,,,,,0.0017048120498657227,0.4896301291882992,0.890834391117096,3873.2487429492176,test,3,,,,,,,,,,3870.7651751711965,3871.2620042786,3871.2620042786,3871.2786656469107,3871.662849854678,3872.1782692559063,3872.2616224586964,3873.2678712569177,left,0,0.48398585617542267,0.35,,,,,,,,,,,s019 ,001,2024-07-25_15h46.14.218,simplestop_skeleton,2022.2.2,60.02564974941372,
None,None,,,,,,,,,2,0,2,0,8,1,33,2,,,,,,,,,3873.2492263913155,go,squareblack.png,right,0.35,,,,,,,,,,,,,,,0.001312948763370514,0.4895889274775982,,3875.7514892071486,test,3,,,,,,,,,,3873.2678712569177,3873.76467499882,3873.76467499882,3873.7814845107496,3874.1156163290143,3874.631597381085,3874.764312144369,3875.7708906307817,left,0,0.5013683289289474,0.35,,,,,,,,,,,s019 ,001,2024-07-25_15h46.14.218,simplestop_skeleton,2022.2.2,60.02564974941372,
None,None,,,,,,,,,2,0,2,0,8,2,34,3,,,,,,,,,3875.7519284151495,go,circleblack.png,left,0.35,,,,,,,,,,,,,,,0.0019289888441562653,0.48960985988378525,,3878.254364769906,test,3,,,,,,,,,,3875.7708906307817,3876.267457872629,3876.267457872629,3876.2842543944716,3876.6179197840393,3877.1336941868067,3877.2674121037126,3878.273441839963,None,0,,0.35,,,,,,,,,,,s019 ,001,2024-07-25_15h46.14.218,simplestop_skeleton,2022.2.2,60.02564974941372,
None,None,,,,,,,,,2,0,2,0,8,3,35,2,,,,,,,,,3878.2548046149313,go,circleblack.png,left,0.35,,,,,,,,,,,,,,,0.0013693496584892273,0.48955511674284935,,3880.75694456324,test,3,,,,,,,,,,3878.273441839963,3878.770385824144,3878.770385824144,3878.786802522838,3879.120676536113,3879.6200926713645,3879.769912801683,3880.776227079332,None,0,,0.35,,,,,,,,,,,s019 ,001,2024-07-25_15h46.14.218,simplestop_skeleton,2022.2.2,60.02564974941372,
None,None,,,,,,,,,2,0,2,0,9,0,36,2,,,,,,,,,3880.7573887892067,go,circleblack.png,left,0.35,,,,,,,,,,,,,,,0.001386243849992752,0.4894307069480419,,3883.2596479319036,test,3,,,,,,,,,,3880.776227079332,3881.2729956135154,3881.2729956135154,3881.2897526472807,3881.6232633925974,3882.122514542192,3882.272686444223,3883.279158424586,None,0,,0.35,,,,,,,,,,,s019 ,001,2024-07-25_15h46.14.218,simplestop_skeleton,2022.2.2,60.02564974941372,
None,None,,,,,,,,,2,0,2,0,9,1,37,1,,,,,,,,,3883.2600919529796,go,squareblack.png,right,0.35,,,,,,,,,,,,,,,0.001691434532403946,0.48969392850995064,,3885.7629539445043,test,3,,,,,,,,,,3883.279158424586,3883.7758696861565,3883.7758696861565,3883.792593050748,3884.1261863410473,3884.62526800856,3884.775591749698,3885.782440468669,left,0,0.43448198214173317,0.35,,,,,,,,,,,s019 ,001,2024-07-25_15h46.14.218,simplestop_skeleton,2022.2.2,60.02564974941372,
$currentCorrectResponse,$currentGoStim,,,,,,,,,2,0,2,0,9,2,38,0,,,,,,,,,3885.7634685337543,go,squareblack.png,right,0.35,,,,,,,,,,,,,,,0.0022219568490982056,0.48873890191316605,,3888.265122614801,test,3,,,,,,,,,,3885.782440468669,3886.278596483171,3886.278596483171,3886.295149002224,3886.629021476954,3887.127961244434,3887.2783446647227,3888.2839932590723,left,0,0.42255542054772377,0.35,,,,,,,,,,,s019 ,001,2024-07-25_15h46.14.218,simplestop_skeleton,2022.2.2,60.02564974941372,
None,None,,,,,,,,,2,0,2,0,9,3,39,1,,,,,,,,,3888.2655497305095,stop,squareblack.png,right,0.35,,,,,,,,,,,,,,,0.0011913925409317017,0.4897116534411907,0.8401436284184456,3890.7681866437197,test,3,,,,,,,,,,3888.2839932590723,3888.7812878489494,3888.7812878489494,3888.797950260341,3889.131705157459,3889.630905110389,3889.7809056416154,3890.7880264110863,left,0,0.4087557755410671,0.3,,,,,,,,,,,s019 ,001,2024-07-25_15h46.14.218,simplestop_skeleton,2022.2.2,60.02564974941372,
None,None,,,,,,,,,2,0,2,0,10,0,40,3,,,,,,,,,3890.7686118111014,stop,circleblack.png,left,0.3,,,,,,,,,,,,,,,0.0024471282958984375,0.48933155462145805,0.7898029498755932,3893.2707189284265,test,3,,,,,,,,,,3890.7880264110863,3891.284023873508,3891.284023873508,3891.300729162991,3891.584349375218,3892.084884338081,3892.284126803279,3893.290171202272,None,0,,0.35,,,,,,,,,,,s019 ,001,2024-07-25_15h46.14.218,simplestop_skeleton,2022.2.2,60.02564974941372,
None,None,,,,,,,,,2,0,2,0,10,1,41,1,,,,,,,,,3893.271143808961,stop,squareblack.png,right,0.35,,,,,,,,,,,,,,,0.0018094107508659363,0.4896377697587013,0.8400487378239632,3895.7736719362438,test,3,,,,,,,,,,3893.290171202272,3893.786875203252,3893.786875203252,3893.803481053561,3894.137131869793,3894.636325247586,3894.786823682487,3895.793392185122,left,0,0.451542753726244,0.3,,,,,,,,,,,s019 ,001,2024-07-25_15h46.14.218,simplestop_skeleton,2022.2.2,60.02564974941372,
None,None,,,,,,,,,2,0,2,0,10,2,42,2,,,,,,,,,3895.7741174958646,go,squareblack.png,right,0.3,,,,,,,,,,,,,,,0.0015322677791118622,0.48912523314356804,,3898.276323903352,test,3,,,,,,,,,,3895.793392185122,3896.289483062923,3896.289483062923,3896.3062959313393,3896.5898294001818,3897.089064795524,3897.289237100631,3898.2951261401176,left,0,0.3656461499631405,0.3,,,,,,,,,,,s019 ,001,2024-07-25_15h46.14.218,simplestop_skeleton,2022.2.2,60.02564974941372,
$currentCorrectResponse,$currentGoStim,,,,,,,,,2,0,2,0,10,3,43,0,,,,,,,,,3898.2767710126936,go,squareblack.png,right,0.3,,,,,,,,,,,,,,,0.001230381429195404,0.48839762806892395,,3900.7790911495686,test,3,,,,,,,,,,3898.2951261401176,3898.791073858738,3898.791073858738,3898.80778067559,3899.092301107943,3899.591751329601,3899.792164646089,3900.798950497061,left,0,0.4528619721531868,0.3,,,,,,,,,,,s019 ,001,2024-07-25_15h46.14.218,simplestop_skeleton,2022.2.2,60.02564974941372,
$currentCorrectResponse,$currentGoStim,,,,,,,,,2,0,2,0,11,0,44,0,,,,,,,,,3900.779534637928,go,circleblack.png,left,0.3,,,,,,,,,,,,,,,0.0021047256886959076,0.48949724808335304,,3903.281687874347,test,3,,,,,,,,,,3900.798950497061,3901.2950820587575,3901.2950820587575,3901.3118760176003,3901.595403842628,3902.094551742077,3902.295173060149,3903.3009194247425,None,0,,0.3,,,,,,,,,,,s019 ,001,2024-07-25_15h46.14.218,simplestop_skeleton,2022.2.2,60.02564974941372,
None,None,,,,,,,,,2,0,2,0,11,1,45,3,,,,,,,,,3903.2821227759123,stop,circleblack.png,left,0.3,,,,,,,,,,,,,,,0.0013243183493614197,0.4898092970252037,0.7900448217988014,3905.7845785580575,test,3,,,,,,,,,,3903.3009194247425,3903.7977786026895,3903.7977786026895,3903.8144234232605,3904.098094943911,3904.5973030999303,3904.797670401633,3905.8040173202753,None,0,,0.35,,,,,,,,,,,s019 ,001,2024-07-25_15h46.14.218,simplestop_skeleton,2022.2.2,60.02564974941372,
$currentCorrectResponse,$currentGoStim,,,,,,,,,2,0,2,0,11,2,46,0,,,,,,,,,3905.7850274294615,go,circleblack.png,left,0.35,,,,,,,,,,,,,,,0.0013518892228603363,0.4896019883453846,,3908.2877982892096,test,3,,,,,,,,,,3905.8040173202753,3906.3007294908166,3906.3007294908166,3906.3172547742724,3906.651089888066,3907.1519218422472,3907.301925390959,3908.310194797814,None,0,,0.35,,,,,,,,,,,s019 ,001,2024-07-25_15h46.14.218,simplestop_skeleton,2022.2.2,60.02564974941372,
None,None,,,,,,,,,2,0,2,0,11,3,47,3,,,,,,,,,3908.288271740079,go,circleblack.png,left,0.35,,,,,,,,,,,,,,,0.0018125958740711212,0.48585178330540657,,3910.7902696095407,test,3,,,,,,,,,,3908.310194797814,3908.803205382079,3908.803205382079,3908.820301335305,3909.1543478518724,3909.6696035712957,3909.8032513447106,3910.805942066014,None,0,,0.35,,,,,,,,,,,s019 ,001,2024-07-25_15h46.14.218,simplestop_skeleton,2022.2.2,60.02564974941372,
