corrGoResp,shape,practiceBlocks.thisRepN,practiceBlocks.thisTrialN,practiceBlocks.thisN,practiceBlocks.thisIndex,practiceTrials.thisRepN,practiceTrials.thisTrialN,practiceTrials.thisN,practiceTrials.thisIndex,stopBlocks.thisRepN,stopBlocks.thisTrialN,stopBlocks.thisN,stopBlocks.thisIndex,testTrials.thisRepN,testTrials.thisTrialN,testTrials.thisN,testTrials.thisIndex,stopPracTrialList,Test Block: 1,welcome.started,start_exp.started,start_exp.keys,start_exp.rt,instrStopText.started,start_prac.started,StartTrialTimeStamp,trialType,goStim,correctResponse,ssd,fixation.started,rules.started,goStim.started,goResp.started,fixation.stopped,stopSignal.started,stopSignal.stopped,goStim.stopped,goResp.stopped,rules.stopped,goResp.keys,goResp.corr,text.started,rules_2.started,fixationOnset,goStimOnset,stopSignalOnset,EndTrialTimeStamp,Phase,Block,text.stopped,rules_2.stopped,goResp.rt,text_5.started,key_resp_3.started,key_resp_3.keys,key_resp_3.rt,key_resp.started,testText.started,test_fixation.started,goStim_test.started,goResp_test.started,test_fixation.stopped,stopSignal_test.started,goStim_test.stopped,stopSignal_test.stopped,goResp_test.stopped,goResp_test.keys,goResp_test.corr,goResp_test.rt,EndingSSD,text_6.started,key_resp_4.started,key_resp_4.keys,key_resp_4.rt,Test Block: 2,Test Block: 3,ending_text.started,end_resp.started,end_resp.keys,end_resp.rt,participant,session,date,expName,psychopyVersion,frameRate,
,,,,,,,,,,,,,,,,,,"[{'fileName': 'squareblack.png', 'correct_response': 'right', 'condition': 'stop'}, {'fileName': 'circleblack.png', 'correct_response': 'left', 'condition': 'stop'}, {'fileName': 'circleblack.png', 'correct_response': 'left', 'condition': 'stop'}, {'fileName': 'squareblack.png', 'correct_response': 'right', 'condition': 'go'}, {'fileName': 'circleblack.png', 'correct_response': 'left', 'condition': 'go'}, {'fileName': 'circleblack.png', 'correct_response': 'left', 'condition': 'go'}, {'fileName': 'circleblack.png', 'correct_response': 'left', 'condition': 'go'}, {'fileName': 'squareblack.png', 'correct_response': 'right', 'condition': 'go'}, {'fileName': 'squareblack.png', 'correct_response': 'right', 'condition': 'go'}, {'fileName': 'circleblack.png', 'correct_response': 'left', 'condition': 'go'}, {'fileName': 'squareblack.png', 'correct_response': 'right', 'condition': 'stop'}, {'fileName': 'squareblack.png', 'correct_response': 'right', 'condition': 'go'}, {'fileName': 'circleblack.png', 'correct_response': 'left', 'condition': 'go'}, {'fileName': 'squareblack.png', 'correct_response': 'right', 'condition': 'go'}, {'fileName': 'circleblack.png', 'correct_response': 'left', 'condition': 'go'}, {'fileName': 'circleblack.png', 'correct_response': 'left', 'condition': 'go'}, {'fileName': 'squareblack.png', 'correct_response': 'right', 'condition': 'stop'}, {'fileName': 'squareblack.png', 'correct_response': 'right', 'condition': 'go'}, {'fileName': 'squareblack.png', 'correct_response': 'right', 'condition': 'go'}, {'fileName': 'squareblack.png', 'correct_response': 'right', 'condition': 'go'}, {'fileName': 'squareblack.png', 'correct_response': 'right', 'condition': 'stop'}, {'fileName': 'circleblack.png', 'correct_response': 'left', 'condition': 'stop'}, {'fileName': 'circleblack.png', 'correct_response': 'left', 'condition': 'stop'}, {'fileName': 'circleblack.png', 'correct_response': 'left', 'condition': 'go'}]","[{'fileName': 'squareblack.png', 'correct_response': 'right', 'condition': 'go'}, {'fileName': 'circleblack.png', 'correct_response': 'left', 'condition': 'go'}, {'fileName': 'circleblack.png', 'correct_response': 'left', 'condition': 'stop'}, {'fileName': 'squareblack.png', 'correct_response': 'right', 'condition': 'go'}, {'fileName': 'squareblack.png', 'correct_response': 'right', 'condition': 'stop'}, {'fileName': 'squareblack.png', 'correct_response': 'right', 'condition': 'go'}, {'fileName': 'circleblack.png', 'correct_response': 'left', 'condition': 'go'}, {'fileName': 'squareblack.png', 'correct_response': 'right', 'condition': 'go'}, {'fileName': 'squareblack.png', 'correct_response': 'right', 'condition': 'stop'}, {'fileName': 'circleblack.png', 'correct_response': 'left', 'condition': 'stop'}, {'fileName': 'circleblack.png', 'correct_response': 'left', 'condition': 'go'}, {'fileName': 'circleblack.png', 'correct_response': 'left', 'condition': 'go'}, {'fileName': 'circleblack.png', 'correct_response': 'left', 'condition': 'stop'}, {'fileName': 'circleblack.png', 'correct_response': 'left', 'condition': 'go'}, {'fileName': 'circleblack.png', 'correct_response': 'left', 'condition': 'go'}, {'fileName': 'squareblack.png', 'correct_response': 'right', 'condition': 'go'}, {'fileName': 'squareblack.png', 'correct_response': 'right', 'condition': 'go'}, {'fileName': 'squareblack.png', 'correct_response': 'right', 'condition': 'stop'}, {'fileName': 'circleblack.png', 'correct_response': 'left', 'condition': 'go'}, {'fileName': 'squareblack.png', 'correct_response': 'right', 'condition': 'stop'}, {'fileName': 'squareblack.png', 'correct_response': 'right', 'condition': 'go'}, {'fileName': 'circleblack.png', 'correct_response': 'left', 'condition': 'stop'}, {'fileName': 'squareblack.png', 'correct_response': 'right', 'condition': 'go'}, {'fileName': 'circleblack.png', 'correct_response': 'left', 'condition': 'go'}, {'fileName': 'squareblack.png', 'correct_response': 'right', 'condition': 'go'}, {'fileName': 'squareblack.png', 'correct_response': 'right', 'condition': 'go'}, {'fileName': 'circleblack.png', 'correct_response': 'left', 'condition': 'go'}, {'fileName': 'squareblack.png', 'correct_response': 'right', 'condition': 'stop'}, {'fileName': 'circleblack.png', 'correct_response': 'left', 'condition': 'stop'}, {'fileName': 'circleblack.png', 'correct_response': 'left', 'condition': 'go'}, {'fileName': 'squareblack.png', 'correct_response': 'right', 'condition': 'stop'}, {'fileName': 'circleblack.png', 'correct_response': 'left', 'condition': 'go'}, {'fileName': 'squareblack.png', 'correct_response': 'right', 'condition': 'go'}, {'fileName': 'circleblack.png', 'correct_response': 'left', 'condition': 'go'}, {'fileName': 'squareblack.png', 'correct_response': 'right', 'condition': 'go'}, {'fileName': 'circleblack.png', 'correct_response': 'left', 'condition': 'stop'}, {'fileName': 'circleblack.png', 'correct_response': 'left', 'condition': 'stop'}, {'fileName': 'squareblack.png', 'correct_response': 'right', 'condition': 'stop'}, {'fileName': 'squareblack.png', 'correct_response': 'right', 'condition': 'go'}, {'fileName': 'squareblack.png', 'correct_response': 'right', 'condition': 'go'}, {'fileName': 'squareblack.png', 'correct_response': 'right', 'condition': 'go'}, {'fileName': 'squareblack.png', 'correct_response': 'right', 'condition': 'go'}, {'fileName': 'circleblack.png', 'correct_response': 'left', 'condition': 'go'}, {'fileName': 'circleblack.png', 'correct_response': 'left', 'condition': 'go'}, {'fileName': 'circleblack.png', 'correct_response': 'left', 'condition': 'go'}, {'fileName': 'circleblack.png', 'correct_response': 'left', 'condition': 'go'}, {'fileName': 'circleblack.png', 'correct_response': 'left', 'condition': 'stop'}, {'fileName': 'squareblack.png', 'correct_response': 'right', 'condition': 'stop'}]",2970.2642413675785,2970.2642413675785,return,5.084107153117657,,,,,,,,,,,,,,,,,,,,,,,,,,,,,,,,,,,,,,,,,,,,,,,,,,,,,,,,,,,s028,001,2024-08-15_09h49.49.957,simplestop_skeleton,2022.2.2,59.8396909362734,
None,None,0,0,0,0,0,0,0,3,,,,,,,,,,,,,,,2975.3947203680873,2975.3947203680873,3060.3889916092157,stop,squareblack.png,right,0.35,3060.410062983632,3060.410062983632,3060.908505551517,3060.908505551517,3060.9248703047633,3061.258788406849,3061.7593548074365,3061.9095033183694,3062.9106173589826,3062.9106173589826,None,0,3062.9106173589826,3062.9106173589826,0.00260239839553833,0.492720827460289,0.8428526967763901,3063.3953706100583,practice,1,,,,,,,,,,,,,,,,,,,,,,,,,,,,,,,,s028,001,2024-08-15_09h49.49.957,simplestop_skeleton,2022.2.2,59.8396909362734,
None,None,0,0,0,0,0,1,1,1,,,,,,,,,,,,,,,,,3063.395900219679,stop,circleblack.png,left,0.4,3063.4210615307093,3063.4210615307093,3063.9116985350847,3063.9116985350847,3063.92851395905,3064.31214710325,3064.812738098204,3064.912818238139,3065.913941808045,3065.930936254561,None,0,3065.930936254561,3065.930936254561,0.007983222603797913,0.49045953154563904,0.8905187770724297,3066.415568843484,practice,1,,,,,,,,,,,,,,,,,,,,,,,,,,,,,,,,s028,001,2024-08-15_09h49.49.957,simplestop_skeleton,2022.2.2,59.8396909362734,
$currentCorrectResponse,$currentGoStim,0,0,0,0,0,2,2,0,,,,,,,,,,,,,,,,,3066.416015535593,stop,circleblack.png,left,0.45,3066.435035355389,3066.435035355389,3066.931757606566,3066.931757606566,3066.948355384171,3067.3824102580547,3067.8830484226346,3067.9327413886786,3068.9340133965015,3068.950735129416,None,0,3068.950735129416,3068.950735129416,0.0012848079204559326,0.4902499243617058,0.9404055029153824,3069.435533128679,practice,1,3069.4558648616076,3069.4558648616076,,,,,,,,,,,,,,,,,,,,,,,,,,,,,,s028,001,2024-08-15_09h49.49.957,simplestop_skeleton,2022.2.2,59.8396909362734,
None,None,0,0,0,0,0,3,3,2,,,,,,,,,,,,,,,,,3069.4359812289476,go,squareblack.png,right,0.5,3069.4558648616076,3069.4558648616076,3069.951544933021,3069.951544933021,3069.9684116765857,3070.4520961791277,3070.952745705843,3070.952745705843,3071.9533282369375,3071.970332019031,None,0,3071.970332019031,3071.970332019031,0.001756906509399414,0.48964637517929077,0.9902727976441383,3072.45523198694,practice,1,,,,,,,,,,,,,,,,,,,,,,,,,,,,,,,,s028,001,2024-08-15_09h49.49.957,simplestop_skeleton,2022.2.2,59.8396909362734,
None,None,0,0,0,0,1,0,4,2,,,,,,,,,,,,,,,,,3072.4556616172194,go,circleblack.png,left,0.5,3072.47553088516,3072.47553088516,3072.9715578109026,3072.9715578109026,3072.9884855374694,3073.472582772374,3073.9731114581227,3073.9731114581227,3074.974011339247,3074.9905593544245,None,0,3074.9905593544245,3074.9905593544245,0.0018096938729286194,0.4900188595056534,0.9905934631824493,3075.4754333794117,practice,1,3075.4949875175953,3075.4949875175953,,,,,,,,,,,,,,,,,,,,,,,,,,,,,,s028,001,2024-08-15_09h49.49.957,simplestop_skeleton,2022.2.2,59.8396909362734,
$currentCorrectResponse,$currentGoStim,0,0,0,0,1,1,5,0,,,,,,,,,,,,,,,,,3075.475857846439,go,circleblack.png,left,0.5,3075.4949875175953,3075.4949875175953,3075.9916478917003,3075.9916478917003,3076.008558228612,3076.492465287447,3076.9930395931005,3076.9930395931005,3077.993998043239,3078.010577261448,None,0,3078.010577261448,3078.010577261448,0.001296892762184143,0.4900049641728401,0.9904025048017502,3078.4953729733825,practice,1,3078.5150064378977,3078.5150064378977,,,,,,,,,,,,,,,,,,,,,,,,,,,,,,s028,001,2024-08-15_09h49.49.957,simplestop_skeleton,2022.2.2,59.8396909362734,
None,None,0,0,0,0,1,2,6,1,,,,,,,,,,,,,,,,,3078.4958651810884,go,circleblack.png,left,0.5,3078.5150064378977,3078.5150064378977,3079.0117459595203,3079.0117459595203,3079.0281762629747,3079.5121973752975,3080.012730181217,3080.012730181217,3081.013619698584,3081.0303487107158,None,0,3081.0303487107158,3081.0303487107158,0.0012648925185203552,0.4896835833787918,0.9903605431318283,3081.5152455717325,practice,1,3081.5352337881923,3081.5352337881923,,,,,,,,,,,,,,,,,,,,,,,,,,,,,,s028,001,2024-08-15_09h49.49.957,simplestop_skeleton,2022.2.2,59.8396909362734,
None,None,0,0,0,0,1,3,7,2,,,,,,,,,,,,,,,,,3081.5156628116965,go,squareblack.png,right,0.5,3081.5352337881923,3081.5352337881923,3082.0315745845437,3082.0315745845437,3082.0482995808125,3082.532548904419,3083.0322312042117,3083.0322312042117,3084.033609598875,3084.0504014343023,None,0,3084.0504014343023,3084.0504014343023,0.0017708390951156616,0.49014515429735184,0.9907178655266762,3084.5353205055,practice,1,,,,,,,,,,,,,,,,,,,,,,,,,,,,,,,,s028,001,2024-08-15_09h49.49.957,simplestop_skeleton,2022.2.2,59.8396909362734,
None,None,0,0,0,0,2,0,8,3,,,,,,,,,,,,,,,,,3084.5357464030385,go,squareblack.png,right,0.5,3084.5549228042364,3084.5549228042364,3085.0516401976347,3085.0516401976347,3085.068277552724,3085.552172780037,3086.0525852516294,3086.0525852516294,3087.054055213928,3087.070729188621,None,0,3087.070729188621,3087.070729188621,0.0011930912733078003,0.4898478612303734,0.990449532866478,3087.5552656799555,practice,1,3087.575614385307,3087.575614385307,,,,,,,,,,,,,,,,,,,,,,,,,,,,,,s028,001,2024-08-15_09h49.49.957,simplestop_skeleton,2022.2.2,59.8396909362734,
None,None,0,0,0,0,2,1,9,3,,,,,,,,,,,,,,,,,3087.5556894913316,go,circleblack.png,left,0.5,3087.575614385307,3087.575614385307,3088.0716889873147,3088.0716889873147,3088.088217034936,3088.5721640065312,3089.072939351201,3089.072939351201,3090.074045985937,3090.0908152759075,None,0,3090.0908152759075,3090.0908152759075,0.0019647404551506042,0.489923894405365,0.9905395805835724,3090.575389869511,practice,1,3090.595229573548,3090.595229573548,,,,,,,,,,,,,,,,,,,,,,,,,,,,,,s028,001,2024-08-15_09h49.49.957,simplestop_skeleton,2022.2.2,59.8396909362734,
$currentCorrectResponse,$currentGoStim,0,0,0,0,2,2,10,0,,,,,,,,,,,,,,,,,3090.5758156627417,stop,squareblack.png,right,0.5,3090.595229573548,3090.595229573548,3091.0917234942317,3091.0917234942317,3091.1086140051484,3091.592387996614,3092.092797599733,3092.092797599733,3093.0941140055656,3093.1105029582977,None,0,3093.1105029582977,3093.1105029582977,0.0017418041825294495,0.48992128670215607,0.9907231107354164,3093.59531853348,practice,1,3093.614810705185,3093.614810705185,,,,,,,,,,,,,,,,,,,,,,,,,,,,,,s028,001,2024-08-15_09h49.49.957,simplestop_skeleton,2022.2.2,59.8396909362734,
$currentCorrectResponse,$currentGoStim,0,0,0,0,2,3,11,0,,,,,,,,,,,,,,,,,3093.5957581698895,go,squareblack.png,right,0.55,3093.614810705185,3093.614810705185,3094.1117833331227,3094.1117833331227,3094.128471508622,3094.6624447628856,3095.162817902863,3095.112919345498,3096.114127241075,3096.114127241075,None,0,3096.114127241075,3096.114127241075,0.0012087225914001465,0.4899674728512764,1.0406341254711151,3096.597987599671,practice,1,3096.6165226623416,3096.6165226623416,,,,,,,,,,,,,,,,,,,,,,,,,,,,,,s028,001,2024-08-15_09h49.49.957,simplestop_skeleton,2022.2.2,59.8396909362734,
None,None,0,0,0,0,3,0,12,3,,,,,,,,,,,,,,,,,3096.5984107106924,go,circleblack.png,left,0.55,3096.6165226623416,3096.6165226623416,3097.114959925413,3097.114959925413,3097.131942920387,3097.665897771716,3098.1660225763917,3098.1161336377263,3099.117280781269,3099.117280781269,None,0,3099.117280781269,3099.117280781269,0.0018655955791473389,0.4906519055366516,1.0410863384604454,3099.6019777283072,practice,1,3099.6221230328083,3099.6221230328083,,,,,,,,,,,,,,,,,,,,,,,,,,,,,,s028,001,2024-08-15_09h49.49.957,simplestop_skeleton,2022.2.2,59.8396909362734,
None,None,0,0,0,0,3,1,13,1,,,,,,,,,,,,,,,,,3099.60240124166,go,squareblack.png,right,0.55,3099.6221230328083,3099.6221230328083,3100.1184448450804,3100.1184448450804,3100.13509324193,3100.668942809105,3101.1694377064705,3101.119914971292,3102.120730996132,3102.1372296363115,None,0,3102.1372296363115,3102.1372296363115,0.0018083453178405762,0.49013620615005493,1.0409637093544006,3102.622005932033,practice,1,3102.642214179039,3102.642214179039,,,,,,,,,,,,,,,,,,,,,,,,,,,,,,s028,001,2024-08-15_09h49.49.957,simplestop_skeleton,2022.2.2,59.8396909362734,
None,None,0,0,0,0,3,2,14,1,,,,,,,,,,,,,,,,,3102.622423194349,go,circleblack.png,left,0.55,3102.642214179039,3102.642214179039,3103.1384750008583,3103.1384750008583,3103.1551770344377,3103.688875734806,3104.189095057547,3104.138580672443,3105.1403505280614,3105.1575929895043,None,0,3105.1575929895043,3105.1575929895043,0.0017602071166038513,0.48989973217248917,1.0406278744339943,3105.6420839577913,practice,1,,,,,,,,,,,,,,,,,,,,,,,,,,,,,,,,s028,001,2024-08-15_09h49.49.957,simplestop_skeleton,2022.2.2,59.8396909362734,
None,None,0,0,0,0,3,3,15,3,,,,,,,,,,,,,,,,,3105.6425206139684,go,circleblack.png,left,0.55,3105.6614919155836,3105.6614919155836,3106.1585282832384,3106.1585282832384,3106.174919821322,3106.709028221667,3107.2097773700953,3107.1593451350927,3108.1605146974325,3108.1605146974325,None,0,3108.1605146974325,3108.1605146974325,0.001247510313987732,0.4901511147618294,1.0406016483902931,3108.645305298269,practice,1,3108.66526504606,3108.66526504606,,,,,,,,,,,,,,,,,,,,,,,,,,,,,,s028,001,2024-08-15_09h49.49.957,simplestop_skeleton,2022.2.2,59.8396909362734,
None,None,0,0,0,0,4,0,16,1,,,,,,,,,,,,,,,,,3108.645841963589,stop,squareblack.png,right,0.55,3108.66526504606,3108.66526504606,3109.1617200672626,3109.1617200672626,3109.178439706564,3109.7123019993305,3110.212774299085,3110.162536121905,3111.1636846661568,3111.1804596185684,None,0,3111.1804596185684,3111.1804596185684,0.0017187818884849548,0.49007684737443924,1.0405786111950874,3111.665094010532,practice,1,3111.6844334453344,3111.6844334453344,,,,,,,,,,,,,,,,,,,,,,,,,,,,,,s028,001,2024-08-15_09h49.49.957,simplestop_skeleton,2022.2.2,59.8396909362734,
None,None,0,0,0,0,4,1,17,3,,,,,,,,,,,,,,,,,3111.6655225753784,go,squareblack.png,right,0.6,3111.6844334453344,3111.6844334453344,3112.1816600486636,3112.1816600486636,3112.1982069164515,3112.7822103723884,3113.2829644158483,3113.1828080564737,3114.183943539858,3114.183943539858,None,0,3114.183943539858,3114.183943539858,0.0011971816420555115,0.49017326533794403,1.090914472937584,3114.667618781328,practice,1,3114.6864573061466,3114.6864573061466,,,,,,,,,,,,,,,,,,,,,,,,,,,,,,s028,001,2024-08-15_09h49.49.957,simplestop_skeleton,2022.2.2,59.8396909362734,
$currentCorrectResponse,$currentGoStim,0,0,0,0,4,2,18,0,,,,,,,,,,,,,,,,,3114.668090045452,go,squareblack.png,right,0.6,3114.6864573061466,3114.6864573061466,3115.185009866953,3115.185009866953,3115.2014460638165,3115.785412669182,3116.286110699177,3116.185911089182,3117.1870919540524,3117.1870919540524,None,0,3117.1870919540524,3117.1870919540524,0.0012810230255126953,0.4907824993133545,1.0910196527838707,3117.6716985329986,practice,1,3117.690983250737,3117.690983250737,,,,,,,,,,,,,,,,,,,,,,,,,,,,,,s028,001,2024-08-15_09h49.49.957,simplestop_skeleton,2022.2.2,59.8396909362734,
None,None,0,0,0,0,4,3,19,2,,,,,,,,,,,,,,,,,3117.6721145138144,go,squareblack.png,right,0.6,3117.690983250737,3117.690983250737,3118.188126601279,3118.188126601279,3118.2046620324254,3118.788921698928,3119.289555206895,3119.189724907279,3120.190808676183,3120.190808676183,None,0,3120.190808676183,3120.190808676183,0.0011811479926109314,0.4902755096554756,1.0911265537142754,3120.675356760621,practice,1,3120.6950358226895,3120.6950358226895,,,,,,,,,,,,,,,,,,,,,,,,,,,,,,s028,001,2024-08-15_09h49.49.957,simplestop_skeleton,2022.2.2,59.8396909362734,
$currentCorrectResponse,$currentGoStim,0,0,0,0,5,0,20,0,,,,,,,,,,,,,,,,,3120.6758037284017,stop,squareblack.png,right,0.6,3120.6950358226895,3120.6950358226895,3121.191710099578,3121.191710099578,3121.208566121757,3121.7921498790383,3122.2932810485363,3122.1913887411356,3123.193936549127,3123.2105457410216,None,0,3123.2105457410216,3123.2105457410216,0.001225017011165619,0.4901471883058548,1.090979851782322,3123.6952968910336,practice,1,,,,,,,,,,,,,,,,,,,,,,,,,,,,,,,,s028,001,2024-08-15_09h49.49.957,simplestop_skeleton,2022.2.2,59.8396909362734,
None,None,0,0,0,0,5,1,21,2,,,,,,,,,,,,,,,,,3123.6957439780235,stop,circleblack.png,left,0.65,3123.7152534648776,3123.7152534648776,3124.211367569864,3124.211367569864,3124.2280396595597,3124.8623038306832,3125.3779293075204,3125.211222335696,3126.213613219559,3126.2303809076548,left,1,3126.2303809076548,3126.2303809076548,0.0017957687377929688,0.4900463670492172,1.1406641378998756,3126.7152244076133,practice,1,3126.734961077571,3126.734961077571,0.37546632438898087,,,,,,,,,,,,,,,,,,,,,,,,,,,,,s028,001,2024-08-15_09h49.49.957,simplestop_skeleton,2022.2.2,59.8396909362734,
None,None,0,0,0,0,5,2,22,2,,,,,,,,,,,,,,,,,3126.71564591676,stop,circleblack.png,left,0.6,3126.734961077571,3126.734961077571,3127.2312514185905,3127.2312514185905,3127.2483567520976,3127.832287982106,3128.3325338065624,3128.2323617488146,3129.2338081225753,3129.250791594386,left,1,3129.250791594386,3129.250791594386,0.0013522133231163025,0.4899553284049034,1.090498648583889,3129.7351896613836,practice,1,,,0.5102956742048264,,,,,,,,,,,,,,,,,,,,,,,,,,,,,s028,001,2024-08-15_09h49.49.957,simplestop_skeleton,2022.2.2,59.8396909362734,
None,None,0,0,0,0,5,3,23,1,,,,,,,,,,,,,,,,,3129.735610432923,go,circleblack.png,left,0.55,3129.7548635080457,3129.7548635080457,3130.2519736662507,3130.2519736662507,3130.268648482859,3130.8023042678833,3131.303046800196,3131.25281278044,3132.253916308284,3132.2704194560647,left,1,3132.2704194560647,3132.2704194560647,0.0012639984488487244,0.4899952858686447,1.0407114252448082,3132.755359262228,practice,1,3132.7734218761325,3132.7734218761325,0.29609111696481705,,,,,,,,,,,,,,,,,,,,,,,,,,,,,s028,001,2024-08-15_09h49.49.957,simplestop_skeleton,2022.2.2,59.8396909362734,
,,0,0,0,0,,,,,,,,,,,,,"[{'fileName': 'squareblack.png', 'correct_response': 'right', 'condition': 'stop'}, {'fileName': 'squareblack.png', 'correct_response': 'right', 'condition': 'go'}, {'fileName': 'circleblack.png', 'correct_response': 'left', 'condition': 'go'}, {'fileName': 'circleblack.png', 'correct_response': 'left', 'condition': 'go'}, {'fileName': 'squareblack.png', 'correct_response': 'right', 'condition': 'go'}, {'fileName': 'squareblack.png', 'correct_response': 'right', 'condition': 'stop'}, {'fileName': 'circleblack.png', 'correct_response': 'left', 'condition': 'go'}, {'fileName': 'squareblack.png', 'correct_response': 'right', 'condition': 'go'}, {'fileName': 'circleblack.png', 'correct_response': 'left', 'condition': 'stop'}, {'fileName': 'squareblack.png', 'correct_response': 'right', 'condition': 'go'}, {'fileName': 'circleblack.png', 'correct_response': 'left', 'condition': 'go'}, {'fileName': 'circleblack.png', 'correct_response': 'left', 'condition': 'stop'}, {'fileName': 'squareblack.png', 'correct_response': 'right', 'condition': 'go'}, {'fileName': 'squareblack.png', 'correct_response': 'right', 'condition': 'stop'}, {'fileName': 'circleblack.png', 'correct_response': 'left', 'condition': 'go'}, {'fileName': 'squareblack.png', 'correct_response': 'right', 'condition': 'go'}, {'fileName': 'circleblack.png', 'correct_response': 'left', 'condition': 'go'}, {'fileName': 'squareblack.png', 'correct_response': 'right', 'condition': 'stop'}, {'fileName': 'circleblack.png', 'correct_response': 'left', 'condition': 'stop'}, {'fileName': 'circleblack.png', 'correct_response': 'left', 'condition': 'stop'}, {'fileName': 'circleblack.png', 'correct_response': 'left', 'condition': 'go'}, {'fileName': 'squareblack.png', 'correct_response': 'right', 'condition': 'go'}, {'fileName': 'circleblack.png', 'correct_response': 'left', 'condition': 'go'}, {'fileName': 'squareblack.png', 'correct_response': 'right', 'condition': 'go'}]",,,,,,,,,,,,,,,,,,,,,,,,,,,,,,,,,,,,3132.7734218761325,3132.7734218761325,return,2.783545583486557,,,,,,,,,,,,,,,,,,,,,,,,,s028,001,2024-08-15_09h49.49.957,simplestop_skeleton,2022.2.2,59.8396909362734,
$currentCorrectResponse,$currentGoStim,,,,,,,,,0,0,0,0,0,0,0,0,,,,,,,,,3150.190756879747,go,squareblack.png,right,0.55,,,,,,,,,,,,,,,0.0027513504028320312,0.49034786969423294,,3152.694539219141,test,1,,,,,,,,3135.574716247618,3135.574716247618,3150.210958354175,3150.7074432373047,3150.7074432373047,3150.7240363657475,3151.258029319346,3151.708460070193,3151.758653521538,3152.7139917761087,right,1,0.4508073627948761,0.55,,,,,,,,,,,s028,001,2024-08-15_09h49.49.957,simplestop_skeleton,2022.2.2,59.8396909362734,
None,None,,,,,,,,,0,0,0,0,0,1,1,2,,,,,,,,,3152.6950949952006,go,circleblack.png,left,0.55,,,,,,,,,,,,,,,0.0026025697588920593,0.4890099838376045,,3155.1969710960984,test,1,,,,,,,,,,3152.7139917761087,3153.210090428591,3153.210090428591,3153.226650238037,3153.761131413281,3154.2109864875674,3154.26175776124,3155.2156363502145,left,1,0.28547630459070206,0.55,,,,,,,,,,,s028,001,2024-08-15_09h49.49.957,simplestop_skeleton,2022.2.2,59.8396909362734,
$currentCorrectResponse,$currentGoStim,,,,,,,,,0,0,0,0,0,2,2,0,,,,,,,,,3155.19741152972,stop,circleblack.png,left,0.55,,,,,,,,,,,,,,,0.0013931170105934143,0.489769384264946,1.040507696568966,3157.69990503788,test,1,,,,,,,,,,3155.2156363502145,3155.713109508157,3155.713109508157,3155.7300587147474,3156.263979189098,3156.7138946205378,3156.7636572271585,3157.7243442982435,left,1,0.37068480253219604,0.5,,,,,,,,,,,s028,001,2024-08-15_09h49.49.957,simplestop_skeleton,2022.2.2,59.8396909362734,
$currentCorrectResponse,$currentGoStim,,,,,,,,,0,0,0,0,0,3,3,0,,,,,,,,,3157.700353682041,go,squareblack.png,right,0.5,,,,,,,,,,,,,,,0.007425829768180847,0.48940857499837875,,3160.202962897718,test,1,,,,,,,,,,3157.7243442982435,3158.2157927900553,3158.2157927900553,3158.232364460826,3158.716245278716,3159.217063471675,3159.217063471675,3160.22170393914,right,1,0.2566661909222603,0.5,,,,,,,,,,,s028,001,2024-08-15_09h49.49.957,simplestop_skeleton,2022.2.2,59.8396909362734,
None,None,,,,,,,,,0,0,0,0,1,0,4,3,,,,,,,,,3160.2033988684416,stop,squareblack.png,right,0.5,,,,,,,,,,,,,,,0.0013909637928009033,0.4890406057238579,0.9895631298422813,3162.7055875584483,test,1,,,,,,,,,,3160.22170393914,3160.7185027748346,3160.7185027748346,3160.735556729138,3161.2189522981644,3161.7189239040017,3161.7189239040017,3162.7243605330586,right,1,0.3427090346813202,0.45,,,,,,,,,,,s028,001,2024-08-15_09h49.49.957,simplestop_skeleton,2022.2.2,59.8396909362734,
None,None,,,,,,,,,0,0,0,0,1,1,5,1,,,,,,,,,3162.706043370068,go,squareblack.png,right,0.45,,,,,,,,,,,,,,,0.0013385042548179626,0.48940712213516235,,3165.2079603746533,test,1,,,,,,,,,,3162.7243605330586,3163.22135604918,3163.22135604918,3163.2380311116576,3163.6717342734337,3164.2221192121506,3164.171929001808,3165.227186910808,right,1,0.3287409022450447,0.45,,,,,,,,,,,s028,001,2024-08-15_09h49.49.957,simplestop_skeleton,2022.2.2,59.8396909362734,
None,None,,,,,,,,,0,0,0,0,1,2,6,3,,,,,,,,,3165.2084076032043,go,circleblack.png,left,0.45,,,,,,,,,,,,,,,0.0018476545810699463,0.48975008726119995,,3167.710949204862,test,1,,,,,,,,,,3165.227186910808,3165.7239674031734,3165.7239674031734,3165.7411182895303,3166.17450556159,3166.7246945276856,3166.6744605973363,3167.730127416551,left,1,0.35413382947444916,0.45,,,,,,,,,,,s028,001,2024-08-15_09h49.49.957,simplestop_skeleton,2022.2.2,59.8396909362734,
None,None,,,,,,,,,0,0,0,0,1,3,7,3,,,,,,,,,3167.7114123627543,go,squareblack.png,right,0.45,,,,,,,,,,,,,,,0.0017372667789459229,0.4893796592950821,,3170.213428609073,test,1,,,,,,,,,,3167.730127416551,3168.2269165739417,3168.2269165739417,3168.243495680392,3168.6772871240973,3169.2271974384785,3169.1772183850408,3170.2323432564735,right,1,0.33945781737565994,0.45,,,,,,,,,,,s028,001,2024-08-15_09h49.49.957,simplestop_skeleton,2022.2.2,59.8396909362734,
None,None,,,,,,,,,0,0,0,0,2,0,8,2,,,,,,,,,3170.2138785794377,stop,squareblack.png,right,0.45,,,,,,,,,,,,,,,0.0012737363576889038,0.4895317032933235,0.9401442781090736,3172.7161823287606,test,1,,,,,,,,,,3170.2323432564735,3170.729379877448,3170.729379877448,3170.746308416128,3171.1799124851823,3171.730040885508,3171.6800344735384,3172.7360790744424,right,1,0.342567577958107,0.4,,,,,,,,,,,s028,001,2024-08-15_09h49.49.957,simplestop_skeleton,2022.2.2,59.8396909362734,
$currentCorrectResponse,$currentGoStim,,,,,,,,,0,0,0,0,2,1,9,0,,,,,,,,,3172.716628983617,stop,circleblack.png,left,0.4,,,,,,,,,,,,,,,0.0020719319581985474,0.4896382912993431,0.8905568793416023,3175.2191194444895,test,1,,,,,,,,,,3172.7360790744424,3173.232242807746,3173.232242807746,3173.2490113452077,3173.632896155119,3174.2327743917704,3174.132561095059,3175.2382240965962,left,1,0.38114533573389053,0.35,,,,,,,,,,,s028,001,2024-08-15_09h49.49.957,simplestop_skeleton,2022.2.2,59.8396909362734,
None,None,,,,,,,,,0,0,0,0,2,2,10,2,,,,,,,,,3175.2195635885,go,circleblack.png,left,0.35,,,,,,,,,,,,,,,0.0013836473226547241,0.48946012556552887,,3177.721871383488,test,1,,,,,,,,,,3175.2382240965962,3175.7348513677716,3175.7348513677716,3175.7516962066293,3176.085504628718,3176.7356563583016,3176.5852137580514,3177.7408286184072,right,0,0.3732408285140991,0.35,,,,,,,,,,,s028,001,2024-08-15_09h49.49.957,simplestop_skeleton,2022.2.2,59.8396909362734,
None,None,,,,,,,,,0,0,0,0,2,3,11,2,,,,,,,,,3177.722312182188,go,circleblack.png,left,0.35,,,,,,,,,,,,,,,0.001326724886894226,0.48914382606744766,,3180.224291816354,test,1,,,,,,,,,,3177.7408286184072,3178.237046957016,3178.237046957016,3178.253853946924,3178.588043920696,3179.2383488565683,3179.087917327881,3180.2434189096093,left,1,0.3772781267762184,0.35,,,,,,,,,,,s028,001,2024-08-15_09h49.49.957,simplestop_skeleton,2022.2.2,59.8396909362734,
$currentCorrectResponse,$currentGoStim,,,,,,,,,0,0,0,0,3,0,12,0,,,,,,,,,3180.2247476428747,stop,circleblack.png,left,0.35,,,,,,,,,,,,,,,0.0013294219970703125,0.4899689629673958,0.8400544673204422,3182.7270933538675,test,1,,,,,,,,,,3180.2434189096093,3180.740355350077,3180.740355350077,3180.757382400334,3181.0908030495048,3181.740927107632,3181.5910315588117,3182.7460706457496,left,1,0.3768285736441612,0.3,,,,,,,,,,,s028,001,2024-08-15_09h49.49.957,simplestop_skeleton,2022.2.2,59.8396909362734,
None,None,,,,,,,,,0,0,0,0,3,1,13,3,,,,,,,,,3182.7275274321437,go,circleblack.png,left,0.3,,,,,,,,,,,,,,,0.001341119408607483,0.4897064194083214,,3185.230051495135,test,1,,,,,,,,,,3182.7460706457496,3183.243347004056,3183.243347004056,3183.2600616961718,3183.543640717864,3184.2438177615404,3184.0434821397066,3185.24907515198,left,1,0.3177759125828743,0.3,,,,,,,,,,,s028,001,2024-08-15_09h49.49.957,simplestop_skeleton,2022.2.2,59.8396909362734,
None,None,,,,,,,,,0,0,0,0,3,2,14,3,,,,,,,,,3185.2304876223207,go,circleblack.png,left,0.3,,,,,,,,,,,,,,,0.0014056041836738586,0.4896012842655182,,3187.7326963096857,test,1,,,,,,,,,,3185.24907515198,3185.746142961085,3185.746142961085,3185.7629861831665,3186.0466745123267,3186.746729403734,3186.5462513938546,3187.7540126517415,left,1,0.2840263545513153,0.3,,,,,,,,,,,s028,001,2024-08-15_09h49.49.957,simplestop_skeleton,2022.2.2,59.8396909362734,
None,None,,,,,,,,,0,0,0,0,3,3,15,2,,,,,,,,,3187.7331375405192,go,squareblack.png,right,0.3,,,,,,,,,,,,,,,0.004251293838024139,0.48971088230609894,,3190.235722079873,test,1,,,,,,,,,,3187.7540126517415,3188.248964637518,3188.248964637518,3188.2656265571713,3188.5491306185722,3189.250277273357,3189.0488690063357,3190.2545356452465,right,1,0.26797737181186676,0.3,,,,,,,,,,,s028,001,2024-08-15_09h49.49.957,simplestop_skeleton,2022.2.2,59.8396909362734,
None,None,,,,,,,,,0,0,0,0,4,0,16,1,,,,,,,,,3190.2361584082246,go,squareblack.png,right,0.3,,,,,,,,,,,,,,,0.001334957778453827,0.48934242129325867,,3192.7382754832506,test,1,,,,,,,,,,3190.2545356452465,3190.7513853907585,3190.7513853907585,3190.768308021128,3191.052247956395,3191.7526628673077,3191.551841929555,3192.757269769907,right,1,0.2777930796146393,0.3,,,,,,,,,,,s028,001,2024-08-15_09h49.49.957,simplestop_skeleton,2022.2.2,59.8396909362734,
None,None,,,,,,,,,0,0,0,0,4,1,17,1,,,,,,,,,3192.7387288808823,stop,squareblack.png,right,0.3,,,,,,,,,,,,,,,0.0013200566172599792,0.4896252006292343,0.790134496986866,3195.2409884929657,test,1,,,,,,,,,,3192.757269769907,3193.254350826144,3193.254350826144,3193.271048605442,3193.5547928139567,3194.2550951316953,3194.071239888668,3195.2608581334352,right,1,0.3552390858530998,0.25,,,,,,,,,,,s028,001,2024-08-15_09h49.49.957,simplestop_skeleton,2022.2.2,59.8396909362734,
$currentCorrectResponse,$currentGoStim,,,,,,,,,0,0,0,0,4,2,18,0,,,,,,,,,3195.2414588704705,go,circleblack.png,left,0.25,,,,,,,,,,,,,,,0.0020190030336380005,0.4899400472640991,,3197.7442224249244,test,1,,,,,,,,,,3195.2608581334352,3195.7570680379868,3195.7570680379868,3195.7740309387445,3196.0074698254466,3196.757913954556,3196.507017940283,3197.7646213024855,right,0,0.3569273501634598,0.25,,,,,,,,,,,s028,001,2024-08-15_09h49.49.957,simplestop_skeleton,2022.2.2,59.8396909362734,
$currentCorrectResponse,$currentGoStim,,,,,,,,,0,0,0,0,4,3,19,0,,,,,,,,,3197.7446862906218,stop,squareblack.png,right,0.25,,,,,,,,,,,,,,,0.0024599581956863403,0.4886658042669296,0.7389335334300995,3200.2465052753687,test,1,,,,,,,,,,3197.7646213024855,3198.2600002214313,3198.2600002214313,3198.276522472501,3198.5103099271655,3199.2607411295176,3199.0095076560974,3200.265177808702,right,1,0.33478056639432907,0.2,,,,,,,,,,,s028,001,2024-08-15_09h49.49.957,simplestop_skeleton,2022.2.2,59.8396909362734,
$currentCorrectResponse,$currentGoStim,,,,,,,,,0,0,0,0,5,0,20,0,,,,,,,,,3200.2469391822815,go,squareblack.png,right,0.2,,,,,,,,,,,,,,,0.0011834725737571716,0.4897736683487892,,3202.749412111938,test,1,,,,,,,,,,3200.265177808702,3200.762640684843,3200.762640684843,3200.779775440693,3200.96303114295,3201.7636831626296,3201.479106731713,3202.7690903693438,right,1,0.35167840123176575,0.2,,,,,,,,,,,s028,001,2024-08-15_09h49.49.957,simplestop_skeleton,2022.2.2,59.8396909362734,
None,None,,,,,,,,,0,0,0,0,5,1,21,2,,,,,,,,,3202.7498584091663,stop,circleblack.png,left,0.2,,,,,,,,,,,,,,,0.0019930824637413025,0.489733025431633,0.6900919824838638,3205.2523642107844,test,1,,,,,,,,,,3202.7690903693438,3203.2655619308352,3203.2655619308352,3203.2820525094867,3203.4655779749155,3204.266841173172,3203.9656012654305,3205.27196469903,left,1,0.2553619295358658,0.15,,,,,,,,,,,s028,001,2024-08-15_09h49.49.957,simplestop_skeleton,2022.2.2,59.8396909362734,
$currentCorrectResponse,$currentGoStim,,,,,,,,,0,0,0,0,5,2,22,0,,,,,,,,,3205.2528093382716,go,squareblack.png,right,0.15,,,,,,,,,,,,,,,0.002225145697593689,0.4895119220018387,,3207.7547644227743,test,1,,,,,,,,,,3205.27196469903,3205.7683498188853,3205.7683498188853,3205.7848449721932,3205.9183062016964,3206.769244529307,3206.4179186224937,3207.7743974775076,right,1,0.28949185460805893,0.15,,,,,,,,,,,s028,001,2024-08-15_09h49.49.957,simplestop_skeleton,2022.2.2,59.8396909362734,
None,None,,,,,,,,,0,0,0,0,5,3,23,1,,,,,,,,,3207.75521838665,go,circleblack.png,left,0.15,,,,,,,,,,,,,,,0.0017853081226348877,0.4897938072681427,,3210.257388867438,test,1,,,,,,,,,,3207.7743974775076,3208.2712105587125,3208.2712105587125,3208.2878653630614,3208.4209531098604,3209.2722265794873,3208.920270167291,3210.276706017554,left,1,0.2581822946667671,0.15,,,,,,,,,,,s028,001,2024-08-15_09h49.49.957,simplestop_skeleton,2022.2.2,59.8396909362734,
$currentCorrectResponse,$currentGoStim,,,,,,,,,0,0,0,0,6,0,24,0,,,,,,,,,3210.2578356340528,go,squareblack.png,right,0.15,,,,,,,,,,,,,,,0.0016604512929916382,0.48997627198696136,,3212.760301411152,test,1,,,,,,,,,,3210.276706017554,3210.773686312139,3210.773686312139,3210.790556281805,3210.9237827062607,3211.774648234248,3211.4231098666787,3212.778909638524,left,0,0.24465637654066086,0.15,,,,,,,,,,,s028,001,2024-08-15_09h49.49.957,simplestop_skeleton,2022.2.2,59.8396909362734,
None,None,,,,,,,,,0,0,0,0,6,1,25,1,,,,,,,,,3212.760743908584,go,squareblack.png,right,0.15,,,,,,,,,,,,,,,0.0011814981698989868,0.48974574357271194,,3215.2636070922017,test,1,,,,,,,,,,3212.778909638524,3213.2763684540987,3213.2763684540987,3213.2930183038116,3213.4268627613783,3214.276973590255,3213.9257312119007,3215.2831280753016,right,1,0.33095264434814453,0.15,,,,,,,,,,,s028,001,2024-08-15_09h49.49.957,simplestop_skeleton,2022.2.2,59.8396909362734,
None,None,,,,,,,,,0,0,0,0,6,2,26,3,,,,,,,,,3215.264076255262,go,circleblack.png,left,0.15,,,,,,,,,,,,,,,0.0026558786630630493,0.4893573075532913,,3217.766119033098,test,1,,,,,,,,,,3215.2831280753016,3215.779156267643,3215.779156267643,3215.7960813120008,3215.9294045120478,3216.779721595347,3216.4452881515026,3217.78550516814,left,1,0.33467908203601837,0.15,,,,,,,,,,,s028,001,2024-08-15_09h49.49.957,simplestop_skeleton,2022.2.2,59.8396909362734,
None,None,,,,,,,,,0,0,0,0,6,3,27,2,,,,,,,,,3217.766589485109,stop,squareblack.png,right,0.15,,,,,,,,,,,,,,,0.0018010213971138,0.48960038274526596,0.6395151764154434,3220.268988132477,test,1,,,,,,,,,,3217.78550516814,3218.2820582315326,3218.2820582315326,3218.2986805438995,3218.432347781956,3219.282996430993,3218.9481022804976,3220.2883707880974,right,1,0.2830122262239456,0.1,,,,,,,,,,,s028,001,2024-08-15_09h49.49.957,simplestop_skeleton,2022.2.2,59.8396909362734,
None,None,,,,,,,,,0,0,0,0,7,0,28,1,,,,,,,,,3220.2694365531206,stop,circleblack.png,left,0.1,,,,,,,,,,,,,,,0.0019262880086898804,0.48949548602104187,0.5896661952137947,3222.771595172584,test,1,,,,,,,,,,3220.2883707880974,3220.7847026884556,3220.7847026884556,3220.801540158689,3220.884984187782,3221.7855582386255,3221.385852739215,3222.790437541902,left,1,0.5408487543463707,0.05,,,,,,,,,,,s028,001,2024-08-15_09h49.49.957,simplestop_skeleton,2022.2.2,59.8396909362734,
$currentCorrectResponse,$currentGoStim,,,,,,,,,0,0,0,0,7,1,29,0,,,,,,,,,3222.7720287293196,go,circleblack.png,left,0.05,,,,,,,,,,,,,,,0.0014004260301589966,0.4897267147898674,,3225.2743966653943,test,1,,,,,,,,,,3222.790437541902,3223.287460140884,3223.287460140884,3223.304170191288,3223.3374074548483,3224.2881870120764,3223.838024958968,3225.293522454798,left,1,0.3171522915363312,0.05,,,,,,,,,,,s028,001,2024-08-15_09h49.49.957,simplestop_skeleton,2022.2.2,59.8396909362734,
None,None,,,,,,,,,0,0,0,0,7,2,30,3,,,,,,,,,3225.274914473295,stop,squareblack.png,right,0.05,,,,,,,,,,,,,,,0.0017528310418128967,0.4896944686770439,0.5398444756865501,3227.7769304066896,test,1,,,,,,,,,,3225.293522454798,3225.790268190205,3225.790268190205,3225.80715855211,3225.840281806886,3226.791488170624,3226.3413238450885,3227.796203702688,None,0,,0.1,,,,,,,,,,,s028,001,2024-08-15_09h49.49.957,simplestop_skeleton,2022.2.2,59.8396909362734,
None,None,,,,,,,,,0,0,0,0,7,3,31,1,,,,,,,,,3227.7773789465427,go,circleblack.png,left,0.1,,,,,,,,,,,,,,,0.0017172694206237793,0.4898865297436714,,3230.2797083482146,test,1,,,,,,,,,,3227.796203702688,3228.292956702411,3228.292956702411,3228.309827975929,3228.3931582421064,3229.2936504781246,3228.8937085047364,3230.2990067973733,left,1,0.3941528722643852,0.1,,,,,,,,,,,s028,001,2024-08-15_09h49.49.957,simplestop_skeleton,2022.2.2,59.8396909362734,
None,None,,,,,,,,,0,0,0,0,8,0,32,2,,,,,,,,,3230.2801562547684,go,squareblack.png,right,0.1,,,,,,,,,,,,,,,0.00174037367105484,0.48967295140028,,3232.7826425284147,test,1,,,,,,,,,,3230.2990067973733,3230.7958304435015,3230.7958304435015,3230.8125027120113,3230.896217174828,3231.797210454941,3231.411824785173,3232.8028843030334,right,1,0.267561636865139,0.1,,,,,,,,,,,s028,001,2024-08-15_09h49.49.957,simplestop_skeleton,2022.2.2,59.8396909362734,
None,None,,,,,,,,,0,0,0,0,8,1,33,3,,,,,,,,,3232.783085346222,go,circleblack.png,left,0.1,,,,,,,,,,,,,,,0.002029307186603546,0.4894339069724083,,3235.285413324833,test,1,,,,,,,,,,3232.8028843030334,3233.298660889268,3233.298660889268,3233.315406396985,3233.3985180929303,3234.2989380285144,3233.899220854044,3235.3050673156977,left,1,0.3286638483405113,0.1,,,,,,,,,,,s028,001,2024-08-15_09h49.49.957,simplestop_skeleton,2022.2.2,59.8396909362734,
None,None,,,,,,,,,0,0,0,0,8,2,34,2,,,,,,,,,3235.285859540105,go,squareblack.png,right,0.1,,,,,,,,,,,,,,,0.0018447116017341614,0.4895266145467758,,3237.788002729416,test,1,,,,,,,,,,3235.3050673156977,3235.801252104342,3235.801252104342,3235.8182066082954,3235.901736304164,3236.802132219076,3236.417299799621,3237.807187616825,right,1,0.2923397496342659,0.1,,,,,,,,,,,s028,001,2024-08-15_09h49.49.957,simplestop_skeleton,2022.2.2,59.8396909362734,
None,None,,,,,,,,,0,0,0,0,8,3,35,3,,,,,,,,,3237.7884438857436,stop,circleblack.png,left,0.1,,,,,,,,,,,,,,,0.0017626211047172546,0.48972122371196747,0.5898471921682358,3240.2910192981362,test,1,,,,,,,,,,3237.807187616825,3238.304375305772,3238.304375305772,3238.3208074346185,3238.404140137136,3239.3052750602365,3238.9032901227474,3240.3099452257156,left,1,0.2652595192193985,0.05,,,,,,,,,,,s028,001,2024-08-15_09h49.49.957,simplestop_skeleton,2022.2.2,59.8396909362734,
None,None,,,,,,,,,0,0,0,0,9,0,36,1,,,,,,,,,3240.291449069977,stop,circleblack.png,left,0.05,,,,,,,,,,,,,,,0.001400589942932129,0.48974915593862534,0.5399042591452599,3242.793858267367,test,1,,,,,,,,,,3240.3099452257156,3240.8070882856846,3240.8070882856846,3240.8238632827997,3240.8568223789334,3241.8078359141946,3241.357467249036,3242.813229635358,None,0,,0.1,,,,,,,,,,,s028,001,2024-08-15_09h49.49.957,simplestop_skeleton,2022.2.2,59.8396909362734,
None,None,,,,,,,,,0,0,0,0,9,1,37,3,,,,,,,,,3242.7943100109696,stop,squareblack.png,right,0.1,,,,,,,,,,,,,,,0.0018282011151313782,0.4894440919160843,0.5894113704562187,3245.296595402062,test,1,,,,,,,,,,3242.813229635358,3243.3094821944833,3243.3094821944833,3243.3262918516994,3243.409783311188,3244.3106753006577,3243.9103043451905,3245.3153645917773,None,0,,0.15,,,,,,,,,,,s028,001,2024-08-15_09h49.49.957,simplestop_skeleton,2022.2.2,59.8396909362734,
None,None,,,,,,,,,0,0,0,0,9,2,38,1,,,,,,,,,3245.297032378614,go,squareblack.png,right,0.15,,,,,,,,,,,,,,,0.001274608075618744,0.4899490028619766,,3247.7989177256823,test,1,,,,,,,,,,3245.3153645917773,3245.812200754881,3245.812200754881,3245.8293853476644,3245.962652556598,3246.8126717954874,3246.4615688100457,3247.817646227777,left,0,0.3432164788246155,0.15,,,,,,,,,,,s028,001,2024-08-15_09h49.49.957,simplestop_skeleton,2022.2.2,59.8396909362734,
$currentCorrectResponse,$currentGoStim,,,,,,,,,0,0,0,0,9,3,39,0,,,,,,,,,3247.799363911152,go,squareblack.png,right,0.15,,,,,,,,,,,,,,,0.0011970996856689453,0.48993246257305145,,3250.301633179188,test,1,,,,,,,,,,3247.817646227777,3248.3152666538954,3248.3152666538954,3248.331699922681,3248.465129457414,3249.3159970268607,3248.964385956526,3250.3194246068597,right,1,0.3383394628763199,0.15,,,,,,,,,,,s028,001,2024-08-15_09h49.49.957,simplestop_skeleton,2022.2.2,59.8396909362734,
None,None,,,,,,,,,0,0,0,0,10,0,40,2,,,,,,,,,3250.302071325481,go,squareblack.png,right,0.15,,,,,,,,,,,,,,,0.0011934265494346619,0.48991411179304123,,3252.8044649660587,test,1,,,,,,,,,,3250.3194246068597,3250.8177351877093,3250.8177351877093,3250.8345834463835,3250.9679399356246,3251.8182290121913,3251.467118561268,3252.8237733989954,right,1,0.30437538772821426,0.15,,,,,,,,,,,s028,001,2024-08-15_09h49.49.957,simplestop_skeleton,2022.2.2,59.8396909362734,
None,None,,,,,,,,,0,0,0,0,10,1,41,1,,,,,,,,,3252.8048937544227,go,squareblack.png,right,0.15,,,,,,,,,,,,,,,0.001339741051197052,0.4892192482948303,,3255.307229243219,test,1,,,,,,,,,,3252.8237733989954,3253.3204773664474,3253.3204773664474,3253.3374743908644,3253.4707822203636,3254.3218220993876,3253.986937955022,3255.3326652273536,right,1,0.2735451012849808,0.15,,,,,,,,,,,s028,001,2024-08-15_09h49.49.957,simplestop_skeleton,2022.2.2,59.8396909362734,
None,None,,,,,,,,,0,0,0,0,10,2,42,1,,,,,,,,,3255.307670414448,go,circleblack.png,left,0.15,,,,,,,,,,,,,,,0.0090169757604599,0.4897916465997696,,3257.810583680868,test,1,,,,,,,,,,3255.3326652273536,3255.8236143663526,3255.8236143663526,3255.8402658626437,3255.973480001092,3256.8237421885133,3256.472707360983,3257.829417616129,left,1,0.34281277656555176,0.15,,,,,,,,,,,s028,001,2024-08-15_09h49.49.957,simplestop_skeleton,2022.2.2,59.8396909362734,
None,None,,,,,,,,,0,0,0,0,10,3,43,2,,,,,,,,,3257.8110331073403,go,circleblack.png,left,0.15,,,,,,,,,,,,,,,0.0014733225107192993,0.48947764188051224,,3260.313142977655,test,1,,,,,,,,,,3257.829417616129,3258.3264340162277,3258.3264340162277,3258.343061722815,3258.4764075428247,3259.326476186514,3258.9921277463436,3260.3320126011968,right,0,0.32947519421577454,0.15,,,,,,,,,,,s028,001,2024-08-15_09h49.49.957,simplestop_skeleton,2022.2.2,59.8396909362734,
None,None,,,,,,,,,0,0,0,0,11,0,44,3,,,,,,,,,3260.313583649695,go,circleblack.png,left,0.15,,,,,,,,,,,,,,,0.001368209719657898,0.48950545489788055,,3262.8155815675855,test,1,,,,,,,,,,3260.3320126011968,3260.828976497054,3260.828976497054,3260.8456857800484,3260.9791360497475,3261.829738639295,3261.4798238277435,3262.8345782384276,left,1,0.42791031301021576,0.15,,,,,,,,,,,s028,001,2024-08-15_09h49.49.957,simplestop_skeleton,2022.2.2,59.8396909362734,
None,None,,,,,,,,,0,0,0,0,11,1,45,3,,,,,,,,,3262.816011361778,go,circleblack.png,left,0.15,,,,,,,,,,,,,,,0.001347757875919342,0.48998483270406723,,3265.3183485269547,test,1,,,,,,,,,,3262.8345782384276,3263.331727452576,3263.331727452576,3263.348654001951,3263.48207423836,3264.332775682211,3263.9820418059826,3265.3373755291104,left,1,0.36187339574098587,0.15,,,,,,,,,,,s028,001,2024-08-15_09h49.49.957,simplestop_skeleton,2022.2.2,59.8396909362734,
None,None,,,,,,,,,0,0,0,0,11,2,46,2,,,,,,,,,3265.3188518360257,stop,circleblack.png,left,0.15,,,,,,,,,,,,,,,0.001371242105960846,0.4895322024822235,0.6396315172314644,3267.820971429348,test,1,,,,,,,,,,3265.3373755291104,3265.83436717093,3265.83436717093,3265.851466022432,3265.9846280142665,3266.834823541343,3266.5004719495773,3267.8454136773944,left,1,0.31783074885606766,0.1,,,,,,,,,,,s028,001,2024-08-15_09h49.49.957,simplestop_skeleton,2022.2.2,59.8396909362734,
None,None,,,,,,,,,0,0,0,0,11,3,47,1,,,,,,,,,3267.8214011266828,stop,squareblack.png,right,0.1,,,,,,,,,,,,,,,0.007625475525856018,0.4898194670677185,0.5904914066195488,3270.3238587751985,test,1,,,,,,,,,,3267.8454136773944,3268.3373821005225,3268.3373821005225,3268.353888615966,3268.437461644411,3269.338190987706,3268.9529792293906,3270.3501170128584,right,1,0.28256018459796906,0.05,,,,,,,,,,,s028,001,2024-08-15_09h49.49.957,simplestop_skeleton,2022.2.2,59.8396909362734,
,,,,,,,,,,0,0,0,0,,,,,,"[{'fileName': 'squareblack.png', 'correct_response': 'right', 'condition': 'go'}, {'fileName': 'circleblack.png', 'correct_response': 'left', 'condition': 'stop'}, {'fileName': 'circleblack.png', 'correct_response': 'left', 'condition': 'go'}, {'fileName': 'squareblack.png', 'correct_response': 'right', 'condition': 'stop'}, {'fileName': 'circleblack.png', 'correct_response': 'left', 'condition': 'stop'}, {'fileName': 'squareblack.png', 'correct_response': 'right', 'condition': 'go'}, {'fileName': 'circleblack.png', 'correct_response': 'left', 'condition': 'go'}, {'fileName': 'squareblack.png', 'correct_response': 'right', 'condition': 'go'}, {'fileName': 'circleblack.png', 'correct_response': 'left', 'condition': 'go'}, {'fileName': 'circleblack.png', 'correct_response': 'left', 'condition': 'go'}, {'fileName': 'squareblack.png', 'correct_response': 'right', 'condition': 'go'}, {'fileName': 'squareblack.png', 'correct_response': 'right', 'condition': 'stop'}, {'fileName': 'circleblack.png', 'correct_response': 'left', 'condition': 'go'}, {'fileName': 'squareblack.png', 'correct_response': 'right', 'condition': 'go'}, {'fileName': 'circleblack.png', 'correct_response': 'left', 'condition': 'stop'}, {'fileName': 'squareblack.png', 'correct_response': 'right', 'condition': 'go'}, {'fileName': 'circleblack.png', 'correct_response': 'left', 'condition': 'go'}, {'fileName': 'squareblack.png', 'correct_response': 'right', 'condition': 'go'}, {'fileName': 'squareblack.png', 'correct_response': 'right', 'condition': 'go'}, {'fileName': 'circleblack.png', 'correct_response': 'left', 'condition': 'go'}, {'fileName': 'circleblack.png', 'correct_response': 'left', 'condition': 'stop'}, {'fileName': 'squareblack.png', 'correct_response': 'right', 'condition': 'stop'}, {'fileName': 'circleblack.png', 'correct_response': 'left', 'condition': 'go'}, {'fileName': 'squareblack.png', 'correct_response': 'right', 'condition': 'stop'}, {'fileName': 'circleblack.png', 'correct_response': 'left', 'condition': 'go'}, {'fileName': 'squareblack.png', 'correct_response': 'right', 'condition': 'go'}, {'fileName': 'squareblack.png', 'correct_response': 'right', 'condition': 'go'}, {'fileName': 'circleblack.png', 'correct_response': 'left', 'condition': 'stop'}, {'fileName': 'circleblack.png', 'correct_response': 'left', 'condition': 'go'}, {'fileName': 'circleblack.png', 'correct_response': 'left', 'condition': 'stop'}, {'fileName': 'circleblack.png', 'correct_response': 'left', 'condition': 'go'}, {'fileName': 'squareblack.png', 'correct_response': 'right', 'condition': 'go'}, {'fileName': 'squareblack.png', 'correct_response': 'right', 'condition': 'go'}, {'fileName': 'squareblack.png', 'correct_response': 'right', 'condition': 'stop'}, {'fileName': 'squareblack.png', 'correct_response': 'right', 'condition': 'stop'}, {'fileName': 'circleblack.png', 'correct_response': 'left', 'condition': 'go'}, {'fileName': 'squareblack.png', 'correct_response': 'right', 'condition': 'stop'}, {'fileName': 'circleblack.png', 'correct_response': 'left', 'condition': 'stop'}, {'fileName': 'circleblack.png', 'correct_response': 'left', 'condition': 'go'}, {'fileName': 'circleblack.png', 'correct_response': 'left', 'condition': 'go'}, {'fileName': 'squareblack.png', 'correct_response': 'right', 'condition': 'stop'}, {'fileName': 'circleblack.png', 'correct_response': 'left', 'condition': 'go'}, {'fileName': 'circleblack.png', 'correct_response': 'left', 'condition': 'go'}, {'fileName': 'circleblack.png', 'correct_response': 'left', 'condition': 'stop'}, {'fileName': 'squareblack.png', 'correct_response': 'right', 'condition': 'go'}, {'fileName': 'squareblack.png', 'correct_response': 'right', 'condition': 'go'}, {'fileName': 'squareblack.png', 'correct_response': 'right', 'condition': 'go'}, {'fileName': 'squareblack.png', 'correct_response': 'right', 'condition': 'go'}]",,,,,,,,,,,,,,,,,,,,,,,,,,,,,,,,,,,,,,,,,,,,,,,,,,,,,3270.3501170128584,3270.3501170128584,return,22.561583995819092,,,,,,,s028,001,2024-08-15_09h49.49.957,simplestop_skeleton,2022.2.2,59.8396909362734,
None,None,,,,,,,,,1,0,1,0,0,0,0,2,,,,,,,,,3292.9317418187857,go,squareblack.png,right,0.05,,,,,,,,,,,,,,,0.0018356889486312866,0.48980315774679184,,3295.435410641134,test,2,,,,,,,,,,3292.952121064067,3293.4487080797553,3293.4487080797553,3293.464966624975,3293.498277708888,3294.4499206095934,3293.9990765228868,3295.460120253265,left,0,0.42342089116573334,0.05,,,,,,,,,,,s028,001,2024-08-15_09h49.49.957,simplestop_skeleton,2022.2.2,59.8396909362734,
None,None,,,,,,,,,1,0,1,0,0,1,1,1,,,,,,,,,3295.4359624683857,stop,circleblack.png,left,0.05,,,,,,,,,,,,,,,0.007876873016357422,0.48923951387405396,0.5390472337603569,3297.937668643892,test,2,,,,,,,,,,3295.460120253265,3295.9508847743273,3295.9508847743273,3295.9675294682384,3296.001255132258,3296.9522325471044,3296.501580886543,3297.956645183265,None,0,,0.1,,,,,,,,,,,s028,001,2024-08-15_09h49.49.957,simplestop_skeleton,2022.2.2,59.8396909362734,
None,None,,,,,,,,,1,0,1,0,0,2,2,1,,,,,,,,,3297.938108675182,go,circleblack.png,left,0.1,,,,,,,,,,,,,,,0.001348346471786499,0.49007707089185715,,3300.4407091364264,test,2,,,,,,,,,,3297.956645183265,3298.4537681937218,3298.4537681937218,3298.47029633075,3298.5539504513144,3299.4546310976148,3299.0545701235533,3300.465186305344,left,1,0.34458696842193604,0.1,,,,,,,,,,,s028,001,2024-08-15_09h49.49.957,simplestop_skeleton,2022.2.2,59.8396909362734,
None,None,,,,,,,,,1,0,1,0,0,3,3,3,,,,,,,,,3300.4411491900682,stop,squareblack.png,right,0.1,,,,,,,,,,,,,,,0.007545590400695801,0.48958010971546173,0.589509978890419,3302.9433725997806,test,2,,,,,,,,,,3300.465186305344,3300.9565627276897,3300.9565627276897,3300.9731568470597,3301.0566017329693,3301.957022726536,3301.5557490065694,3302.962862238288,right,1,0.3011362999677658,0.05,,,,,,,,,,,s028,001,2024-08-15_09h49.49.957,simplestop_skeleton,2022.2.2,59.8396909362734,
None,None,,,,,,,,,1,0,1,0,1,0,4,1,,,,,,,,,3302.9438019394875,stop,circleblack.png,left,0.05,,,,,,,,,,,,,,,0.0018290281295776367,0.489468589425087,0.5397447124123573,3305.446027994156,test,2,,,,,,,,,,3302.962862238288,3303.459393285215,3303.459393285215,3303.4759918376803,3303.509340234101,3304.460498943925,3304.009896442294,3305.4651953056455,None,0,,0.1,,,,,,,,,,,s028,001,2024-08-15_09h49.49.957,simplestop_skeleton,2022.2.2,59.8396909362734,
$currentCorrectResponse,$currentGoStim,,,,,,,,,1,0,1,0,1,1,5,0,,,,,,,,,3305.4464574977756,go,squareblack.png,right,0.1,,,,,,,,,,,,,,,0.0016906782984733582,0.4897460788488388,,3307.9486992508173,test,2,,,,,,,,,,3305.4651953056455,3305.962073393166,3305.962073393166,3305.9791193157434,3306.0625364780426,3306.9625831991434,3306.562914252281,3307.9681622236967,right,1,0.3645114228129387,0.1,,,,,,,,,,,s028,001,2024-08-15_09h49.49.957,simplestop_skeleton,2022.2.2,59.8396909362734,
None,None,,,,,,,,,1,0,1,0,1,2,6,3,,,,,,,,,3307.949136532843,go,circleblack.png,left,0.1,,,,,,,,,,,,,,,0.001824021339416504,0.48983389139175415,,3310.4514638110995,test,2,,,,,,,,,,3307.9681622236967,3308.4649319052696,3308.4649319052696,3308.4819698780775,3308.564735852182,3309.4656751081347,3309.065612114966,3310.4707153365016,left,1,0.525423988699913,0.1,,,,,,,,,,,s028,001,2024-08-15_09h49.49.957,simplestop_skeleton,2022.2.2,59.8396909362734,
None,None,,,,,,,,,1,0,1,0,1,3,7,3,,,,,,,,,3310.451902061701,go,squareblack.png,right,0.1,,,,,,,,,,,,,,,0.0016856938600540161,0.48980657011270523,,3312.9542272239923,test,2,,,,,,,,,,3310.4707153365016,3310.9676681160927,3310.9676681160927,3310.9841528087854,3311.0676644816995,3311.968217767775,3311.5681925937533,3312.9733881652355,right,1,0.3446631506085396,0.1,,,,,,,,,,,s028,001,2024-08-15_09h49.49.957,simplestop_skeleton,2022.2.2,59.8396909362734,
None,None,,,,,,,,,1,0,1,0,2,0,8,2,,,,,,,,,3312.9546579420567,go,circleblack.png,left,0.1,,,,,,,,,,,,,,,0.0017344579100608826,0.48997722566127777,,3315.4570217058063,test,2,,,,,,,,,,3312.9733881652355,3313.470193646848,3313.470193646848,3313.486934579909,3313.5704144239426,3314.4709946662188,3314.0709175765514,3315.475974164903,left,1,0.3478780835866928,0.1,,,,,,,,,,,s028,001,2024-08-15_09h49.49.957,simplestop_skeleton,2022.2.2,59.8396909362734,
$currentCorrectResponse,$currentGoStim,,,,,,,,,1,0,1,0,2,1,9,0,,,,,,,,,3315.4574502259493,go,circleblack.png,left,0.1,,,,,,,,,,,,,,,0.001328885555267334,0.489487424492836,,3317.9598296433687,test,2,,,,,,,,,,3315.475974164903,3315.972869850695,3315.972869850695,3315.989660359919,3316.072997443378,3316.97336678952,3316.573647327721,3317.9793535396457,left,1,0.3121035322546959,0.1,,,,,,,,,,,s028,001,2024-08-15_09h49.49.957,simplestop_skeleton,2022.2.2,59.8396909362734,
None,None,,,,,,,,,1,0,1,0,2,2,10,3,,,,,,,,,3317.9602706432343,go,squareblack.png,right,0.1,,,,,,,,,,,,,,,0.0017704516649246216,0.4892536476254463,,3320.4627388194203,test,2,,,,,,,,,,3317.9793535396457,3318.475735232234,3318.475735232234,3318.4924777001143,3318.575956001878,3319.4765397906303,3319.075003705919,3320.481423139572,right,1,0.3222113698720932,0.1,,,,,,,,,,,s028,001,2024-08-15_09h49.49.957,simplestop_skeleton,2022.2.2,59.8396909362734,
$currentCorrectResponse,$currentGoStim,,,,,,,,,1,0,1,0,2,3,11,0,,,,,,,,,3320.463175304234,stop,squareblack.png,right,0.1,,,,,,,,,,,,,,,0.0012536197900772095,0.4899951294064522,0.5897652059793472,3322.9653580337763,test,2,,,,,,,,,,3320.481423139572,3320.978706471622,3320.978706471622,3320.9955276176333,3321.078715093434,3321.9791428148746,3321.577762246132,3322.9849939495325,right,1,0.2845403552055359,0.05,,,,,,,,,,,s028,001,2024-08-15_09h49.49.957,simplestop_skeleton,2022.2.2,59.8396909362734,
None,None,,,,,,,,,1,0,1,0,3,0,12,2,,,,,,,,,3322.9657999500632,go,circleblack.png,left,0.05,,,,,,,,,,,,,,,0.001921236515045166,0.48991819471120834,,3325.468276537955,test,2,,,,,,,,,,3322.9849939495325,3323.4815592467785,3323.4815592467785,3323.498174034059,3323.531335040927,3324.4821879714727,3324.032364331186,3325.4880285337567,left,1,0.32391322404146194,0.05,,,,,,,,,,,s028,001,2024-08-15_09h49.49.957,simplestop_skeleton,2022.2.2,59.8396909362734,
None,None,,,,,,,,,1,0,1,0,3,1,13,2,,,,,,,,,3325.4687090963125,go,squareblack.png,right,0.05,,,,,,,,,,,,,,,0.001811198890209198,0.4892975687980652,,3327.9708925932646,test,2,,,,,,,,,,3325.4880285337567,3325.9841690585017,3325.9841690585017,3326.00122923404,3326.034202374518,3326.9846286922693,3326.5346873626113,3327.990197084844,right,1,0.32801273465156555,0.05,,,,,,,,,,,s028,001,2024-08-15_09h49.49.957,simplestop_skeleton,2022.2.2,59.8396909362734,
None,None,,,,,,,,,1,0,1,0,3,2,14,3,,,,,,,,,3327.971328623593,stop,circleblack.png,left,0.05,,,,,,,,,,,,,,,0.0017605498433113098,0.4899603947997093,0.539934791624546,3330.4738925918937,test,2,,,,,,,,,,3327.990197084844,3328.4869061484933,3328.4869061484933,3328.5037114694715,3328.53680588305,3329.4879442751408,3329.037402741611,3330.493272602558,None,0,,0.1,,,,,,,,,,,s028,001,2024-08-15_09h49.49.957,simplestop_skeleton,2022.2.2,59.8396909362734,
None,None,,,,,,,,,1,0,1,0,3,3,15,3,,,,,,,,,3330.474328376353,go,squareblack.png,right,0.1,,,,,,,,,,,,,,,0.0017494633793830872,0.48936742544174194,,3332.9765665605664,test,2,,,,,,,,,,3330.493272602558,3330.9896292313933,3330.9896292313933,3331.006483666599,3331.0897936671972,3331.9902381151915,3331.5901796892285,3332.9962145984173,right,1,0.384424090385437,0.1,,,,,,,,,,,s028,001,2024-08-15_09h49.49.957,simplestop_skeleton,2022.2.2,59.8396909362734,
None,None,,,,,,,,,1,0,1,0,4,0,16,1,,,,,,,,,3332.9770226180553,go,circleblack.png,left,0.1,,,,,,,,,,,,,,,0.001871265470981598,0.48984695225954056,,3335.479092642665,test,2,,,,,,,,,,3332.9962145984173,3333.4927177131176,3333.4927177131176,3333.5092634782195,3333.5926218777895,3334.4927294254303,3334.093221925199,3335.4982726946473,left,1,0.32465365529060364,0.1,,,,,,,,,,,s028,001,2024-08-15_09h49.49.957,simplestop_skeleton,2022.2.2,59.8396909362734,
$currentCorrectResponse,$currentGoStim,,,,,,,,,1,0,1,0,4,1,17,0,,,,,,,,,3335.4795358404517,go,squareblack.png,right,0.1,,,,,,,,,,,,,,,0.0016784146428108215,0.4897254705429077,,3337.981971345842,test,2,,,,,,,,,,3335.4982726946473,3335.995348498225,3335.995348498225,3336.011795565486,3336.095384865999,3336.995931595564,3336.596025340259,3338.0008937865496,right,1,0.3514408990740776,0.1,,,,,,,,,,,s028,001,2024-08-15_09h49.49.957,simplestop_skeleton,2022.2.2,59.8396909362734,
$currentCorrectResponse,$currentGoStim,,,,,,,,,1,0,1,0,4,2,18,0,,,,,,,,,3337.98243111372,go,squareblack.png,right,0.1,,,,,,,,,,,,,,,0.0013723298907279968,0.48970115184783936,,3340.4848270490766,test,2,,,,,,,,,,3338.0008937865496,3338.497910402715,3338.497910402715,3338.514581166208,3338.598233640194,3339.4985390752554,3339.0987759381533,3340.5042948275805,left,0,0.38879789412021637,0.1,,,,,,,,,,,s028,001,2024-08-15_09h49.49.957,simplestop_skeleton,2022.2.2,59.8396909362734,
None,None,,,,,,,,,1,0,1,0,4,3,19,1,,,,,,,,,3340.4852574169636,go,circleblack.png,left,0.1,,,,,,,,,,,,,,,0.0021074488759040833,0.4897797778248787,,3342.98738540709,test,2,,,,,,,,,,3340.5042948275805,3341.000646442175,3341.000646442175,3341.017622575164,3341.100686892867,3342.000579446554,3341.6012521237135,3343.006332911551,left,1,0.5435013920068741,0.1,,,,,,,,,,,s028,001,2024-08-15_09h49.49.957,simplestop_skeleton,2022.2.2,59.8396909362734,
None,None,,,,,,,,,1,0,1,0,5,0,20,2,,,,,,,,,3342.987909555435,stop,circleblack.png,left,0.1,,,,,,,,,,,,,,,0.0014182552695274353,0.48981979489326477,0.5898213312029839,3345.490194916725,test,2,,,,,,,,,,3343.006332911551,3343.503530859947,3343.503530859947,3343.520090147853,3343.6036158278584,3344.504669815302,3344.104386381805,3345.5093586444855,None,0,,0.15,,,,,,,,,,,s028,001,2024-08-15_09h49.49.957,simplestop_skeleton,2022.2.2,59.8396909362734,
None,None,,,,,,,,,1,0,1,0,5,1,21,2,,,,,,,,,3345.4906315132976,stop,squareblack.png,right,0.15,,,,,,,,,,,,,,,0.0015982463955879211,0.489840105175972,0.6400651931762695,3347.9928130060434,test,2,,,,,,,,,,3345.5093586444855,3346.0061644241214,3346.0061644241214,3346.0230556204915,3346.156406313181,3347.0075607076287,3346.6569021567702,3348.0122939273715,None,0,,0.2,,,,,,,,,,,s028,001,2024-08-15_09h49.49.957,simplestop_skeleton,2022.2.2,59.8396909362734,
$currentCorrectResponse,$currentGoStim,,,,,,,,,1,0,1,0,5,2,22,0,,,,,,,,,3347.9932465851307,go,circleblack.png,left,0.2,,,,,,,,,,,,,,,0.0019201338291168213,0.49004485458135605,,3350.496189966798,test,2,,,,,,,,,,3348.0122939273715,3348.5090754181147,3348.5090754181147,3348.525634109974,3348.709331482649,3349.5095364153385,3349.20990704,3350.515574783087,left,1,0.465193547308445,0.2,,,,,,,,,,,s028,001,2024-08-15_09h49.49.957,simplestop_skeleton,2022.2.2,59.8396909362734,
None,None,,,,,,,,,1,0,1,0,5,3,23,1,,,,,,,,,3350.4966404885054,stop,squareblack.png,right,0.2,,,,,,,,,,,,,,,0.0018661916255950928,0.4894219785928726,0.6894399598240852,3352.9986150041223,test,2,,,,,,,,,,3350.515574783087,3351.0116038918495,3351.0116038918495,3351.0285535752773,3351.2119513973594,3352.012436747551,3351.727771408856,3353.01913818717,right,1,0.31622612476348877,0.15,,,,,,,,,,,s028,001,2024-08-15_09h49.49.957,simplestop_skeleton,2022.2.2,59.8396909362734,
$currentCorrectResponse,$currentGoStim,,,,,,,,,1,0,1,0,6,0,24,0,,,,,,,,,3352.999053373933,go,circleblack.png,left,0.15,,,,,,,,,,,,,,,0.002512313425540924,0.48857878148555756,,3355.5013364180923,test,2,,,,,,,,,,3353.01913818717,3353.514714308083,3353.514714308083,3353.5310931652784,3353.66474699229,3354.515199624002,3354.1653207987547,3355.520710028708,left,1,0.4009256735444069,0.15,,,,,,,,,,,s028,001,2024-08-15_09h49.49.957,simplestop_skeleton,2022.2.2,59.8396909362734,
None,None,,,,,,,,,1,0,1,0,6,1,25,1,,,,,,,,,3355.5017837807536,go,squareblack.png,right,0.15,,,,,,,,,,,,,,,0.0017509236931800842,0.48941413313150406,,3358.003999620676,test,2,,,,,,,,,,3355.520710028708,3356.0174995064735,3356.0174995064735,3356.0340366885066,3356.1673153862357,3357.017661191523,3356.668194666505,3358.022857144475,right,1,0.38725994527339935,0.15,,,,,,,,,,,s028,001,2024-08-15_09h49.49.957,simplestop_skeleton,2022.2.2,59.8396909362734,
$currentCorrectResponse,$currentGoStim,,,,,,,,,1,0,1,0,6,2,26,0,,,,,,,,,3358.0044381693006,go,squareblack.png,right,0.15,,,,,,,,,,,,,,,0.0012241154909133911,0.4897923320531845,,3360.506750807166,test,2,,,,,,,,,,3358.022857144475,3358.519914634526,3358.519914634526,3358.536577105522,3358.67026823014,3359.520646803081,3359.1692200750113,3360.5260601490736,right,1,0.2959551438689232,0.15,,,,,,,,,,,s028,001,2024-08-15_09h49.49.957,simplestop_skeleton,2022.2.2,59.8396909362734,
None,None,,,,,,,,,1,0,1,0,6,3,27,3,,,,,,,,,3360.5071768835187,stop,circleblack.png,left,0.15,,,,,,,,,,,,,,,0.0018061995506286621,0.4896213859319687,0.6403356641530991,3363.0098952353,test,2,,,,,,,,,,3360.5260601490736,3361.022790469229,3361.022790469229,3361.039612285793,3361.17306791991,3362.023188613355,3361.673548594117,3363.028776407242,left,1,0.3812591880559921,0.1,,,,,,,,,,,s028,001,2024-08-15_09h49.49.957,simplestop_skeleton,2022.2.2,59.8396909362734,
None,None,,,,,,,,,1,0,1,0,7,0,28,2,,,,,,,,,3363.0103344991803,go,circleblack.png,left,0.1,,,,,,,,,,,,,,,0.0014400333166122437,0.4894411191344261,,3365.512653566897,test,2,,,,,,,,,,3363.028776407242,3363.5255601480603,3363.5255601480603,3363.542481034994,3363.6255348697305,3364.5259498357773,3364.1261083483696,3365.531614907086,left,1,0.375612273812294,0.1,,,,,,,,,,,s028,001,2024-08-15_09h49.49.957,simplestop_skeleton,2022.2.2,59.8396909362734,
None,None,,,,,,,,,1,0,1,0,7,1,29,1,,,,,,,,,3365.513102583587,stop,circleblack.png,left,0.1,,,,,,,,,,,,,,,0.0014110654592514038,0.48910052329301834,0.5893034934997559,3368.0136539936066,test,2,,,,,,,,,,3365.531614907086,3366.0283877030015,3366.0283877030015,3366.044745542109,3366.1287856325507,3367.0292771086097,3366.628851071,3368.030236199498,None,0,,0.15,,,,,,,,,,,s028,001,2024-08-15_09h49.49.957,simplestop_skeleton,2022.2.2,59.8396909362734,
None,None,,,,,,,,,1,0,1,0,7,2,30,3,,,,,,,,,3368.014086395502,go,circleblack.png,left,0.15,,,,,,,,,,,,,,,0.0012078285217285156,0.49136485904455185,,3370.517999753356,test,2,,,,,,,,,,3368.030236199498,3368.530973099172,3368.530973099172,3368.530973099172,3368.681084573269,3369.531364738941,3369.1816061362624,3370.54259480536,left,1,0.45548687875270844,0.15,,,,,,,,,,,s028,001,2024-08-15_09h49.49.957,simplestop_skeleton,2022.2.2,59.8396909362734,
None,None,,,,,,,,,1,0,1,0,7,3,31,3,,,,,,,,,3370.51843868196,go,squareblack.png,right,0.15,,,,,,,,,,,,,,,0.007605738937854767,0.4892576262354851,,3373.020458802581,test,2,,,,,,,,,,3370.54259480536,3371.0338553488255,3371.0338553488255,3371.0504664182663,3371.1838386952877,3372.034499011934,3371.6843988075852,3373.039729990065,right,1,0.3509174585342407,0.15,,,,,,,,,,,s028,001,2024-08-15_09h49.49.957,simplestop_skeleton,2022.2.2,59.8396909362734,
None,None,,,,,,,,,1,0,1,0,8,0,32,3,,,,,,,,,3373.020910695195,go,squareblack.png,right,0.15,,,,,,,,,,,,,,,0.0011781156063079834,0.4898834824562073,,3375.523711286485,test,2,,,,,,,,,,3373.039729990065,3373.536435313523,3373.536435313523,3373.5531148687005,3373.6867302432656,3374.5372382849455,3374.202464208007,3375.542509429157,right,1,0.314541794359684,0.15,,,,,,,,,,,s028,001,2024-08-15_09h49.49.957,simplestop_skeleton,2022.2.2,59.8396909362734,
None,None,,,,,,,,,1,0,1,0,8,1,33,3,,,,,,,,,3375.5241393372416,stop,squareblack.png,right,0.15,,,,,,,,,,,,,,,0.0014375150203704834,0.48920799791812897,0.6397395730018616,3378.0260869935155,test,2,,,,,,,,,,3375.542509429157,3376.039219774306,3376.039219774306,3376.0560668557882,3376.1894443780184,3377.040392227471,3376.6901152208447,3378.0448562428355,None,0,,0.2,,,,,,,,,,,s028,001,2024-08-15_09h49.49.957,simplestop_skeleton,2022.2.2,59.8396909362734,
$currentCorrectResponse,$currentGoStim,,,,,,,,,1,0,1,0,8,2,34,0,,,,,,,,,3378.0265228897333,stop,squareblack.png,right,0.2,,,,,,,,,,,,,,,0.0012809261679649353,0.4899149686098099,0.6902123764157295,3380.52891407907,test,2,,,,,,,,,,3378.0448562428355,3378.542297527194,3378.542297527194,3378.558646336198,3378.742270104587,3379.5433586761355,3379.2428221553564,3380.5480699911714,None,0,,0.25,,,,,,,,,,,s028,001,2024-08-15_09h49.49.957,simplestop_skeleton,2022.2.2,59.8396909362734,
None,None,,,,,,,,,1,0,1,0,8,3,35,2,,,,,,,,,3380.529346637428,go,circleblack.png,left,0.25,,,,,,,,,,,,,,,0.001725703477859497,0.4898296594619751,,3383.0318206474185,test,2,,,,,,,,,,3380.5480699911714,3381.044830583036,3381.044830583036,3381.0618830621243,3381.2954481989145,3382.0456336811185,3381.794426523149,3383.0514893382788,left,1,0.2954537644982338,0.25,,,,,,,,,,,s028,001,2024-08-15_09h49.49.957,simplestop_skeleton,2022.2.2,59.8396909362734,
$currentCorrectResponse,$currentGoStim,,,,,,,,,1,0,1,0,9,0,36,0,,,,,,,,,3383.0322625935078,stop,squareblack.png,right,0.25,,,,,,,,,,,,,,,0.0018119961023330688,0.48916591703891754,0.7392278015613556,3385.534492522478,test,2,,,,,,,,,,3383.0514893382788,3383.5476738139987,3383.5476738139987,3383.5646370500326,3383.7976453751326,3384.5488118231297,3384.2971661761403,3385.5542833581567,left,0,0.371654748916626,0.2,,,,,,,,,,,s028,001,2024-08-15_09h49.49.957,simplestop_skeleton,2022.2.2,59.8396909362734,
None,None,,,,,,,,,1,0,1,0,9,1,37,3,,,,,,,,,3385.5349165052176,stop,circleblack.png,left,0.2,,,,,,,,,,,,,,,0.0018496885895729065,0.48943303525447845,0.6896213069558144,3388.037196584046,test,2,,,,,,,,,,3385.5542833581567,3386.0502891391516,3386.0502891391516,3386.06702837348,3386.2504142299294,3387.051434494555,3386.7512176036835,3388.0560236126184,None,0,,0.25,,,,,,,,,,,s028,001,2024-08-15_09h49.49.957,simplestop_skeleton,2022.2.2,59.8396909362734,
None,None,,,,,,,,,1,0,1,0,9,2,38,2,,,,,,,,,3388.0376416817307,go,circleblack.png,left,0.25,,,,,,,,,,,,,,,0.001310989260673523,0.48965536803007126,,3390.5398606732488,test,2,,,,,,,,,,3388.0560236126184,3388.553277514875,3388.553277514875,3388.569683805108,3388.803905233741,3389.5535560697317,3389.319179534912,3390.559122264385,left,1,0.3840099051594734,0.25,,,,,,,,,,,s028,001,2024-08-15_09h49.49.957,simplestop_skeleton,2022.2.2,59.8396909362734,
None,None,,,,,,,,,1,0,1,0,9,3,39,1,,,,,,,,,3390.5402958467603,go,circleblack.png,left,0.25,,,,,,,,,,,,,,,0.001364491879940033,0.48982207477092743,,3393.0426945239305,test,2,,,,,,,,,,3390.559122264385,3391.0560065954924,3391.0560065954924,3391.072619833052,3391.3062623664737,3392.056658476591,3391.8220017924905,3393.0618045181036,right,0,0.3555060923099518,0.25,,,,,,,,,,,s028,001,2024-08-15_09h49.49.957,simplestop_skeleton,2022.2.2,59.8396909362734,
None,None,,,,,,,,,1,0,1,0,10,0,40,1,,,,,,,,,3393.0431402996182,stop,squareblack.png,right,0.25,,,,,,,,,,,,,,,0.0016583427786827087,0.49009572714567184,0.7399180233478546,3395.5454594790936,test,2,,,,,,,,,,3393.0618045181036,3393.55897141248,3393.55897141248,3393.5753621309996,3393.8090899586678,3394.5597967505455,3394.3096517696977,3395.565061159432,None,0,,0.3,,,,,,,,,,,s028,001,2024-08-15_09h49.49.957,simplestop_skeleton,2022.2.2,59.8396909362734,
$currentCorrectResponse,$currentGoStim,,,,,,,,,1,0,1,0,10,1,41,0,,,,,,,,,3395.5459000617266,go,circleblack.png,left,0.3,,,,,,,,,,,,,,,0.0019398331642150879,0.4900229424238205,,3398.048042818904,test,2,,,,,,,,,,3395.565061159432,3396.0617101192474,3396.0617101192474,3396.080056719482,3396.3617941886187,3397.0619766935706,3396.8775230273604,3398.0670267939568,left,1,0.4558669626712799,0.3,,,,,,,,,,,s028,001,2024-08-15_09h49.49.957,simplestop_skeleton,2022.2.2,59.8396909362734,
None,None,,,,,,,,,1,0,1,0,10,2,42,2,,,,,,,,,3398.048470914364,go,circleblack.png,left,0.3,,,,,,,,,,,,,,,0.0013505294919013977,0.489911288022995,,3400.5510882511735,test,2,,,,,,,,,,3398.0670267939568,3398.5640316307545,3398.5640316307545,3398.581009835005,3398.86447288841,3399.5638171955943,3399.364862680435,3400.5696346610785,left,1,0.5326773673295975,0.3,,,,,,,,,,,s028,001,2024-08-15_09h49.49.957,simplestop_skeleton,2022.2.2,59.8396909362734,
None,None,,,,,,,,,1,0,1,0,10,3,43,1,,,,,,,,,3400.551529236138,stop,circleblack.png,left,0.3,,,,,,,,,,,,,,,0.0014393404126167297,0.4895217940211296,0.7902624979615211,3403.0536580830812,test,2,,,,,,,,,,3400.5696346610785,3401.0667176768184,3401.0667176768184,3401.0835583135486,3401.3671792969108,3402.066521368921,3401.8677495494485,3403.072791852057,left,1,0.4898376241326332,0.25,,,,,,,,,,,s028,001,2024-08-15_09h49.49.957,simplestop_skeleton,2022.2.2,59.8396909362734,
None,None,,,,,,,,,1,0,1,0,11,0,44,2,,,,,,,,,3403.0540962591767,go,squareblack.png,right,0.25,,,,,,,,,,,,,,,0.0017270147800445557,0.48968596011400223,,3405.556656487286,test,2,,,,,,,,,,3403.072791852057,3403.569581620395,3403.569581620395,3403.5861810073256,3403.81984937191,3404.569488622248,3404.3190894946456,3405.5758227184415,right,1,0.44478724151849747,0.25,,,,,,,,,,,s028,001,2024-08-15_09h49.49.957,simplestop_skeleton,2022.2.2,59.8396909362734,
$currentCorrectResponse,$currentGoStim,,,,,,,,,1,0,1,0,11,1,45,0,,,,,,,,,3405.5571045577526,go,squareblack.png,right,0.25,,,,,,,,,,,,,,,0.0014318227767944336,0.48933015763759613,,3408.0589709728956,test,2,,,,,,,,,,3405.5758227184415,3406.072466313839,3406.072466313839,3406.089063324034,3406.3226689621806,3407.072652220726,3406.838355176151,3408.07777787745,right,1,0.40157686173915863,0.25,,,,,,,,,,,s028,001,2024-08-15_09h49.49.957,simplestop_skeleton,2022.2.2,59.8396909362734,
None,None,,,,,,,,,1,0,1,0,11,2,46,2,,,,,,,,,3408.0594095662236,go,squareblack.png,right,0.25,,,,,,,,,,,,,,,0.0011793896555900574,0.48987315595149994,,3410.5621087625623,test,2,,,,,,,,,,3408.07777787745,3408.575162999332,3408.575162999332,3408.591828994453,3408.8253364264965,3409.576028883457,3409.324579976499,3410.580892801285,right,1,0.37214888632297516,0.25,,,,,,,,,,,s028,001,2024-08-15_09h49.49.957,simplestop_skeleton,2022.2.2,59.8396909362734,
None,None,,,,,,,,,1,0,1,0,11,3,47,1,,,,,,,,,3410.562542013824,go,squareblack.png,right,0.25,,,,,,,,,,,,,,,0.0013200119137763977,0.4895513579249382,,3413.0650479644537,test,2,,,,,,,,,,3410.580892801285,3411.0779979899526,3411.0779979899526,3411.0946079418063,3411.3283908367157,3412.0785759463906,3411.844155050814,3413.0805227980018,right,1,0.3219529613852501,0.25,,,,,,,,,,,s028,001,2024-08-15_09h49.49.957,simplestop_skeleton,2022.2.2,59.8396909362734,
,,,,,,,,,,1,0,1,0,,,,,,,,,,,,,,,,,,,,,,,,,,,,,,,,,,,,,,,,,,,,,,,,,,,,,,,,,,,3413.0805227980018,3413.0805227980018,return,18.283936746418476,"[{'fileName': 'squareblack.png', 'correct_response': 'right', 'condition': 'go'}, {'fileName': 'squareblack.png', 'correct_response': 'right', 'condition': 'stop'}, {'fileName': 'squareblack.png', 'correct_response': 'right', 'condition': 'go'}, {'fileName': 'squareblack.png', 'correct_response': 'right', 'condition': 'go'}, {'fileName': 'circleblack.png', 'correct_response': 'left', 'condition': 'go'}, {'fileName': 'circleblack.png', 'correct_response': 'left', 'condition': 'go'}, {'fileName': 'circleblack.png', 'correct_response': 'left', 'condition': 'go'}, {'fileName': 'squareblack.png', 'correct_response': 'right', 'condition': 'go'}, {'fileName': 'circleblack.png', 'correct_response': 'left', 'condition': 'stop'}, {'fileName': 'squareblack.png', 'correct_response': 'right', 'condition': 'stop'}, {'fileName': 'circleblack.png', 'correct_response': 'left', 'condition': 'go'}, {'fileName': 'circleblack.png', 'correct_response': 'left', 'condition': 'stop'}, {'fileName': 'circleblack.png', 'correct_response': 'left', 'condition': 'go'}, {'fileName': 'squareblack.png', 'correct_response': 'right', 'condition': 'go'}, {'fileName': 'circleblack.png', 'correct_response': 'left', 'condition': 'go'}, {'fileName': 'squareblack.png', 'correct_response': 'right', 'condition': 'go'}, {'fileName': 'circleblack.png', 'correct_response': 'left', 'condition': 'stop'}, {'fileName': 'squareblack.png', 'correct_response': 'right', 'condition': 'stop'}, {'fileName': 'circleblack.png', 'correct_response': 'left', 'condition': 'stop'}, {'fileName': 'circleblack.png', 'correct_response': 'left', 'condition': 'go'}, {'fileName': 'squareblack.png', 'correct_response': 'right', 'condition': 'go'}, {'fileName': 'squareblack.png', 'correct_response': 'right', 'condition': 'stop'}, {'fileName': 'squareblack.png', 'correct_response': 'right', 'condition': 'go'}, {'fileName': 'circleblack.png', 'correct_response': 'left', 'condition': 'go'}, {'fileName': 'circleblack.png', 'correct_response': 'left', 'condition': 'stop'}, {'fileName': 'circleblack.png', 'correct_response': 'left', 'condition': 'go'}, {'fileName': 'circleblack.png', 'correct_response': 'left', 'condition': 'go'}, {'fileName': 'circleblack.png', 'correct_response': 'left', 'condition': 'stop'}, {'fileName': 'squareblack.png', 'correct_response': 'right', 'condition': 'go'}, {'fileName': 'squareblack.png', 'correct_response': 'right', 'condition': 'go'}, {'fileName': 'squareblack.png', 'correct_response': 'right', 'condition': 'go'}, {'fileName': 'squareblack.png', 'correct_response': 'right', 'condition': 'stop'}, {'fileName': 'squareblack.png', 'correct_response': 'right', 'condition': 'stop'}, {'fileName': 'squareblack.png', 'correct_response': 'right', 'condition': 'go'}, {'fileName': 'circleblack.png', 'correct_response': 'left', 'condition': 'go'}, {'fileName': 'circleblack.png', 'correct_response': 'left', 'condition': 'go'}, {'fileName': 'circleblack.png', 'correct_response': 'left', 'condition': 'go'}, {'fileName': 'squareblack.png', 'correct_response': 'right', 'condition': 'stop'}, {'fileName': 'circleblack.png', 'correct_response': 'left', 'condition': 'go'}, {'fileName': 'circleblack.png', 'correct_response': 'left', 'condition': 'stop'}, {'fileName': 'circleblack.png', 'correct_response': 'left', 'condition': 'go'}, {'fileName': 'squareblack.png', 'correct_response': 'right', 'condition': 'go'}, {'fileName': 'squareblack.png', 'correct_response': 'right', 'condition': 'go'}, {'fileName': 'circleblack.png', 'correct_response': 'left', 'condition': 'go'}, {'fileName': 'squareblack.png', 'correct_response': 'right', 'condition': 'go'}, {'fileName': 'squareblack.png', 'correct_response': 'right', 'condition': 'stop'}, {'fileName': 'squareblack.png', 'correct_response': 'right', 'condition': 'go'}, {'fileName': 'circleblack.png', 'correct_response': 'left', 'condition': 'stop'}]",,,,,,s028,001,2024-08-15_09h49.49.957,simplestop_skeleton,2022.2.2,59.8396909362734,
None,None,,,,,,,,,2,0,2,0,0,0,0,1,,,,,,,,,3431.382335178554,go,squareblack.png,right,0.25,,,,,,,,,,,,,,,0.0012879446148872375,0.49269360303878784,,3433.887850061059,test,3,,,,,,,,,,3431.4012255966663,3431.9009591415524,3431.9009591415524,3431.9009591415524,3432.151175118983,3432.9024999961257,3432.6518979519606,3433.9068994894624,right,1,0.46275947988033295,0.25,,,,,,,,,,,s028,001,2024-08-15_09h49.49.957,simplestop_skeleton,2022.2.2,59.8396909362734,
None,None,,,,,,,,,2,0,2,0,0,1,1,1,,,,,,,,,3433.8883924111724,stop,squareblack.png,right,0.25,,,,,,,,,,,,,,,0.0013984814286231995,0.48926955461502075,0.739379271864891,3436.390661485493,test,3,,,,,,,,,,3433.9068994894624,3434.403587035835,3434.403587035835,3434.420251324773,3434.6539350897074,3435.4040893241763,3435.169653914869,3436.409154765308,right,1,0.40464186668395996,0.2,,,,,,,,,,,s028,001,2024-08-15_09h49.49.957,simplestop_skeleton,2022.2.2,59.8396909362734,
None,None,,,,,,,,,2,0,2,0,0,2,2,3,,,,,,,,,3436.391092568636,go,squareblack.png,right,0.2,,,,,,,,,,,,,,,0.0012934133410453796,0.4894816651940346,,3438.893271714449,test,3,,,,,,,,,,3436.409154765308,3436.9064277261496,3436.9064277261496,3436.9229943603277,3437.106544598937,3437.907079204917,3437.60715392977,3438.9117701649666,right,1,0.48839233815670013,0.2,,,,,,,,,,,s028,001,2024-08-15_09h49.49.957,simplestop_skeleton,2022.2.2,59.8396909362734,
$currentCorrectResponse,$currentGoStim,,,,,,,,,2,0,2,0,0,3,3,0,,,,,,,,,3438.8937131538987,go,squareblack.png,right,0.2,,,,,,,,,,,,,,,0.001265108585357666,0.4895455464720726,,3441.3957903906703,test,3,,,,,,,,,,3438.9117701649666,3439.4091486409307,3439.4091486409307,3439.425845980644,3439.6092496439815,3440.409793920815,3440.108488112688,3441.4168019145727,right,1,0.39089661091566086,0.2,,,,,,,,,,,s028,001,2024-08-15_09h49.49.957,simplestop_skeleton,2022.2.2,59.8396909362734,
None,None,,,,,,,,,2,0,2,0,1,0,4,2,,,,,,,,,3441.396231710911,go,circleblack.png,left,0.2,,,,,,,,,,,,,,,0.004434935748577118,0.4898776412010193,,3443.898618198931,test,3,,,,,,,,,,3441.4168019145727,3441.912000924349,3441.912000924349,3441.9286852553487,3442.112133361399,3442.912423223257,3442.6113019660115,3443.9177880212665,left,1,0.34777751564979553,0.2,,,,,,,,,,,s028,001,2024-08-15_09h49.49.957,simplestop_skeleton,2022.2.2,59.8396909362734,
$currentCorrectResponse,$currentGoStim,,,,,,,,,2,0,2,0,1,1,5,0,,,,,,,,,3443.8990630358458,go,circleblack.png,left,0.2,,,,,,,,,,,,,,,0.0013454332947731018,0.4894048944115639,,3446.4012606441975,test,3,,,,,,,,,,3443.9177880212665,3444.4145700484514,3444.4145700484514,3444.431241437793,3444.6135583892465,3445.4156452193856,3445.115291558206,3446.4203182160854,left,1,0.36470119655132294,0.2,,,,,,,,,,,s028,001,2024-08-15_09h49.49.957,simplestop_skeleton,2022.2.2,59.8396909362734,
None,None,,,,,,,,,2,0,2,0,1,2,6,1,,,,,,,,,3446.401705481112,go,circleblack.png,left,0.2,,,,,,,,,,,,,,,0.0012552589178085327,0.48974426090717316,,3448.9047077447176,test,3,,,,,,,,,,3446.4203182160854,3446.917346596718,3446.917346596718,3446.934145614505,3447.117703549564,3447.9179443344474,3447.6167783141136,3448.923911742866,left,1,0.32282041758298874,0.2,,,,,,,,,,,s028,001,2024-08-15_09h49.49.957,simplestop_skeleton,2022.2.2,59.8396909362734,
None,None,,,,,,,,,2,0,2,0,1,3,7,3,,,,,,,,,3448.9051495194435,go,squareblack.png,right,0.2,,,,,,,,,,,,,,,0.0018045604228973389,0.4892355725169182,,3451.406949095428,test,3,,,,,,,,,,3448.923911742866,3449.42046187073,3449.42046187073,3449.436973065138,3449.6204730942845,3450.4216117560863,3450.1204471215606,3451.4262989759445,right,1,0.41443605720996857,0.2,,,,,,,,,,,s028,001,2024-08-15_09h49.49.957,simplestop_skeleton,2022.2.2,59.8396909362734,
None,None,,,,,,,,,2,0,2,0,2,0,8,3,,,,,,,,,3451.4073902219534,stop,circleblack.png,left,0.2,,,,,,,,,,,,,,,0.0017815753817558289,0.48999832570552826,0.6904062852263451,3453.9095342606306,test,3,,,,,,,,,,3451.4262989759445,3451.923124656081,3451.923124656081,3451.939647644758,3452.1231225430965,3452.9236069768667,3452.6228948384523,3453.929192684591,right,0,0.3922501653432846,0.15,,,,,,,,,,,s028,001,2024-08-15_09h49.49.957,simplestop_skeleton,2022.2.2,59.8396909362734,
None,None,,,,,,,,,2,0,2,0,2,1,9,1,,,,,,,,,3453.909964427352,stop,squareblack.png,right,0.15,,,,,,,,,,,,,,,0.0017705485224723816,0.48956699669361115,0.6397750079631805,3456.412544183433,test,3,,,,,,,,,,3453.929192684591,3454.4258242323995,3454.4258242323995,3454.44248572737,3454.5758095532656,3455.426953203976,3455.076522603631,3456.4318740591407,None,0,,0.2,,,,,,,,,,,s028,001,2024-08-15_09h49.49.957,simplestop_skeleton,2022.2.2,59.8396909362734,
$currentCorrectResponse,$currentGoStim,,,,,,,,,2,0,2,0,2,2,10,0,,,,,,,,,3456.412984125316,go,circleblack.png,left,0.2,,,,,,,,,,,,,,,0.0017400458455085754,0.4894959479570389,,3458.91526645422,test,3,,,,,,,,,,3456.4318740591407,3456.9283475652337,3456.9283475652337,3456.9451661109924,3457.1288170069456,3457.929034344852,3457.627812281251,3458.9339266717434,left,1,0.3511844500899315,0.2,,,,,,,,,,,s028,001,2024-08-15_09h49.49.957,simplestop_skeleton,2022.2.2,59.8396909362734,
None,None,,,,,,,,,2,0,2,0,2,3,11,1,,,,,,,,,3458.9157002344728,stop,circleblack.png,left,0.2,,,,,,,,,,,,,,,0.0012723207473754883,0.48986923694610596,0.6903774365782738,3461.4184308201075,test,3,,,,,,,,,,3458.9339266717434,3459.431378811598,3459.431378811598,3459.4478078708053,3459.6316704675555,3460.4320013672113,3460.1309610903263,3461.43741799891,left,1,0.37599141895771027,0.15,,,,,,,,,,,s028,001,2024-08-15_09h49.49.957,simplestop_skeleton,2022.2.2,59.8396909362734,
$currentCorrectResponse,$currentGoStim,,,,,,,,,2,0,2,0,3,0,12,0,,,,,,,,,3461.418856561184,go,circleblack.png,left,0.15,,,,,,,,,,,,,,,0.0013797283172607422,0.4892785772681236,,3463.920836381614,test,3,,,,,,,,,,3461.43741799891,3461.934306114912,3461.934306114912,3461.950639002025,3462.0844208970666,3462.9345562383533,3462.5834069922566,3463.9399785771966,left,1,0.3448697403073311,0.15,,,,,,,,,,,s028,001,2024-08-15_09h49.49.957,simplestop_skeleton,2022.2.2,59.8396909362734,
None,None,,,,,,,,,2,0,2,0,3,1,13,1,,,,,,,,,3463.9212844893336,go,squareblack.png,right,0.15,,,,,,,,,,,,,,,0.0015994608402252197,0.4894043728709221,,3466.4240863248706,test,3,,,,,,,,,,3463.9399785771966,3464.4369416609406,3464.4369416609406,3464.4536408260465,3464.5874849930406,3465.437340348959,3465.086184181273,3466.4436188563704,right,1,0.33963415026664734,0.15,,,,,,,,,,,s028,001,2024-08-15_09h49.49.957,simplestop_skeleton,2022.2.2,59.8396909362734,
None,None,,,,,,,,,2,0,2,0,3,2,14,2,,,,,,,,,3466.4245262145996,go,circleblack.png,left,0.15,,,,,,,,,,,,,,,0.0021190866827964783,0.4895486533641815,,3468.9265109822154,test,3,,,,,,,,,,3466.4436188563704,3466.9395622760057,3466.9395622760057,3466.9566058963537,3467.0898557007313,3467.940088801086,3467.5902987867594,3468.9463070854545,left,1,0.40201353281736374,0.15,,,,,,,,,,,s028,001,2024-08-15_09h49.49.957,simplestop_skeleton,2022.2.2,59.8396909362734,
None,None,,,,,,,,,2,0,2,0,3,3,15,2,,,,,,,,,3468.9269545450807,go,squareblack.png,right,0.15,,,,,,,,,,,,,,,0.0018011480569839478,0.48944494128227234,,3471.4292971640825,test,3,,,,,,,,,,3468.9463070854545,3469.4423951134086,3469.4423951134086,3469.4589177146554,3469.5929190814495,3470.443104803562,3470.093055307865,3471.448957256973,right,1,0.4103671908378601,0.15,,,,,,,,,,,s028,001,2024-08-15_09h49.49.957,simplestop_skeleton,2022.2.2,59.8396909362734,
None,None,,,,,,,,,2,0,2,0,4,0,16,3,,,,,,,,,3471.429738484323,stop,circleblack.png,left,0.15,,,,,,,,,,,,,,,0.0018868818879127502,0.4895600602030754,0.6397317126393318,3473.9318526387215,test,3,,,,,,,,,,3471.448957256973,3471.9450488761067,3471.9450488761067,3471.9619474709034,3472.0952995941043,3472.946127384901,3472.5959150493145,3473.9508439302444,None,0,,0.2,,,,,,,,,,,s028,001,2024-08-15_09h49.49.957,simplestop_skeleton,2022.2.2,59.8396909362734,
$currentCorrectResponse,$currentGoStim,,,,,,,,,2,0,2,0,4,1,17,0,,,,,,,,,3473.932303071022,stop,squareblack.png,right,0.2,,,,,,,,,,,,,,,0.0016379207372665405,0.4897495433688164,0.6886308491230011,3476.434742078185,test,3,,,,,,,,,,3473.9508439302444,3474.4478532224894,3474.4478532224894,3474.4644669145346,3474.6468185707927,3475.4490080848336,3475.1489480361342,3476.4537881836295,None,0,,0.25,,,,,,,,,,,s028,001,2024-08-15_09h49.49.957,simplestop_skeleton,2022.2.2,59.8396909362734,
None,None,,,,,,,,,2,0,2,0,4,2,18,2,,,,,,,,,3476.4351801872253,stop,circleblack.png,left,0.25,,,,,,,,,,,,,,,0.0017823800444602966,0.4899650141596794,0.7400555163621902,3478.9373575672507,test,3,,,,,,,,,,3476.4537881836295,3476.9505441635847,3476.9505441635847,3476.967491619289,3477.2010391503572,3477.950361736119,3477.7004698589444,3478.956426590681,left,1,0.3852114602923393,0.2,,,,,,,,,,,s028,001,2024-08-15_09h49.49.957,simplestop_skeleton,2022.2.2,59.8396909362734,
None,None,,,,,,,,,2,0,2,0,4,3,19,1,,,,,,,,,3478.9378669038415,go,circleblack.png,left,0.2,,,,,,,,,,,,,,,0.0013810992240905762,0.489928163588047,,3481.4403960481286,test,3,,,,,,,,,,3478.956426590681,3479.4535307213664,3479.4535307213664,3479.470209658146,3479.6539123132825,3480.453792348504,3480.154107645154,3481.459886819124,left,1,0.46784166991710663,0.2,,,,,,,,,,,s028,001,2024-08-15_09h49.49.957,simplestop_skeleton,2022.2.2,59.8396909362734,
None,None,,,,,,,,,2,0,2,0,5,0,20,3,,,,,,,,,3481.4410614073277,go,squareblack.png,right,0.2,,,,,,,,,,,,,,,0.0022460296750068665,0.4891161769628525,,3483.9426164105535,test,3,,,,,,,,,,3481.459886819124,3481.9562978744507,3481.9562978744507,3481.9730981066823,3482.1565994396806,3482.9567941725254,3482.6557293087244,3483.96146029979,right,1,0.38787665218114853,0.2,,,,,,,,,,,s028,001,2024-08-15_09h49.49.957,simplestop_skeleton,2022.2.2,59.8396909362734,
None,None,,,,,,,,,2,0,2,0,5,1,21,2,,,,,,,,,3483.943062901497,stop,squareblack.png,right,0.2,,,,,,,,,,,,,,,0.0012640058994293213,0.4898416996002197,0.6901866868138313,3486.4457337111235,test,3,,,,,,,,,,3483.96146029979,3484.458760470152,3484.458760470152,3484.4755801334977,3484.6590836793184,3485.4593498185277,3485.158272817731,3486.4646577239037,right,1,0.3728654831647873,0.15,,,,,,,,,,,s028,001,2024-08-15_09h49.49.957,simplestop_skeleton,2022.2.2,59.8396909362734,
$currentCorrectResponse,$currentGoStim,,,,,,,,,2,0,2,0,5,2,22,0,,,,,,,,,3486.446166269481,go,squareblack.png,right,0.15,,,,,,,,,,,,,,,0.0013675019145011902,0.4895016849040985,,3488.948432415724,test,3,,,,,,,,,,3486.4646577239037,3486.96164342016,3486.96164342016,3486.9783153384924,3487.111675173044,3487.962456293404,3487.6112719401717,3488.9678564444184,right,1,0.35846179723739624,0.15,,,,,,,,,,,s028,001,2024-08-15_09h49.49.957,simplestop_skeleton,2022.2.2,59.8396909362734,
None,None,,,,,,,,,2,0,2,0,5,3,23,3,,,,,,,,,3488.9488740190864,go,circleblack.png,left,0.15,,,,,,,,,,,,,,,0.0018907338380813599,0.48987041413784027,,3491.451244086027,test,3,,,,,,,,,,3488.9678564444184,3489.4643767997622,3489.4643767997622,3489.481150493026,3489.614623300731,3490.4649962484837,3490.1150866001844,3491.470715381205,left,1,0.39096617698669434,0.15,,,,,,,,,,,s028,001,2024-08-15_09h49.49.957,simplestop_skeleton,2022.2.2,59.8396909362734,
None,None,,,,,,,,,2,0,2,0,6,0,24,3,,,,,,,,,3491.451683625579,stop,circleblack.png,left,0.15,,,,,,,,,,,,,,,0.0014715418219566345,0.48986606299877167,0.6395521983504295,3493.9539981260896,test,3,,,,,,,,,,3491.470715381205,3491.9672510400414,3491.9672510400414,3491.9839939177036,3492.117440417409,3492.968064278364,3492.616494975984,3493.9731727540493,right,0,0.31829074025154114,0.1,,,,,,,,,,,s028,001,2024-08-15_09h49.49.957,simplestop_skeleton,2022.2.2,59.8396909362734,
None,None,,,,,,,,,2,0,2,0,6,1,25,2,,,,,,,,,3493.9544311091304,go,circleblack.png,left,0.1,,,,,,,,,,,,,,,0.0013950467109680176,0.48952963203191757,,3496.456647723913,test,3,,,,,,,,,,3493.9731727540493,3494.469883225858,3494.469883225858,3494.48687966913,3494.5702812075615,3495.470206975937,3495.0707385912538,3496.476308763027,left,1,0.3719559833407402,0.1,,,,,,,,,,,s028,001,2024-08-15_09h49.49.957,simplestop_skeleton,2022.2.2,59.8396909362734,
$currentCorrectResponse,$currentGoStim,,,,,,,,,2,0,2,0,6,2,26,0,,,,,,,,,3496.4570861905813,go,circleblack.png,left,0.1,,,,,,,,,,,,,,,0.0014098882675170898,0.48982200026512146,,3498.959530159831,test,3,,,,,,,,,,3496.476308763027,3496.9729810357094,3496.9729810357094,3496.9894983917475,3497.0731894671917,3497.9733444154263,3497.5734006017447,3498.979532495141,left,1,0.38961224257946014,0.1,,,,,,,,,,,s028,001,2024-08-15_09h49.49.957,simplestop_skeleton,2022.2.2,59.8396909362734,
None,None,,,,,,,,,2,0,2,0,6,3,27,3,,,,,,,,,3498.959968201816,stop,circleblack.png,left,0.1,,,,,,,,,,,,,,,0.0015372112393379211,0.4890209436416626,0.5893035009503365,3501.462552845478,test,3,,,,,,,,,,3498.979532495141,3499.47569976002,3499.47569976002,3499.492111630738,3499.5756375566125,3500.476719081402,3500.076151907444,3501.4876080676913,None,0,,0.15,,,,,,,,,,,s028,001,2024-08-15_09h49.49.957,simplestop_skeleton,2022.2.2,59.8396909362734,
None,None,,,,,,,,,2,0,2,0,7,0,28,3,,,,,,,,,3501.4629942551255,go,squareblack.png,right,0.15,,,,,,,,,,,,,,,0.007888689637184143,0.4896618723869324,,3503.9649939015508,test,3,,,,,,,,,,3501.4876080676913,3501.9784192070365,3501.9784192070365,3501.9950396046042,3502.1284966617823,3502.9786426201463,3502.6275499537587,3503.984096288681,right,1,0.33953578025102615,0.15,,,,,,,,,,,s028,001,2024-08-15_09h49.49.957,simplestop_skeleton,2022.2.2,59.8396909362734,
None,None,,,,,,,,,2,0,2,0,7,1,29,1,,,,,,,,,3503.9654407575727,go,squareblack.png,right,0.15,,,,,,,,,,,,,,,0.0013466253876686096,0.48973871022462845,,3506.4678394272923,test,3,,,,,,,,,,3503.984096288681,3504.4809361696243,3504.4809361696243,3504.497747436166,3504.6297732517123,3505.4820636734366,3505.132038831711,3506.486949287355,right,1,0.3171689733862877,0.15,,,,,,,,,,,s028,001,2024-08-15_09h49.49.957,simplestop_skeleton,2022.2.2,59.8396909362734,
None,None,,,,,,,,,2,0,2,0,7,2,30,1,,,,,,,,,3506.4682821929455,go,squareblack.png,right,0.15,,,,,,,,,,,,,,,0.0013438090682029724,0.4893335551023483,,3508.970608815551,test,3,,,,,,,,,,3506.486949287355,3506.9839481264353,3506.9839481264353,3507.000475488603,3507.133834116161,3507.9843585193157,3507.633113130927,3508.9893470183015,right,1,0.3124034181237221,0.15,,,,,,,,,,,s028,001,2024-08-15_09h49.49.957,simplestop_skeleton,2022.2.2,59.8396909362734,
None,None,,,,,,,,,2,0,2,0,7,3,31,1,,,,,,,,,3508.9710506647825,stop,squareblack.png,right,0.15,,,,,,,,,,,,,,,0.0012541338801383972,0.48968150466680527,0.6398868784308434,3511.4733328148723,test,3,,,,,,,,,,3508.9893470183015,3509.4867084622383,3509.4867084622383,3509.5032525360584,3509.6366528198123,3510.4872023686767,3510.1358555927873,3511.492397390306,right,1,0.30047114193439484,0.1,,,,,,,,,,,s028,001,2024-08-15_09h49.49.957,simplestop_skeleton,2022.2.2,59.8396909362734,
None,None,,,,,,,,,2,0,2,0,8,0,32,3,,,,,,,,,3511.4737617895007,stop,squareblack.png,right,0.1,,,,,,,,,,,,,,,0.0013183578848838806,0.48954901844263077,0.5897493809461594,3513.9760718792677,test,3,,,,,,,,,,3511.492397390306,3511.989387564361,3511.989387564361,3512.0063880309463,3512.0895597040653,3512.9903562813997,3512.5898308083415,3513.994716845453,None,0,,0.15,,,,,,,,,,,s028,001,2024-08-15_09h49.49.957,simplestop_skeleton,2022.2.2,59.8396909362734,
$currentCorrectResponse,$currentGoStim,,,,,,,,,2,0,2,0,8,1,33,0,,,,,,,,,3513.9765213653445,go,squareblack.png,right,0.15,,,,,,,,,,,,,,,0.0012612566351890564,0.489673912525177,,3516.478706896305,test,3,,,,,,,,,,3513.994716845453,3514.4924252405763,3514.4924252405763,3514.5086861625314,3514.6421052515507,3515.4925721660256,3515.142642684281,3516.5046169757843,right,1,0.44057561457157135,0.15,,,,,,,,,,,s028,001,2024-08-15_09h49.49.957,simplestop_skeleton,2022.2.2,59.8396909362734,
None,None,,,,,,,,,2,0,2,0,8,2,34,2,,,,,,,,,3516.47913929075,go,circleblack.png,left,0.15,,,,,,,,,,,,,,,0.00862189382314682,0.4891067296266556,,3518.9814785569906,test,3,,,,,,,,,,3516.5046169757843,3516.9946064576507,3516.9946064576507,3517.011471249163,3517.1447436138988,3517.995499111712,3517.6456219628453,3519.000408872962,left,1,0.39844779670238495,0.15,,,,,,,,,,,s028,001,2024-08-15_09h49.49.957,simplestop_skeleton,2022.2.2,59.8396909362734,
None,None,,,,,,,,,2,0,2,0,8,3,35,1,,,,,,,,,3518.9819220229983,go,circleblack.png,left,0.15,,,,,,,,,,,,,,,0.0013784393668174744,0.49008088558912277,,3521.484239883721,test,3,,,,,,,,,,3519.000408872962,3519.4975383654237,3519.4975383654237,3519.5145940482616,3519.6476140469313,3520.4985105916858,3520.1471160426736,3521.5031572654843,left,1,0.3626284748315811,0.15,,,,,,,,,,,s028,001,2024-08-15_09h49.49.957,simplestop_skeleton,2022.2.2,59.8396909362734,
None,None,,,,,,,,,2,0,2,0,9,0,36,2,,,,,,,,,3521.484684124589,go,circleblack.png,left,0.15,,,,,,,,,,,,,,,0.001317545771598816,0.4897119700908661,,3523.9872570112348,test,3,,,,,,,,,,3521.5031572654843,3522.0006458237767,3522.0006458237767,3522.017016671598,3522.1505739614367,3523.001285493374,3522.6499794870615,3524.0067227706313,left,1,0.3333744928240776,0.15,,,,,,,,,,,s028,001,2024-08-15_09h49.49.957,simplestop_skeleton,2022.2.2,59.8396909362734,
$currentCorrectResponse,$currentGoStim,,,,,,,,,2,0,2,0,9,1,37,0,,,,,,,,,3523.987686738372,stop,squareblack.png,right,0.15,,,,,,,,,,,,,,,0.0018947795033454895,0.4900362193584442,0.6395823359489441,3526.490079715848,test,3,,,,,,,,,,3524.0067227706313,3524.5031003952026,3524.5031003952026,3524.5199287831783,3524.653433814645,3525.503654755652,3525.153699055314,3526.509468406439,right,1,0.38928478211164474,0.1,,,,,,,,,,,s028,001,2024-08-15_09h49.49.957,simplestop_skeleton,2022.2.2,59.8396909362734,
None,None,,,,,,,,,2,0,2,0,9,2,38,3,,,,,,,,,3526.490515857935,go,circleblack.png,left,0.1,,,,,,,,,,,,,,,0.0018924996256828308,0.48964180797338486,,3528.9926778152585,test,3,,,,,,,,,,3526.509468406439,3527.006000123918,3527.006000123918,3527.0227710679173,3527.105966448784,3528.006286755204,3527.606561012566,3529.011536717415,left,1,0.4129166826605797,0.1,,,,,,,,,,,s028,001,2024-08-15_09h49.49.957,simplestop_skeleton,2022.2.2,59.8396909362734,
$currentCorrectResponse,$currentGoStim,,,,,,,,,2,0,2,0,9,3,39,0,,,,,,,,,3528.9931107759476,stop,circleblack.png,left,0.1,,,,,,,,,,,,,,,0.001395590603351593,0.489519938826561,0.5896739289164543,3531.49547855556,test,3,,,,,,,,,,3529.011536717415,3529.5085925012827,3529.5085925012827,3529.525535494089,3529.608757197857,3530.5095902457833,3530.109314404428,3531.514280408621,None,0,,0.15,,,,,,,,,,,s028,001,2024-08-15_09h49.49.957,simplestop_skeleton,2022.2.2,59.8396909362734,
None,None,,,,,,,,,2,0,2,0,10,0,40,1,,,,,,,,,3531.4959322586656,go,circleblack.png,left,0.15,,,,,,,,,,,,,,,0.001369290053844452,0.4896309971809387,,3533.9980312287807,test,3,,,,,,,,,,3531.514280408621,3532.0115562826395,3532.0115562826395,3532.028020568192,3532.161528222263,3533.0118663087487,3532.66215916723,3534.017416343093,left,1,0.38627007603645325,0.15,,,,,,,,,,,s028,001,2024-08-15_09h49.49.957,simplestop_skeleton,2022.2.2,59.8396909362734,
None,None,,,,,,,,,2,0,2,0,10,1,41,2,,,,,,,,,3533.9984764531255,go,squareblack.png,right,0.15,,,,,,,,,,,,,,,0.0016853958368301392,0.48960738629102707,,3536.5013424381614,test,3,,,,,,,,,,3534.017416343093,3534.5141854435205,3534.5141854435205,3534.5307749658823,3534.662894241512,3535.5152736902237,3535.164748519659,3536.520160958171,left,0,0.34324900060892105,0.15,,,,,,,,,,,s028,001,2024-08-15_09h49.49.957,simplestop_skeleton,2022.2.2,59.8396909362734,
None,None,,,,,,,,,2,0,2,0,10,2,42,3,,,,,,,,,3536.5017790719867,go,squareblack.png,right,0.15,,,,,,,,,,,,,,,0.001424439251422882,0.48938439041376114,,3539.003455348313,test,3,,,,,,,,,,3536.520160958171,3537.0168765857816,3537.0168765857816,3537.033556714654,3537.167114444077,3538.0176196992397,3537.6675754263997,3539.0229492262006,right,1,0.42759891599416733,0.15,,,,,,,,,,,s028,001,2024-08-15_09h49.49.957,simplestop_skeleton,2022.2.2,59.8396909362734,
$currentCorrectResponse,$currentGoStim,,,,,,,,,2,0,2,0,10,3,43,0,,,,,,,,,3539.0038840919733,go,circleblack.png,left,0.15,,,,,,,,,,,,,,,0.0018871799111366272,0.489988312125206,,3541.5062417909503,test,3,,,,,,,,,,3539.0229492262006,3539.519778355956,3539.519778355956,3539.536486007273,3539.669722504914,3540.5194562226534,3540.170254483819,3541.5254710763693,left,1,0.4746410995721817,0.15,,,,,,,,,,,s028,001,2024-08-15_09h49.49.957,simplestop_skeleton,2022.2.2,59.8396909362734,
None,None,,,,,,,,,2,0,2,0,11,0,44,2,,,,,,,,,3541.5066727250814,go,squareblack.png,right,0.15,,,,,,,,,,,,,,,0.0017455220222473145,0.48966535925865173,,3544.0092453584075,test,3,,,,,,,,,,3541.5254710763693,3542.0225797966123,3542.0225797966123,3542.0390595793724,3542.172481171787,3543.022129558027,3542.6730265170336,3544.0280280336738,right,1,0.5902561470866203,0.15,,,,,,,,,,,s028,001,2024-08-15_09h49.49.957,simplestop_skeleton,2022.2.2,59.8396909362734,
$currentCorrectResponse,$currentGoStim,,,,,,,,,2,0,2,0,11,1,45,0,,,,,,,,,3544.0096805915236,stop,squareblack.png,right,0.15,,,,,,,,,,,,,,,0.0013358816504478455,0.48968421667814255,0.639835923910141,3546.5120401382446,test,3,,,,,,,,,,3544.0280280336738,3544.5253152772784,3544.5253152772784,3544.5420466586947,3544.67547955364,3545.5258145332336,3545.174630343914,3546.5332673713565,right,1,0.3508777543902397,0.1,,,,,,,,,,,s028,001,2024-08-15_09h49.49.957,simplestop_skeleton,2022.2.2,59.8396909362734,
None,None,,,,,,,,,2,0,2,0,11,2,46,2,,,,,,,,,3546.512484550476,go,squareblack.png,right,0.1,,,,,,,,,,,,,,,0.0019279718399047852,0.4874367341399193,,3549.014609120786,test,3,,,,,,,,,,3546.5332673713565,3547.028066277504,3547.028066277504,3547.0445616319776,3547.128196977079,3548.0288693383336,3547.6285863742232,3549.034159064293,right,1,0.3390338122844696,0.1,,,,,,,,,,,s028,001,2024-08-15_09h49.49.957,simplestop_skeleton,2022.2.2,59.8396909362734,
None,None,,,,,,,,,2,0,2,0,11,3,47,2,,,,,,,,,3549.0150580480695,stop,circleblack.png,left,0.1,,,,,,,,,,,,,,,0.0020026937127113342,0.4894488751888275,0.5899088829755783,3551.517387546599,test,3,,,,,,,,,,3549.034159064293,3549.5306206271052,3549.5306206271052,3549.5473066717386,3549.6307470425963,3550.5311204344034,3550.131296135485,3551.5329304784536,left,1,0.3860509693622589,0.05,,,,,,,,,,,s028,001,2024-08-15_09h49.49.957,simplestop_skeleton,2022.2.2,59.8396909362734,
