corrGoResp,shape,practiceBlocks.thisRepN,practiceBlocks.thisTrialN,practiceBlocks.thisN,practiceBlocks.thisIndex,practiceTrials.thisRepN,practiceTrials.thisTrialN,practiceTrials.thisN,practiceTrials.thisIndex,stopBlocks.thisRepN,stopBlocks.thisTrialN,stopBlocks.thisN,stopBlocks.thisIndex,testTrials.thisRepN,testTrials.thisTrialN,testTrials.thisN,testTrials.thisIndex,stopPracTrialList,Test Block: 1,welcome.started,start_exp.started,start_exp.keys,start_exp.rt,instrStopText.started,start_prac.started,StartTrialTimeStamp,trialType,goStim,correctResponse,ssd,fixation.started,rules.started,goStim.started,goResp.started,fixation.stopped,stopSignal.started,stopSignal.stopped,goStim.stopped,goResp.stopped,rules.stopped,goResp.keys,goResp.corr,text.started,rules_2.started,fixationOnset,goStimOnset,stopSignalOnset,EndTrialTimeStamp,Phase,Block,goResp.rt,text.stopped,rules_2.stopped,text_5.started,key_resp_3.started,key_resp_3.keys,key_resp_3.rt,key_resp.started,testText.started,test_fixation.started,goStim_test.started,goResp_test.started,test_fixation.stopped,stopSignal_test.started,stopSignal_test.stopped,goStim_test.stopped,goResp_test.stopped,goResp_test.keys,goResp_test.corr,goResp_test.rt,EndingSSD,text_6.started,key_resp_4.started,key_resp_4.keys,key_resp_4.rt,Test Block: 2,Test Block: 3,ending_text.started,end_resp.started,end_resp.keys,end_resp.rt,participant,session,date,expName,psychopyVersion,frameRate,
,,,,,,,,,,,,,,,,,,"[{'fileName': 'circleblack.png', 'correct_response': 'left', 'condition': 'stop'}, {'fileName': 'squareblack.png', 'correct_response': 'right', 'condition': 'go'}, {'fileName': 'circleblack.png', 'correct_response': 'left', 'condition': 'stop'}, {'fileName': 'squareblack.png', 'correct_response': 'right', 'condition': 'stop'}, {'fileName': 'circleblack.png', 'correct_response': 'left', 'condition': 'go'}, {'fileName': 'squareblack.png', 'correct_response': 'right', 'condition': 'stop'}, {'fileName': 'circleblack.png', 'correct_response': 'left', 'condition': 'go'}, {'fileName': 'circleblack.png', 'correct_response': 'left', 'condition': 'go'}, {'fileName': 'squareblack.png', 'correct_response': 'right', 'condition': 'go'}, {'fileName': 'squareblack.png', 'correct_response': 'right', 'condition': 'go'}, {'fileName': 'circleblack.png', 'correct_response': 'left', 'condition': 'go'}, {'fileName': 'squareblack.png', 'correct_response': 'right', 'condition': 'go'}, {'fileName': 'squareblack.png', 'correct_response': 'right', 'condition': 'stop'}, {'fileName': 'squareblack.png', 'correct_response': 'right', 'condition': 'go'}, {'fileName': 'squareblack.png', 'correct_response': 'right', 'condition': 'go'}, {'fileName': 'circleblack.png', 'correct_response': 'left', 'condition': 'stop'}, {'fileName': 'circleblack.png', 'correct_response': 'left', 'condition': 'stop'}, {'fileName': 'squareblack.png', 'correct_response': 'right', 'condition': 'go'}, {'fileName': 'circleblack.png', 'correct_response': 'left', 'condition': 'go'}, {'fileName': 'circleblack.png', 'correct_response': 'left', 'condition': 'go'}, {'fileName': 'circleblack.png', 'correct_response': 'left', 'condition': 'go'}, {'fileName': 'circleblack.png', 'correct_response': 'left', 'condition': 'go'}, {'fileName': 'squareblack.png', 'correct_response': 'right', 'condition': 'go'}, {'fileName': 'squareblack.png', 'correct_response': 'right', 'condition': 'stop'}]","[{'fileName': 'circleblack.png', 'correct_response': 'left', 'condition': 'go'}, {'fileName': 'squareblack.png', 'correct_response': 'right', 'condition': 'go'}, {'fileName': 'circleblack.png', 'correct_response': 'left', 'condition': 'stop'}, {'fileName': 'squareblack.png', 'correct_response': 'right', 'condition': 'go'}, {'fileName': 'circleblack.png', 'correct_response': 'left', 'condition': 'go'}, {'fileName': 'circleblack.png', 'correct_response': 'left', 'condition': 'go'}, {'fileName': 'circleblack.png', 'correct_response': 'left', 'condition': 'go'}, {'fileName': 'squareblack.png', 'correct_response': 'right', 'condition': 'go'}, {'fileName': 'circleblack.png', 'correct_response': 'left', 'condition': 'stop'}, {'fileName': 'squareblack.png', 'correct_response': 'right', 'condition': 'go'}, {'fileName': 'squareblack.png', 'correct_response': 'right', 'condition': 'stop'}, {'fileName': 'squareblack.png', 'correct_response': 'right', 'condition': 'stop'}, {'fileName': 'squareblack.png', 'correct_response': 'right', 'condition': 'go'}, {'fileName': 'circleblack.png', 'correct_response': 'left', 'condition': 'stop'}, {'fileName': 'squareblack.png', 'correct_response': 'right', 'condition': 'stop'}, {'fileName': 'squareblack.png', 'correct_response': 'right', 'condition': 'go'}, {'fileName': 'squareblack.png', 'correct_response': 'right', 'condition': 'go'}, {'fileName': 'squareblack.png', 'correct_response': 'right', 'condition': 'go'}, {'fileName': 'circleblack.png', 'correct_response': 'left', 'condition': 'go'}, {'fileName': 'circleblack.png', 'correct_response': 'left', 'condition': 'go'}, {'fileName': 'circleblack.png', 'correct_response': 'left', 'condition': 'stop'}, {'fileName': 'circleblack.png', 'correct_response': 'left', 'condition': 'go'}, {'fileName': 'circleblack.png', 'correct_response': 'left', 'condition': 'go'}, {'fileName': 'squareblack.png', 'correct_response': 'right', 'condition': 'stop'}, {'fileName': 'circleblack.png', 'correct_response': 'left', 'condition': 'stop'}, {'fileName': 'circleblack.png', 'correct_response': 'left', 'condition': 'go'}, {'fileName': 'circleblack.png', 'correct_response': 'left', 'condition': 'go'}, {'fileName': 'circleblack.png', 'correct_response': 'left', 'condition': 'go'}, {'fileName': 'circleblack.png', 'correct_response': 'left', 'condition': 'stop'}, {'fileName': 'squareblack.png', 'correct_response': 'right', 'condition': 'go'}, {'fileName': 'squareblack.png', 'correct_response': 'right', 'condition': 'go'}, {'fileName': 'squareblack.png', 'correct_response': 'right', 'condition': 'stop'}, {'fileName': 'circleblack.png', 'correct_response': 'left', 'condition': 'go'}, {'fileName': 'squareblack.png', 'correct_response': 'right', 'condition': 'stop'}, {'fileName': 'squareblack.png', 'correct_response': 'right', 'condition': 'go'}, {'fileName': 'squareblack.png', 'correct_response': 'right', 'condition': 'go'}, {'fileName': 'squareblack.png', 'correct_response': 'right', 'condition': 'go'}, {'fileName': 'circleblack.png', 'correct_response': 'left', 'condition': 'go'}, {'fileName': 'circleblack.png', 'correct_response': 'left', 'condition': 'go'}, {'fileName': 'squareblack.png', 'correct_response': 'right', 'condition': 'stop'}, {'fileName': 'circleblack.png', 'correct_response': 'left', 'condition': 'stop'}, {'fileName': 'squareblack.png', 'correct_response': 'right', 'condition': 'go'}, {'fileName': 'circleblack.png', 'correct_response': 'left', 'condition': 'go'}, {'fileName': 'squareblack.png', 'correct_response': 'right', 'condition': 'go'}, {'fileName': 'circleblack.png', 'correct_response': 'left', 'condition': 'go'}, {'fileName': 'circleblack.png', 'correct_response': 'left', 'condition': 'stop'}, {'fileName': 'squareblack.png', 'correct_response': 'right', 'condition': 'go'}, {'fileName': 'squareblack.png', 'correct_response': 'right', 'condition': 'stop'}]",4080.5666251704097,4080.5666251704097,return,2.3900007121264935,,,,,,,,,,,,,,,,,,,,,,,,,,,,,,,,,,,,,,,,,,,,,,,,,,,,,,,,,,,s023,001,2024-07-26_16h07.41.452,simplestop_skeleton,2022.2.2,60.01736383330085,
$currentCorrectResponse,$currentGoStim,0,0,0,0,0,0,0,0,,,,,,,,,,,,,,,4083.0094204470515,4083.0094204470515,4134.739186152816,stop,circleblack.png,left,0.35,4134.765952348709,4134.765952348709,4135.250852294266,4135.250852294266,4135.26718538627,4135.600954838097,4136.101309880614,4136.251505896449,4137.25269273296,4137.2695885151625,None,0,4137.2695885151625,4137.2695885151625,0.0035070329904556274,0.4851987101137638,0.835032269358635,4137.754526011646,practice,1,,,,,,,,,,,,,,,,,,,,,,,,,,,,,,,,s023,001,2024-07-26_16h07.41.452,simplestop_skeleton,2022.2.2,60.01736383330085,
None,None,0,0,0,0,0,1,1,1,,,,,,,,,,,,,,,,,4137.755120951682,go,squareblack.png,right,0.4,4137.775323621929,4137.775323621929,4138.270397152752,4138.270397152752,4138.28725656122,4138.670871309936,4139.170128315687,4139.2701112143695,4140.273138336837,4140.289762418717,left,0,4140.289762418717,4140.289762418717,0.0038628801703453064,0.4895292706787586,0.88970947265625,4140.789333671331,practice,1,0.208438940346241,,,,,,,,,,,,,,,,,,,,,,,,,,,,,,,s023,001,2024-07-26_16h07.41.452,simplestop_skeleton,2022.2.2,60.01736383330085,
$currentCorrectResponse,$currentGoStim,0,0,0,0,0,2,2,0,,,,,,,,,,,,,,,,,4140.789763081819,stop,circleblack.png,left,0.4,4140.806897953153,4140.806897953153,4141.305800478905,4141.305800478905,4141.322470925748,4141.706059236079,4142.206786099821,4142.306729629636,4143.307815734297,4143.307815734297,left,1,4143.307815734297,4143.307815734297,0.0016608387231826782,0.4899694360792637,0.8902900405228138,4143.793852966279,practice,1,0.2913209795951843,,,,,,,,,,,,,,,,,,,,,,,,,,,,,,,s023,001,2024-07-26_16h07.41.452,simplestop_skeleton,2022.2.2,60.01736383330085,
None,None,0,0,0,0,0,3,3,2,,,,,,,,,,,,,,,,,4143.794291500002,stop,squareblack.png,right,0.35,4143.8131443969905,4143.8131443969905,4144.310705654323,4144.310705654323,4144.327172268182,4144.660831876099,4145.159958831966,4145.310185667127,4146.311294674873,4146.32791017741,right,1,4146.32791017741,4146.32791017741,0.0015925019979476929,0.48991259559988976,0.8400819413363934,4146.812628723681,practice,1,0.5406738184392452,4146.830025963485,4146.830025963485,,,,,,,,,,,,,,,,,,,,,,,,,,,,,s023,001,2024-07-26_16h07.41.452,simplestop_skeleton,2022.2.2,60.01736383330085,
$currentCorrectResponse,$currentGoStim,0,0,0,0,1,0,4,0,,,,,,,,,,,,,,,,,4146.813047405332,go,circleblack.png,left,0.3,4146.830025963485,4146.830025963485,4147.328941453248,4147.328941453248,4147.346401080489,4147.6293991059065,4148.12972054258,4148.329945895821,4149.331090644002,4149.331090644002,left,1,4149.331090644002,4149.331090644002,0.0017846748232841492,0.4899432882666588,0.7904913164675236,4149.817228306085,practice,1,0.47915003448724747,,,,,,,,,,,,,,,,,,,,,,,,,,,,,,,s023,001,2024-07-26_16h07.41.452,simplestop_skeleton,2022.2.2,60.01736383330085,
None,None,0,0,0,0,1,1,5,2,,,,,,,,,,,,,,,,,4149.817641709,stop,squareblack.png,right,0.3,4149.8374367281795,4149.8374367281795,4150.333740770817,4150.333740770817,4150.350412275642,4150.633969385177,4151.133299015462,4151.333301730454,4152.334655024111,4152.3513120524585,right,1,4152.3513120524585,4152.3513120524585,0.0017419159412384033,0.4900277256965637,0.7903769910335541,4152.835991930217,practice,1,0.3497552014887333,4152.853997077793,4152.853997077793,,,,,,,,,,,,,,,,,,,,,,,,,,,,,s023,001,2024-07-26_16h07.41.452,simplestop_skeleton,2022.2.2,60.01736383330085,
None,None,0,0,0,0,1,2,6,1,,,,,,,,,,,,,,,,,4152.836409699172,go,circleblack.png,left,0.25,4152.853997077793,4152.853997077793,4153.352355323732,4153.352355323732,4153.368999287486,4153.60244397819,4154.103036671877,4154.35332153365,4155.356423031539,4155.356423031539,left,1,4155.356423031539,4155.356423031539,0.0017335452139377594,0.48991767317056656,0.7401328682899475,4155.840424012393,practice,1,0.33279671519994736,,,,,,,,,,,,,,,,,,,,,,,,,,,,,,,s023,001,2024-07-26_16h07.41.452,simplestop_skeleton,2022.2.2,60.01736383330085,
None,None,0,0,0,0,1,3,7,2,,,,,,,,,,,,,,,,,4155.840859156102,go,circleblack.png,left,0.25,4155.859999235719,4155.859999235719,4156.35719262436,4156.35719262436,4156.373744212091,4156.607479315251,4157.106593135744,4157.356684535742,4158.357919398695,4158.374691531062,left,1,4158.374691531062,4158.374691531062,0.0012869574129581451,0.49040449410676956,0.7406485714018345,4158.859304938465,practice,1,0.4151604250073433,4158.876896098256,4158.876896098256,,,,,,,,,,,,,,,,,,,,,,,,,,,,,s023,001,2024-07-26_16h07.41.452,simplestop_skeleton,2022.2.2,60.01736383330085,
None,None,0,0,0,0,2,0,8,1,,,,,,,,,,,,,,,,,4158.859762314707,go,squareblack.png,right,0.25,4158.876896098256,4158.876896098256,4159.37576514855,4159.37576514855,4159.3923156149685,4159.626083791256,4160.126502867788,4160.376705214381,4161.37774078548,4161.37774078548,left,0,4161.37774078548,4161.37774078548,0.0015841014683246613,0.4900495857000351,0.7404117584228516,4161.863740451634,practice,1,0.42684898525476456,,,,,,,,,,,,,,,,,,,,,,,,,,,,,,,s023,001,2024-07-26_16h07.41.452,simplestop_skeleton,2022.2.2,60.01736383330085,
$currentCorrectResponse,$currentGoStim,0,0,0,0,2,1,9,0,,,,,,,,,,,,,,,,,4161.864159591496,go,squareblack.png,right,0.25,4161.883103720844,4161.883103720844,4162.38021364063,4162.38021364063,4162.39715744555,4162.63078392297,4163.129751842469,4163.380072008818,4164.381114598364,4164.3978642858565,right,1,4164.3978642858565,4164.3978642858565,0.0011826902627944946,0.49047303199768066,0.7408188618719578,4164.882559843361,practice,1,0.43475789204239845,4164.900574233383,4164.900574233383,,,,,,,,,,,,,,,,,,,,,,,,,,,,,s023,001,2024-07-26_16h07.41.452,simplestop_skeleton,2022.2.2,60.01736383330085,
None,None,0,0,0,0,2,2,10,3,,,,,,,,,,,,,,,,,4164.883011955768,go,circleblack.png,left,0.25,4164.900574233383,4164.900574233383,4165.398925285786,4165.398925285786,4165.415614873171,4165.649323511869,4166.149731468409,4166.400005958974,4167.400998648256,4167.400998648256,left,1,4167.400998648256,4167.400998648256,0.001892734318971634,0.4901331104338169,0.740980714559555,4167.887112215161,practice,1,0.40164150297641754,,,,,,,,,,,,,,,,,,,,,,,,,,,,,,,s023,001,2024-07-26_16h07.41.452,simplestop_skeleton,2022.2.2,60.01736383330085,
None,None,0,0,0,0,2,3,11,1,,,,,,,,,,,,,,,,,4167.887545187026,go,squareblack.png,right,0.25,4167.907171171159,4167.907171171159,4168.4037991426885,4168.4037991426885,4168.420287523419,4168.653934419155,4169.153045203537,4169.403241869062,4170.404435109347,4170.421176619828,right,1,4170.421176619828,4170.421176619828,0.0016831979155540466,0.4901343770325184,0.7404784075915813,4170.905805986375,practice,1,0.3843855522572994,4170.923020567745,4170.923020567745,,,,,,,,,,,,,,,,,,,,,,,,,,,,,s023,001,2024-07-26_16h07.41.452,simplestop_skeleton,2022.2.2,60.01736383330085,
None,None,0,0,0,0,3,0,12,1,,,,,,,,,,,,,,,,,4170.906237326562,stop,squareblack.png,right,0.25,4170.923020567745,4170.923020567745,4171.422236580402,4171.422236580402,4171.422236580402,4171.672522634268,4172.173024747521,4172.423215970397,4173.424429662526,4173.424429662526,right,1,4173.424429662526,4173.424429662526,0.0011784881353378296,0.49017394334077835,0.7405867204070091,4173.91054398939,practice,1,0.3830815702676773,,,,,,,,,,,,,,,,,,,,,,,,,,,,,,,s023,001,2024-07-26_16h07.41.452,simplestop_skeleton,2022.2.2,60.01736383330085,
$currentCorrectResponse,$currentGoStim,0,0,0,0,3,1,13,0,,,,,,,,,,,,,,,,,4173.91098671034,go,squareblack.png,right,0.2,4173.930182754993,4173.930182754993,4174.426930040121,4174.426930040121,4174.443530745804,4174.627207670361,4175.127805817872,4175.426793392748,4176.427698280662,4176.44462710619,right,1,4176.44462710619,4176.44462710619,0.0012253783643245697,0.4898419640958309,0.6903397291898727,4176.929093025625,practice,1,0.5506772138178349,4176.946751061827,4176.946751061827,,,,,,,,,,,,,,,,,,,,,,,,,,,,,s023,001,2024-07-26_16h07.41.452,simplestop_skeleton,2022.2.2,60.01736383330085,
None,None,0,0,0,0,3,2,14,2,,,,,,,,,,,,,,,,,4176.929510034621,go,squareblack.png,right,0.2,4176.946751061827,4176.946751061827,4177.445464741439,4177.445464741439,4177.462415933609,4177.645776916295,4178.146158076823,4178.446517363191,4179.447662658989,4179.447662658989,right,1,4179.447662658989,4179.447662658989,0.001186918467283249,0.48990271985530853,0.6901625134050846,4179.932920936495,practice,1,0.5407199785113335,,,,,,,,,,,,,,,,,,,,,,,,,,,,,,,s023,001,2024-07-26_16h07.41.452,simplestop_skeleton,2022.2.2,60.01736383330085,
None,None,0,0,0,0,3,3,15,2,,,,,,,,,,,,,,,,,4179.933337133378,stop,circleblack.png,left,0.2,4179.959280479699,4179.959280479699,4180.450171392411,4180.450171392411,4180.4667674824595,4180.650350924581,4181.149652164429,4181.449878774583,4182.4529642388225,4182.469509117305,left,1,4182.469509117305,4182.469509117305,0.009032443165779114,0.4909711107611656,0.691190242767334,4182.968929003924,practice,1,0.4017033129930496,,,,,,,,,,,,,,,,,,,,,,,,,,,,,,,s023,001,2024-07-26_16h07.41.452,simplestop_skeleton,2022.2.2,60.01736383330085,
None,None,0,0,0,0,4,0,16,3,,,,,,,,,,,,,,,,,4182.9693884551525,stop,circleblack.png,left,0.15,4182.9863322377205,4182.9863322377205,4183.486020736396,4183.486020736396,4183.486020736396,4183.635780014098,4184.136211924255,4184.487145289779,4185.487812004983,4185.487812004983,None,0,4185.487812004983,4185.487812004983,0.001259882003068924,0.49105406925082207,0.6405342407524586,4185.973014887422,practice,1,,,,,,,,,,,,,,,,,,,,,,,,,,,,,,,,s023,001,2024-07-26_16h07.41.452,simplestop_skeleton,2022.2.2,60.01736383330085,
None,None,0,0,0,0,4,1,17,1,,,,,,,,,,,,,,,,,4185.973447594792,go,squareblack.png,right,0.2,4185.991355918348,4185.991355918348,4186.490327369422,4186.490327369422,4186.506919540465,4186.690481603146,4187.191249668598,4187.490253821015,4188.492404639721,4188.492404639721,right,1,4188.492404639721,4188.492404639721,0.0016639456152915955,0.4910924695432186,0.6913789287209511,4188.977129530162,practice,1,0.43551522865891457,,,,,,,,,,,,,,,,,,,,,,,,,,,,,,,s023,001,2024-07-26_16h07.41.452,simplestop_skeleton,2022.2.2,60.01736383330085,
None,None,0,0,0,0,4,2,18,3,,,,,,,,,,,,,,,,,4188.9775522351265,go,circleblack.png,left,0.2,4188.997640520334,4188.997640520334,4189.493164181709,4189.493164181709,4189.511101655662,4189.69248469919,4190.192866764963,4190.493343554437,4191.494403794408,4191.511034812778,left,1,4191.511034812778,4191.511034812778,0.001802157610654831,0.4884191080927849,0.6892473995685577,4191.996232520789,practice,1,0.36623499169945717,,,,,,,,,,,,,,,,,,,,,,,,,,,,,,,s023,001,2024-07-26_16h07.41.452,simplestop_skeleton,2022.2.2,60.01736383330085,
None,None,0,0,0,0,4,3,19,2,,,,,,,,,,,,,,,,,4191.996655359864,go,circleblack.png,left,0.2,4192.01405557245,4192.01405557245,4192.513643026352,4192.513643026352,4192.513643026352,4192.713768519461,4193.214862648398,4193.513349086046,4194.514799628407,4194.514799628407,left,1,4194.514799628407,4194.514799628407,0.0012848787009716034,0.4909937456250191,0.6910492889583111,4194.999142602086,practice,1,0.49388590455055237,4195.017070785165,4195.017070785165,,,,,,,,,,,,,,,,,,,,,,,,,,,,,s023,001,2024-07-26_16h07.41.452,simplestop_skeleton,2022.2.2,60.01736383330085,
$currentCorrectResponse,$currentGoStim,0,0,0,0,5,0,20,0,,,,,,,,,,,,,,,,,4194.999597478658,go,circleblack.png,left,0.2,4195.017070785165,4195.017070785165,4195.515369452536,4195.515369452536,4195.5326861441135,4195.715815652162,4196.216140426695,4196.516481369734,4197.517590586096,4197.517590586096,left,1,4197.517590586096,4197.517590586096,0.0014737173914909363,0.49005797505378723,0.6902924925088882,4198.002654131502,practice,1,0.5492919608950615,,,,,,,,,,,,,,,,,,,,,,,,,,,,,,,s023,001,2024-07-26_16h07.41.452,simplestop_skeleton,2022.2.2,60.01736383330085,
None,None,0,0,0,0,5,1,21,3,,,,,,,,,,,,,,,,,4198.003285516053,go,circleblack.png,left,0.2,4198.021572124213,4198.021572124213,4198.518845371902,4198.518845371902,4198.535602390766,4198.719338178635,4199.21954427287,4199.52050101012,4200.520907264203,4200.520907264203,left,1,4200.520907264203,4200.520907264203,0.0012005902826786041,0.488952461630106,0.6896076835691929,4201.006991922855,practice,1,0.38656600192189217,,,,,,,,,,,,,,,,,,,,,,,,,,,,,,,s023,001,2024-07-26_16h07.41.452,simplestop_skeleton,2022.2.2,60.01736383330085,
None,None,0,0,0,0,5,2,22,3,,,,,,,,,,,,,,,,,4201.007402688265,go,squareblack.png,right,0.2,4201.03200481832,4201.03200481832,4201.52345290035,4201.52345290035,4201.540091909468,4201.723780851811,4202.223077338189,4202.5231207199395,4203.52607633546,4203.543104413897,right,1,4203.543104413897,4203.543104413897,0.007754787802696228,0.49044144526124,0.6901548728346825,4204.042575001717,practice,1,0.35668864473700523,,,,,,,,,,,,,,,,,,,,,,,,,,,,,,,s023,001,2024-07-26_16h07.41.452,simplestop_skeleton,2022.2.2,60.01736383330085,
None,None,0,0,0,0,5,3,23,3,,,,,,,,,,,,,,,,,4204.043285027146,stop,squareblack.png,right,0.2,4204.061855681241,4204.061855681241,4204.5592429079115,4204.5592429079115,4204.576191022992,4204.759229168296,4205.25951000303,4205.559800162911,4206.5609813816845,4206.5609813816845,None,0,4206.5609813816845,4206.5609813816845,0.0012783631682395935,0.48955170065164566,0.6891048662364483,4207.0462869443,practice,1,,,,,,,,,,,,,,,,,,,,,,,,,,,,,,,,s023,001,2024-07-26_16h07.41.452,simplestop_skeleton,2022.2.2,60.01736383330085,
,,0,0,0,0,,,,,,,,,,,,,"[{'fileName': 'squareblack.png', 'correct_response': 'right', 'condition': 'go'}, {'fileName': 'circleblack.png', 'correct_response': 'left', 'condition': 'stop'}, {'fileName': 'circleblack.png', 'correct_response': 'left', 'condition': 'go'}, {'fileName': 'squareblack.png', 'correct_response': 'right', 'condition': 'stop'}, {'fileName': 'circleblack.png', 'correct_response': 'left', 'condition': 'go'}, {'fileName': 'squareblack.png', 'correct_response': 'right', 'condition': 'stop'}, {'fileName': 'squareblack.png', 'correct_response': 'right', 'condition': 'go'}, {'fileName': 'circleblack.png', 'correct_response': 'left', 'condition': 'go'}, {'fileName': 'circleblack.png', 'correct_response': 'left', 'condition': 'stop'}, {'fileName': 'circleblack.png', 'correct_response': 'left', 'condition': 'go'}, {'fileName': 'squareblack.png', 'correct_response': 'right', 'condition': 'go'}, {'fileName': 'squareblack.png', 'correct_response': 'right', 'condition': 'go'}, {'fileName': 'squareblack.png', 'correct_response': 'right', 'condition': 'stop'}, {'fileName': 'circleblack.png', 'correct_response': 'left', 'condition': 'go'}, {'fileName': 'circleblack.png', 'correct_response': 'left', 'condition': 'go'}, {'fileName': 'circleblack.png', 'correct_response': 'left', 'condition': 'go'}, {'fileName': 'circleblack.png', 'correct_response': 'left', 'condition': 'go'}, {'fileName': 'squareblack.png', 'correct_response': 'right', 'condition': 'go'}, {'fileName': 'squareblack.png', 'correct_response': 'right', 'condition': 'go'}, {'fileName': 'circleblack.png', 'correct_response': 'left', 'condition': 'stop'}, {'fileName': 'circleblack.png', 'correct_response': 'left', 'condition': 'stop'}, {'fileName': 'squareblack.png', 'correct_response': 'right', 'condition': 'go'}, {'fileName': 'squareblack.png', 'correct_response': 'right', 'condition': 'stop'}, {'fileName': 'squareblack.png', 'correct_response': 'right', 'condition': 'go'}]",,,,,,,,,,,,,,,,,,,,,,,,,,,,,,,,,,,,4207.062761388719,4207.062761388719,return,7.246697541326284,,,,,,,,,,,,,,,,,,,,,,,,,s023,001,2024-07-26_16h07.41.452,simplestop_skeleton,2022.2.2,60.01736383330085,
None,None,,,,,,,,,0,0,0,0,0,0,0,2,,,,,,,,,4230.606460694224,go,circleblack.png,left,0.25,,,,,,,,,,,,,,,0.0033060163259506226,0.4879556745290756,,4233.110092192888,test,1,,,,,,,,4214.337709836662,4214.337709836662,4230.628434598446,4231.121405418962,4231.121405418962,4231.138273399323,4231.372686676681,4231.873769395053,4232.123928826302,4233.133930642158,left,1,0.6828046515583992,0.25,,,,,,,,,,,s023,001,2024-07-26_16h07.41.452,simplestop_skeleton,2022.2.2,60.01736383330085,
None,None,,,,,,,,,0,0,0,0,0,1,1,2,,,,,,,,,4233.110660232604,go,squareblack.png,right,0.25,,,,,,,,,,,,,,,0.007191058248281479,0.48921726271510124,,4235.61105620116,test,1,,,,,,,,,,4233.133930642158,4233.625915981829,4233.625915981829,4233.642636332661,4233.876132566482,4234.375127512962,4234.625457562506,4235.629005864263,right,1,0.40575749799609184,0.25,,,,,,,,,,,s023,001,2024-07-26_16h07.41.452,simplestop_skeleton,2022.2.2,60.01736383330085,
None,None,,,,,,,,,0,0,0,0,0,2,2,2,,,,,,,,,4235.611500218511,stop,circleblack.png,left,0.25,,,,,,,,,,,,,,,0.001803431659936905,0.48925765231251717,0.7393413037061691,4238.116181902587,test,1,,,,,,,,,,4235.629005864263,4236.127147436142,4236.127147436142,4236.143640868366,4236.377108018845,4236.877852607518,4237.127941459417,4238.13759136945,left,1,0.3345104865729809,0.2,,,,,,,,,,,s023,001,2024-07-26_16h07.41.452,simplestop_skeleton,2022.2.2,60.01736383330085,
None,None,,,,,,,,,0,0,0,0,0,3,3,1,,,,,,,,,4238.116646107286,go,squareblack.png,right,0.2,,,,,,,,,,,,,,,0.0017827488481998444,0.4849238991737366,,4240.617640145123,test,1,,,,,,,,,,4238.13759136945,4238.629613045603,4238.629613045603,4238.646367773414,4238.829968728125,4239.332090936601,4239.6308603696525,4240.636380545795,right,1,0.40610911324620247,0.2,,,,,,,,,,,s023,001,2024-07-26_16h07.41.452,simplestop_skeleton,2022.2.2,60.01736383330085,
None,None,,,,,,,,,0,0,0,0,1,0,4,3,,,,,,,,,4240.618086632341,go,circleblack.png,left,0.2,,,,,,,,,,,,,,,0.0026134848594665527,0.4876764863729477,,4243.119388386607,test,1,,,,,,,,,,4240.636380545795,4241.132314827293,4241.132314827293,4241.148967649788,4241.332508936524,4241.833430364728,4242.133512809873,4243.136740006506,left,1,0.34269244223833084,0.2,,,,,,,,,,,s023,001,2024-07-26_16h07.41.452,simplestop_skeleton,2022.2.2,60.01736383330085,
None,None,,,,,,,,,0,0,0,0,1,1,5,3,,,,,,,,,4243.1198428198695,go,circleblack.png,left,0.2,,,,,,,,,,,,,,,0.0013320408761501312,0.48924411833286285,,4245.623144634068,test,1,,,,,,,,,,4243.136740006506,4243.635062612593,4243.635062612593,4243.65182171762,4243.8352518342435,4244.336721573025,4244.638079721481,4245.646964006126,left,1,0.38553233817219734,0.2,,,,,,,,,,,s023,001,2024-07-26_16h07.41.452,simplestop_skeleton,2022.2.2,60.01736383330085,
None,None,,,,,,,,,0,0,0,0,1,2,6,1,,,,,,,,,4245.623605363071,go,circleblack.png,left,0.2,,,,,,,,,,,,,,,0.003684479743242264,0.4843585006892681,,4248.12654562667,test,1,,,,,,,,,,4245.646964006126,4246.137762755156,4246.137762755156,4246.154558241367,4246.3381399028,4246.838626474142,4247.139185138047,4248.147911854088,left,1,0.41178424656391144,0.2,,,,,,,,,,,s023,001,2024-07-26_16h07.41.452,simplestop_skeleton,2022.2.2,60.01736383330085,
None,None,,,,,,,,,0,0,0,0,1,3,7,2,,,,,,,,,4248.12726495415,go,squareblack.png,right,0.2,,,,,,,,,,,,,,,0.0021745972335338593,0.4840436205267906,,4250.628402680159,test,1,,,,,,,,,,4248.147911854088,4248.640640303493,4248.640640303493,4248.657245863229,4248.840792413801,4249.341339979321,4249.6419104114175,4250.6470357477665,right,1,0.3543841317296028,0.2,,,,,,,,,,,s023,001,2024-07-26_16h07.41.452,simplestop_skeleton,2022.2.2,60.01736383330085,
$currentCorrectResponse,$currentGoStim,,,,,,,,,0,0,0,0,2,0,8,0,,,,,,,,,4250.628864102066,stop,circleblack.png,left,0.2,,,,,,,,,,,,,,,0.0017738491296768188,0.48810460045933723,0.6883374750614166,4253.13051725179,test,1,,,,,,,,,,4250.6470357477665,4251.143394064158,4251.143394064158,4251.160091269761,4251.343619383872,4251.844243071973,4252.144729837775,4253.148285467178,left,1,0.4131315052509308,0.15,,,,,,,,,,,s023,001,2024-07-26_16h07.41.452,simplestop_skeleton,2022.2.2,60.01736383330085,
$currentCorrectResponse,$currentGoStim,,,,,,,,,0,0,0,0,2,1,9,0,,,,,,,,,4253.130950778723,go,squareblack.png,right,0.15,,,,,,,,,,,,,,,0.0016242563724517822,0.4891919381916523,,4255.632870800793,test,1,,,,,,,,,,4253.148285467178,4253.646132111549,4253.646132111549,4253.6629063002765,4253.796279985458,4254.297624237835,4254.649098180234,4255.649622440338,right,1,0.5244998969137669,0.15,,,,,,,,,,,s023,001,2024-07-26_16h07.41.452,simplestop_skeleton,2022.2.2,60.01736383330085,
None,None,,,,,,,,,0,0,0,0,2,2,10,3,,,,,,,,,4255.633304465562,stop,squareblack.png,right,0.15,,,,,,,,,,,,,,,0.0011710822582244873,0.4897508770227432,0.6398133859038353,4258.138236768544,test,1,,,,,,,,,,4255.649622440338,4256.1489384025335,4256.1489384025335,4256.1489384025335,4256.299070104957,4256.801679760218,4257.150375843048,4258.158064104617,None,0,,0.2,,,,,,,,,,,s023,001,2024-07-26_16h07.41.452,simplestop_skeleton,2022.2.2,60.01736383330085,
None,None,,,,,,,,,0,0,0,0,2,3,11,3,,,,,,,,,4258.138690333813,stop,squareblack.png,right,0.2,,,,,,,,,,,,,,,0.0013896450400352478,0.4860146567225456,0.6846522688865662,4260.6383337937295,test,1,,,,,,,,,,4258.158064104617,4258.651637002826,4258.651637002826,4258.668339785188,4258.851893655956,4259.352456614375,4259.653004873544,4260.655280228704,None,0,,0.25,,,,,,,,,,,s023,001,2024-07-26_16h07.41.452,simplestop_skeleton,2022.2.2,60.01736383330085,
None,None,,,,,,,,,0,0,0,0,3,0,12,3,,,,,,,,,4260.638796847314,go,squareblack.png,right,0.25,,,,,,,,,,,,,,,0.0011569783091545105,0.4897003844380379,,4263.1421359069645,test,1,,,,,,,,,,4260.655280228704,4261.1543998532,4261.1543998532,4261.1543998532,4261.404665909708,4261.90646494925,4262.155744161457,4263.163828872144,right,1,0.5068536922335625,0.25,,,,,,,,,,,s023,001,2024-07-26_16h07.41.452,simplestop_skeleton,2022.2.2,60.01736383330085,
None,None,,,,,,,,,0,0,0,0,3,1,13,2,,,,,,,,,4263.143188405782,stop,circleblack.png,left,0.25,,,,,,,,,,,,,,,0.0037140846252441406,0.4861539602279663,0.7361634261906147,4265.644242081791,test,1,,,,,,,,,,4263.163828872144,4263.657215278596,4263.657215278596,4263.673890460283,4263.90747058019,4264.40915196389,4264.660221770406,4265.662347219884,left,1,0.3579155243933201,0.2,,,,,,,,,,,s023,001,2024-07-26_16h07.41.452,simplestop_skeleton,2022.2.2,60.01736383330085,
None,None,,,,,,,,,0,0,0,0,3,2,14,3,,,,,,,,,4265.64468337968,stop,squareblack.png,right,0.2,,,,,,,,,,,,,,,0.0017288997769355774,0.4893430657684803,0.6892386749386787,4268.146867286414,test,1,,,,,,,,,,4265.662347219884,4266.160212546587,4266.160212546587,4266.176910020411,4266.360200557858,4266.860658548772,4267.162163157016,4268.16350568831,None,0,,0.25,,,,,,,,,,,s023,001,2024-07-26_16h07.41.452,simplestop_skeleton,2022.2.2,60.01736383330085,
$currentCorrectResponse,$currentGoStim,,,,,,,,,0,0,0,0,3,3,15,0,,,,,,,,,4268.147336389869,go,squareblack.png,right,0.25,,,,,,,,,,,,,,,0.0011523887515068054,0.48983171209692955,,4270.649375993758,test,1,,,,,,,,,,4268.16350568831,4268.662885863334,4268.662885863334,4268.662885863334,4268.913065284491,4269.414220325649,4269.66534235701,4270.6662061959505,right,1,0.3736717961728573,0.25,,,,,,,,,,,s023,001,2024-07-26_16h07.41.452,simplestop_skeleton,2022.2.2,60.01736383330085,
$currentCorrectResponse,$currentGoStim,,,,,,,,,0,0,0,0,4,0,16,0,,,,,,,,,4270.6498270221055,go,squareblack.png,right,0.25,,,,,,,,,,,,,,,0.0011824257671833038,0.4900575205683708,,4273.1522625125945,test,1,,,,,,,,,,4270.6662061959505,4271.1655979938805,4271.1655979938805,4271.1655979938805,4271.415816415101,4271.916424579918,4272.166872002184,4273.169057551771,right,1,0.5850986540317535,0.25,,,,,,,,,,,s023,001,2024-07-26_16h07.41.452,simplestop_skeleton,2022.2.2,60.01736383330085,
None,None,,,,,,,,,0,0,0,0,4,1,17,1,,,,,,,,,4273.152696527541,go,squareblack.png,right,0.25,,,,,,,,,,,,,,,0.0011729449033737183,0.48963726684451103,,4275.654950141907,test,1,,,,,,,,,,4273.169057551771,4273.6685263849795,4273.6685263849795,4273.6685263849795,4273.9185904711485,4274.419576335698,4274.669651795179,4275.677188325673,right,1,0.4443684555590153,0.25,,,,,,,,,,,s023,001,2024-07-26_16h07.41.452,simplestop_skeleton,2022.2.2,60.01736383330085,
None,None,,,,,,,,,0,0,0,0,4,2,18,3,,,,,,,,,4275.655378174037,go,circleblack.png,left,0.25,,,,,,,,,,,,,,,0.007413309067487717,0.4898354411125183,,4278.15847113356,test,1,,,,,,,,,,4275.677188325673,4276.17109522596,4276.17109522596,4276.187701892108,4276.421497132629,4276.921841401607,4277.172226779163,4278.181395448744,left,1,0.36398811265826225,0.25,,,,,,,,,,,s023,001,2024-07-26_16h07.41.452,simplestop_skeleton,2022.2.2,60.01736383330085,
None,None,,,,,,,,,0,0,0,0,4,3,19,2,,,,,,,,,4278.159145690501,go,circleblack.png,left,0.25,,,,,,,,,,,,,,,0.00172414630651474,0.4839601218700409,,4280.6610393337905,test,1,,,,,,,,,,4278.181395448744,4278.673988386989,4278.673988386989,4278.690984122455,4278.924050331116,4279.424550622702,4279.674995929003,4280.678326185793,left,1,0.44354429095983505,0.25,,,,,,,,,,,s023,001,2024-07-26_16h07.41.452,simplestop_skeleton,2022.2.2,60.01736383330085,
$currentCorrectResponse,$currentGoStim,,,,,,,,,0,0,0,0,5,0,20,0,,,,,,,,,4280.661513525993,stop,circleblack.png,left,0.25,,,,,,,,,,,,,,,0.0012041553854942322,0.49098052084445953,0.7393634878098965,4283.165237542242,test,1,,,,,,,,,,4280.678326185793,4281.17858055979,4281.17858055979,4281.17858055979,4281.427263997495,4281.927450884134,4282.1777475476265,4283.186697836965,left,1,0.44892192631959915,0.2,,,,,,,,,,,s023,001,2024-07-26_16h07.41.452,simplestop_skeleton,2022.2.2,60.01736383330085,
None,None,,,,,,,,,0,0,0,0,5,1,21,1,,,,,,,,,4283.16642966494,go,circleblack.png,left,0.2,,,,,,,,,,,,,,,0.001749325543642044,0.484041266143322,,4285.6660578511655,test,1,,,,,,,,,,4283.186697836965,4283.6794905774295,4283.6794905774295,4283.696173291653,4283.8796803765,4284.380094222724,4284.682538319379,4285.682840656489,left,1,0.6063184291124344,0.2,,,,,,,,,,,s023,001,2024-07-26_16h07.41.452,simplestop_skeleton,2022.2.2,60.01736383330085,
None,None,,,,,,,,,0,0,0,0,5,2,22,1,,,,,,,,,4285.666521627456,go,circleblack.png,left,0.2,,,,,,,,,,,,,,,0.0012283101677894592,0.49102723225951195,,4288.1687211841345,test,1,,,,,,,,,,4285.682840656489,4286.184596739709,4286.184596739709,4286.184596739709,4286.384158287197,4286.899607598782,4287.2000039331615,4288.190977420658,left,1,0.3800448104739189,0.2,,,,,,,,,,,s023,001,2024-07-26_16h07.41.452,simplestop_skeleton,2022.2.2,60.01736383330085,
None,None,,,,,,,,,0,0,0,0,5,3,23,3,,,,,,,,,4288.1691523864865,stop,squareblack.png,right,0.2,,,,,,,,,,,,,,,0.007098779082298279,0.489888034760952,0.6907876506447792,4290.672155767679,test,1,,,,,,,,,,4288.190977420658,4288.6850287131965,4288.6850287131965,4288.701607272029,4288.886331770569,4289.385749824345,4289.685921035707,4290.689335793257,None,0,,0.25,,,,,,,,,,,s023,001,2024-07-26_16h07.41.452,simplestop_skeleton,2022.2.2,60.01736383330085,
None,None,,,,,,,,,0,0,0,0,6,0,24,2,,,,,,,,,4290.672596275806,stop,circleblack.png,left,0.25,,,,,,,,,,,,,,,0.001865047961473465,0.4893181845545769,0.7398878782987595,4293.174739867449,test,1,,,,,,,,,,4290.689335793257,4291.187933251262,4291.187933251262,4291.206612400711,4291.438413284719,4291.93858730793,4292.188639871776,4293.19191500172,None,0,,0.3,,,,,,,,,,,s023,001,2024-07-26_16h07.41.452,simplestop_skeleton,2022.2.2,60.01736383330085,
None,None,,,,,,,,,0,0,0,0,6,1,25,3,,,,,,,,,4293.175177004188,go,circleblack.png,left,0.3,,,,,,,,,,,,,,,0.0012373588979244232,0.48962588980793953,,4295.678062427789,test,1,,,,,,,,,,4293.19191500172,4293.690703928471,4293.690703928471,4293.707433909178,4293.991440135986,4294.491521101445,4294.691944979131,4295.697200734168,left,1,0.35084928572177887,0.3,,,,,,,,,,,s023,001,2024-07-26_16h07.41.452,simplestop_skeleton,2022.2.2,60.01736383330085,
$currentCorrectResponse,$currentGoStim,,,,,,,,,0,0,0,0,6,2,26,0,,,,,,,,,4295.6785444021225,go,circleblack.png,left,0.3,,,,,,,,,,,,,,,0.001766260713338852,0.4876831956207752,,4298.179934486747,test,1,,,,,,,,,,4295.697200734168,4296.193207226694,4296.193207226694,4296.209730640054,4296.493442114443,4296.99405920133,4297.19436557591,4298.19730161503,left,1,0.47628267854452133,0.3,,,,,,,,,,,s023,001,2024-07-26_16h07.41.452,simplestop_skeleton,2022.2.2,60.01736383330085,
None,None,,,,,,,,,0,0,0,0,6,3,27,1,,,,,,,,,4298.180388461798,go,circleblack.png,left,0.3,,,,,,,,,,,,,,,0.0013507716357707977,0.4893798604607582,,4300.68360086903,test,1,,,,,,,,,,4298.19730161503,4298.695961289108,4298.695961289108,4298.712552711368,4298.996485546231,4299.496757060289,4299.697011344135,4300.702757347375,left,1,0.40480705350637436,0.3,,,,,,,,,,,s023,001,2024-07-26_16h07.41.452,simplestop_skeleton,2022.2.2,60.01736383330085,
None,None,,,,,,,,,0,0,0,0,7,0,28,3,,,,,,,,,4300.6840767636895,stop,circleblack.png,left,0.3,,,,,,,,,,,,,,,0.0017714612185955048,0.4876370318233967,0.7878960184752941,4303.186732754111,test,1,,,,,,,,,,4300.702757347375,4301.198633361608,4301.198633361608,4301.215258110315,4301.4988716878,4301.999556951225,4302.199838299304,4303.2065836936235,left,1,0.4159667491912842,0.25,,,,,,,,,,,s023,001,2024-07-26_16h07.41.452,simplestop_skeleton,2022.2.2,60.01736383330085,
None,None,,,,,,,,,0,0,0,0,7,1,29,1,,,,,,,,,4303.187169905752,go,squareblack.png,right,0.25,,,,,,,,,,,,,,,0.003997746855020523,0.4893086701631546,,4305.68908360973,test,1,,,,,,,,,,4303.2065836936235,4303.702831536531,4303.702831536531,4303.719415478408,4303.951665196568,4304.452223878354,4304.702806670219,4305.707697998732,right,1,0.7852239795029163,0.25,,,,,,,,,,,s023,001,2024-07-26_16h07.41.452,simplestop_skeleton,2022.2.2,60.01736383330085,
None,None,,,,,,,,,0,0,0,0,7,2,30,3,,,,,,,,,4305.68952165544,go,squareblack.png,right,0.25,,,,,,,,,,,,,,,0.0014806315302848816,0.48775994032621384,,4308.190926145762,test,1,,,,,,,,,,4305.707697998732,4306.204121358693,4306.204121358693,4306.220931217074,4306.454470448196,4306.954936482012,4307.20543006435,4308.207882851362,right,1,0.6234466433525085,0.25,,,,,,,,,,,s023,001,2024-07-26_16h07.41.452,simplestop_skeleton,2022.2.2,60.01736383330085,
None,None,,,,,,,,,0,0,0,0,7,3,31,1,,,,,,,,,4308.191389273852,stop,squareblack.png,right,0.25,,,,,,,,,,,,,,,0.0011703670024871826,0.489529374986887,0.7398154437541962,4310.695758752525,test,1,,,,,,,,,,4308.207882851362,4308.706805352122,4308.706805352122,4308.706805352122,4308.957136720419,4309.457721963525,4309.709033668041,4310.713116493076,None,0,,0.3,,,,,,,,,,,s023,001,2024-07-26_16h07.41.452,simplestop_skeleton,2022.2.2,60.01736383330085,
None,None,,,,,,,,,0,0,0,0,8,0,32,1,,,,,,,,,4310.696262631565,go,circleblack.png,left,0.3,,,,,,,,,,,,,,,0.0024588778614997864,0.48762085661292076,,4313.196309354156,test,1,,,,,,,,,,4310.713116493076,4311.209869336337,4311.209869336337,4311.226216845214,4311.509953700006,4312.010529868305,4312.210788760334,4313.213736552745,left,1,0.3885710798203945,0.3,,,,,,,,,,,s023,001,2024-07-26_16h07.41.452,simplestop_skeleton,2022.2.2,60.01736383330085,
$currentCorrectResponse,$currentGoStim,,,,,,,,,0,0,0,0,8,1,33,0,,,,,,,,,4313.1967538669705,stop,squareblack.png,right,0.3,,,,,,,,,,,,,,,0.0016278326511383057,0.48965567350387573,0.7899651788175106,4315.700887452811,test,1,,,,,,,,,,4313.213736552745,4313.712423458695,4313.712423458695,4313.729111276567,4314.012711007148,4314.513483386487,4314.713728617877,4315.719381444156,None,0,,0.35,,,,,,,,,,,s023,001,2024-07-26_16h07.41.452,simplestop_skeleton,2022.2.2,60.01736383330085,
$currentCorrectResponse,$currentGoStim,,,,,,,,,0,0,0,0,8,2,34,0,,,,,,,,,4315.701410703361,go,squareblack.png,right,0.35,,,,,,,,,,,,,,,0.0021341517567634583,0.48889510706067085,,4318.202864352614,test,1,,,,,,,,,,4315.719381444156,4316.216527353972,4316.216527353972,4316.233371358365,4316.5655861496925,4317.066397357732,4317.216427467763,4318.21967741847,right,1,0.6540526077151299,0.35,,,,,,,,,,,s023,001,2024-07-26_16h07.41.452,simplestop_skeleton,2022.2.2,60.01736383330085,
None,None,,,,,,,,,0,0,0,0,8,3,35,3,,,,,,,,,4318.203295137733,go,squareblack.png,right,0.35,,,,,,,,,,,,,,,0.0012199580669403076,0.4889102280139923,,4320.7048840634525,test,1,,,,,,,,,,4318.21967741847,4318.718209199607,4318.718209199607,4318.734837889671,4319.068333294243,4319.5694264397025,4319.71994137764,4320.721395261586,right,1,0.7380093298852444,0.35,,,,,,,,,,,s023,001,2024-07-26_16h07.41.452,simplestop_skeleton,2022.2.2,60.01736383330085,
None,None,,,,,,,,,0,0,0,0,9,0,36,1,,,,,,,,,4320.705338358879,go,squareblack.png,right,0.35,,,,,,,,,,,,,,,0.0011776424944400787,0.48965881019830704,,4323.207483008504,test,1,,,,,,,,,,4320.721395261586,4321.220951218158,4321.220951218158,4321.220951218158,4321.571058254689,4322.07154007256,4322.222018107772,4323.227676589042,right,1,0.7115469500422478,0.35,,,,,,,,,,,s023,001,2024-07-26_16h07.41.452,simplestop_skeleton,2022.2.2,60.01736383330085,
$currentCorrectResponse,$currentGoStim,,,,,,,,,0,0,0,0,9,1,37,0,,,,,,,,,4323.2079318240285,go,circleblack.png,left,0.35,,,,,,,,,,,,,,,0.0052197836339473724,0.4912897124886513,,4325.710197076201,test,1,,,,,,,,,,4323.227676589042,4323.724293898791,4323.724293898791,4323.741221129894,4324.075706664473,4324.591079283506,4324.724464524537,4325.727105010301,left,1,0.7539372406899929,0.35,,,,,,,,,,,s023,001,2024-07-26_16h07.41.452,simplestop_skeleton,2022.2.2,60.01736383330085,
None,None,,,,,,,,,0,0,0,0,9,2,38,2,,,,,,,,,4325.710650045425,go,circleblack.png,left,0.35,,,,,,,,,,,,,,,0.0012754648923873901,0.4893646575510502,,4328.214895259589,test,1,,,,,,,,,,4325.727105010301,4326.2261804156005,4326.2261804156005,4326.2261804156005,4326.577908795327,4327.077170360833,4327.227267909795,4328.233956154436,left,1,0.3710610009729862,0.35,,,,,,,,,,,s023,001,2024-07-26_16h07.41.452,simplestop_skeleton,2022.2.2,60.01736383330085,
None,None,,,,,,,,,0,0,0,0,9,3,39,2,,,,,,,,,4328.215346824378,stop,squareblack.png,right,0.35,,,,,,,,,,,,,,,0.00225231796503067,0.48621733859181404,0.8365682512521744,4330.718031413853,test,1,,,,,,,,,,4328.233956154436,4328.728946045041,4328.728946045041,4328.745621487498,4329.0819975063205,4329.581866826862,4329.730098262429,4330.739487208426,right,1,0.5417170077562332,0.3,,,,,,,,,,,s023,001,2024-07-26_16h07.41.452,simplestop_skeleton,2022.2.2,60.01736383330085,
$currentCorrectResponse,$currentGoStim,,,,,,,,,0,0,0,0,10,0,40,0,,,,,,,,,4330.7185015417635,stop,circleblack.png,left,0.3,,,,,,,,,,,,,,,0.002688676118850708,0.4862321652472019,0.7865544483065605,4333.219592150301,test,1,,,,,,,,,,4330.739487208426,4331.231735594571,4331.231735594571,4331.248376365751,4331.532043471932,4332.032762106508,4332.232716996223,4333.240606881678,left,1,0.4408005513250828,0.25,,,,,,,,,,,s023,001,2024-07-26_16h07.41.452,simplestop_skeleton,2022.2.2,60.01736383330085,
None,None,,,,,,,,,0,0,0,0,10,1,41,2,,,,,,,,,4333.220053937286,go,squareblack.png,right,0.25,,,,,,,,,,,,,,,0.002075977623462677,0.48779281228780746,,4335.722017370164,test,1,,,,,,,,,,4333.240606881678,4333.734464619309,4333.734464619309,4333.751104880124,4333.984681438655,4334.48541405797,4334.735809799284,4335.740808114409,right,1,0.5901208855211735,0.25,,,,,,,,,,,s023,001,2024-07-26_16h07.41.452,simplestop_skeleton,2022.2.2,60.01736383330085,
$currentCorrectResponse,$currentGoStim,,,,,,,,,0,0,0,0,10,2,42,0,,,,,,,,,4335.722464874387,go,circleblack.png,left,0.25,,,,,,,,,,,,,,,0.001817360520362854,0.4884886033833027,,4338.223997309804,test,1,,,,,,,,,,4335.740808114409,4336.237195689231,4336.237195689231,4336.253979679197,4336.48753284663,4336.988080430776,4337.238597545773,4338.241187721491,left,1,0.41914598271250725,0.25,,,,,,,,,,,s023,001,2024-07-26_16h07.41.452,simplestop_skeleton,2022.2.2,60.01736383330085,
None,None,,,,,,,,,0,0,0,0,10,3,43,1,,,,,,,,,4338.224446486682,go,squareblack.png,right,0.25,,,,,,,,,,,,,,,0.0015953145921230316,0.4897104613482952,,4340.727069821209,test,1,,,,,,,,,,4338.241187721491,4338.739970583469,4338.739970583469,4338.756695218384,4338.990266412497,4339.4908425323665,4339.742300160229,4340.745122272521,None,0,,0.25,,,,,,,,,,,s023,001,2024-07-26_16h07.41.452,simplestop_skeleton,2022.2.2,60.01736383330085,
None,None,,,,,,,,,0,0,0,0,11,0,44,2,,,,,,,,,4340.727521434426,go,circleblack.png,left,0.25,,,,,,,,,,,,,,,0.0019200369715690613,0.49103471264243126,,4343.2294491529465,test,1,,,,,,,,,,4340.745122272521,4341.244624953717,4341.244624953717,4341.244624953717,4341.493113119155,4341.99366530776,4342.244288697839,4343.2463690117,left,1,0.49573107436299324,0.25,,,,,,,,,,,s023,001,2024-07-26_16h07.41.452,simplestop_skeleton,2022.2.2,60.01736383330085,
None,None,,,,,,,,,0,0,0,0,11,1,45,1,,,,,,,,,4343.229910302907,stop,circleblack.png,left,0.25,,,,,,,,,,,,,,,0.001244913786649704,0.48970361053943634,0.7397829554975033,4345.732482902706,test,1,,,,,,,,,,4343.2463690117,4343.7456695996225,4343.7456695996225,4343.7456695996225,4343.9957270771265,4344.496501229703,4344.74798681587,4345.749514084309,left,1,0.5182362608611584,0.2,,,,,,,,,,,s023,001,2024-07-26_16h07.41.452,simplestop_skeleton,2022.2.2,60.01736383330085,
$currentCorrectResponse,$currentGoStim,,,,,,,,,0,0,0,0,11,2,46,0,,,,,,,,,4345.732921071351,go,squareblack.png,right,0.2,,,,,,,,,,,,,,,0.0015910379588603973,0.4906531274318695,,4348.235076375306,test,1,,,,,,,,,,4345.749514084309,4346.249557014555,4346.249557014555,4346.249557014555,4346.450407404453,4346.9657543078065,4347.249371692538,4348.251691240817,right,1,0.4289780557155609,0.2,,,,,,,,,,,s023,001,2024-07-26_16h07.41.452,simplestop_skeleton,2022.2.2,60.01736383330085,
None,None,,,,,,,,,0,0,0,0,11,3,47,2,,,,,,,,,4348.235519405454,stop,squareblack.png,right,0.2,,,,,,,,,,,,,,,0.0011881664395332336,0.48977622389793396,0.6913907192647457,4350.7400249913335,test,1,,,,,,,,,,4348.251691240817,4348.751025259495,4348.751025259495,4348.751025259495,4348.9525592289865,4349.451989792287,4349.752028319985,4350.770520813763,None,0,,0.25,,,,,,,,,,,s023,001,2024-07-26_16h07.41.452,simplestop_skeleton,2022.2.2,60.01736383330085,
,,,,,,,,,,0,0,0,0,,,,,,"[{'fileName': 'circleblack.png', 'correct_response': 'left', 'condition': 'go'}, {'fileName': 'circleblack.png', 'correct_response': 'left', 'condition': 'stop'}, {'fileName': 'circleblack.png', 'correct_response': 'left', 'condition': 'go'}, {'fileName': 'squareblack.png', 'correct_response': 'right', 'condition': 'go'}, {'fileName': 'squareblack.png', 'correct_response': 'right', 'condition': 'go'}, {'fileName': 'circleblack.png', 'correct_response': 'left', 'condition': 'stop'}, {'fileName': 'squareblack.png', 'correct_response': 'right', 'condition': 'stop'}, {'fileName': 'squareblack.png', 'correct_response': 'right', 'condition': 'stop'}, {'fileName': 'squareblack.png', 'correct_response': 'right', 'condition': 'go'}, {'fileName': 'squareblack.png', 'correct_response': 'right', 'condition': 'go'}, {'fileName': 'circleblack.png', 'correct_response': 'left', 'condition': 'go'}, {'fileName': 'circleblack.png', 'correct_response': 'left', 'condition': 'go'}, {'fileName': 'squareblack.png', 'correct_response': 'right', 'condition': 'go'}, {'fileName': 'squareblack.png', 'correct_response': 'right', 'condition': 'stop'}, {'fileName': 'circleblack.png', 'correct_response': 'left', 'condition': 'stop'}, {'fileName': 'circleblack.png', 'correct_response': 'left', 'condition': 'go'}, {'fileName': 'circleblack.png', 'correct_response': 'left', 'condition': 'go'}, {'fileName': 'squareblack.png', 'correct_response': 'right', 'condition': 'stop'}, {'fileName': 'circleblack.png', 'correct_response': 'left', 'condition': 'go'}, {'fileName': 'squareblack.png', 'correct_response': 'right', 'condition': 'go'}, {'fileName': 'circleblack.png', 'correct_response': 'left', 'condition': 'stop'}, {'fileName': 'squareblack.png', 'correct_response': 'right', 'condition': 'go'}, {'fileName': 'squareblack.png', 'correct_response': 'right', 'condition': 'go'}, {'fileName': 'circleblack.png', 'correct_response': 'left', 'condition': 'go'}, {'fileName': 'circleblack.png', 'correct_response': 'left', 'condition': 'go'}, {'fileName': 'circleblack.png', 'correct_response': 'left', 'condition': 'go'}, {'fileName': 'circleblack.png', 'correct_response': 'left', 'condition': 'stop'}, {'fileName': 'circleblack.png', 'correct_response': 'left', 'condition': 'go'}, {'fileName': 'squareblack.png', 'correct_response': 'right', 'condition': 'go'}, {'fileName': 'circleblack.png', 'correct_response': 'left', 'condition': 'stop'}, {'fileName': 'circleblack.png', 'correct_response': 'left', 'condition': 'go'}, {'fileName': 'squareblack.png', 'correct_response': 'right', 'condition': 'go'}, {'fileName': 'squareblack.png', 'correct_response': 'right', 'condition': 'go'}, {'fileName': 'squareblack.png', 'correct_response': 'right', 'condition': 'go'}, {'fileName': 'squareblack.png', 'correct_response': 'right', 'condition': 'stop'}, {'fileName': 'squareblack.png', 'correct_response': 'right', 'condition': 'stop'}, {'fileName': 'squareblack.png', 'correct_response': 'right', 'condition': 'stop'}, {'fileName': 'squareblack.png', 'correct_response': 'right', 'condition': 'go'}, {'fileName': 'circleblack.png', 'correct_response': 'left', 'condition': 'go'}, {'fileName': 'circleblack.png', 'correct_response': 'left', 'condition': 'stop'}, {'fileName': 'squareblack.png', 'correct_response': 'right', 'condition': 'go'}, {'fileName': 'circleblack.png', 'correct_response': 'left', 'condition': 'stop'}, {'fileName': 'circleblack.png', 'correct_response': 'left', 'condition': 'go'}, {'fileName': 'circleblack.png', 'correct_response': 'left', 'condition': 'go'}, {'fileName': 'circleblack.png', 'correct_response': 'left', 'condition': 'go'}, {'fileName': 'squareblack.png', 'correct_response': 'right', 'condition': 'stop'}, {'fileName': 'squareblack.png', 'correct_response': 'right', 'condition': 'go'}, {'fileName': 'squareblack.png', 'correct_response': 'right', 'condition': 'go'}]",,,,,,,,,,,,,,,,,,,,,,,,,,,,,,,,,,,,,,,,,,,,,,,,,,,,,4350.770520813763,4350.770520813763,return,8.287919957190752,,,,,,,s023,001,2024-07-26_16h07.41.452,simplestop_skeleton,2022.2.2,60.01736383330085,
$currentCorrectResponse,$currentGoStim,,,,,,,,,1,0,1,0,0,0,0,0,,,,,,,,,4359.089902304113,go,circleblack.png,left,0.25,,,,,,,,,,,,,,,0.002797253429889679,0.4974358528852463,,4361.6014331020415,test,2,,,,,,,,,,4359.113199979067,4359.614584799856,4359.614584799856,4359.614584799856,4359.864998947829,4360.36572759226,4360.615656238049,4361.6206703186035,left,1,0.4792741797864437,0.25,,,,,,,,,,,s023,001,2024-07-26_16h07.41.452,simplestop_skeleton,2022.2.2,60.01736383330085,
None,None,,,,,,,,,1,0,1,0,0,1,1,2,,,,,,,,,4361.601981751621,stop,circleblack.png,left,0.25,,,,,,,,,,,,,,,0.0014649853110313416,0.4895463213324547,0.7397007346153259,4364.104164686054,test,2,,,,,,,,,,4361.6206703186035,4362.117370035499,4362.117370035499,4362.133948102593,4362.367687866092,4362.868311598897,4363.118484098464,4364.123607989401,left,1,0.4065539948642254,0.2,,,,,,,,,,,s023,001,2024-07-26_16h07.41.452,simplestop_skeleton,2022.2.2,60.01736383330085,
$currentCorrectResponse,$currentGoStim,,,,,,,,,1,0,1,0,0,2,2,0,,,,,,,,,4364.104585774243,go,circleblack.png,left,0.2,,,,,,,,,,,,,,,0.0014555566012859344,0.4891464076936245,,4366.606663361192,test,2,,,,,,,,,,4364.123607989401,4364.620396673679,4364.620396673679,4364.636738024652,4364.820303950459,4365.320261508226,4365.62134963274,4366.6305218450725,left,1,0.41278693825006485,0.2,,,,,,,,,,,s023,001,2024-07-26_16h07.41.452,simplestop_skeleton,2022.2.2,60.01736383330085,
None,None,,,,,,,,,1,0,1,0,0,3,3,1,,,,,,,,,4366.60708655417,go,squareblack.png,right,0.2,,,,,,,,,,,,,,,0.007258433848619461,0.48990563675761223,,4369.109680261463,test,2,,,,,,,,,,4366.6305218450725,4367.122808944434,4367.122808944434,4367.139328826219,4367.322859428823,4367.823703058064,4368.123829931021,4369.128505848348,right,1,0.5398899987339973,0.2,,,,,,,,,,,s023,001,2024-07-26_16h07.41.452,simplestop_skeleton,2022.2.2,60.01736383330085,
None,None,,,,,,,,,1,0,1,0,1,0,4,2,,,,,,,,,4369.110116198659,go,squareblack.png,right,0.2,,,,,,,,,,,,,,,0.0013159438967704773,0.48937884345650673,,4371.611024718732,test,2,,,,,,,,,,4369.128505848348,4369.625294908881,4369.625294908881,4369.642280969769,4369.825845751911,4370.326164383441,4370.626755401492,4371.629576675594,right,1,0.39313412830233574,0.2,,,,,,,,,,,s023,001,2024-07-26_16h07.41.452,simplestop_skeleton,2022.2.2,60.01736383330085,
None,None,,,,,,,,,1,0,1,0,1,1,5,3,,,,,,,,,4371.611465949565,stop,circleblack.png,left,0.2,,,,,,,,,,,,,,,0.002028338611125946,0.48905690386891365,0.6895234361290932,4374.114920448512,test,2,,,,,,,,,,4371.629576675594,4372.1267872639,4372.1267872639,4372.143501486629,4372.3270749263465,4372.827759750187,4373.127875778824,4374.135714340955,left,1,0.48890919610857964,0.15,,,,,,,,,,,s023,001,2024-07-26_16h07.41.452,simplestop_skeleton,2022.2.2,60.01736383330085,
None,None,,,,,,,,,1,0,1,0,1,2,6,2,,,,,,,,,4374.115381646901,stop,squareblack.png,right,0.15,,,,,,,,,,,,,,,0.002533353865146637,0.48748593032360077,0.6375983133912086,4376.6180524118245,test,2,,,,,,,,,,4374.135714340955,4374.629598874599,4374.629598874599,4374.646256867796,4374.7798208892345,4375.280353937298,4375.630867239088,4376.639666967094,None,0,,0.2,,,,,,,,,,,s023,001,2024-07-26_16h07.41.452,simplestop_skeleton,2022.2.2,60.01736383330085,
None,None,,,,,,,,,1,0,1,0,1,3,7,1,,,,,,,,,4376.618560638279,stop,squareblack.png,right,0.2,,,,,,,,,,,,,,,0.0017290711402893066,0.486025121062994,0.6844281032681465,4379.119307454675,test,2,,,,,,,,,,4376.639666967094,4377.134366404265,4377.134366404265,4377.149338893592,4377.332660268992,4377.833131834865,4378.134765610099,4379.136275637895,None,0,,0.25,,,,,,,,,,,s023,001,2024-07-26_16h07.41.452,simplestop_skeleton,2022.2.2,60.01736383330085,
None,None,,,,,,,,,1,0,1,0,2,0,8,3,,,,,,,,,4379.119767278433,go,squareblack.png,right,0.25,,,,,,,,,,,,,,,0.0011815167963504791,0.4893777184188366,,4381.621858712286,test,2,,,,,,,,,,4379.136275637895,4379.635443050414,4379.635443050414,4379.635443050414,4379.885492600501,4380.385867010802,4380.636148832738,4381.638629682362,right,1,0.48698319867253304,0.25,,,,,,,,,,,s023,001,2024-07-26_16h07.41.452,simplestop_skeleton,2022.2.2,60.01736383330085,
None,None,,,,,,,,,1,0,1,0,2,1,9,3,,,,,,,,,4381.622292693704,go,squareblack.png,right,0.25,,,,,,,,,,,,,,,0.0012089870870113373,0.49043480306863785,,4384.124564830214,test,2,,,,,,,,,,4381.638629682362,4382.138434361666,4382.138434361666,4382.138434361666,4382.388299532235,4382.888580273837,4383.138987317681,4384.146957818419,right,1,0.415517196059227,0.25,,,,,,,,,,,s023,001,2024-07-26_16h07.41.452,simplestop_skeleton,2022.2.2,60.01736383330085,
None,None,,,,,,,,,1,0,1,0,2,2,10,3,,,,,,,,,4384.1250149048865,go,circleblack.png,left,0.25,,,,,,,,,,,,,,,0.007483143359422684,0.48973409458994865,,4386.629380568862,test,2,,,,,,,,,,4384.146957818419,4384.640650663525,4384.640650663525,4384.657273098826,4384.892232887447,4385.391398828477,4385.6417139060795,4386.6485671028495,left,1,0.3433373458683491,0.25,,,,,,,,,,,s023,001,2024-07-26_16h07.41.452,simplestop_skeleton,2022.2.2,60.01736383330085,
None,None,,,,,,,,,1,0,1,0,2,3,11,1,,,,,,,,,4386.629861295223,go,circleblack.png,left,0.25,,,,,,,,,,,,,,,0.002294205129146576,0.4861498847603798,,4389.132145319134,test,2,,,,,,,,,,4386.6485671028495,4387.143413357437,4387.143413357437,4387.160010393709,4387.393688492477,4387.894460525364,4388.144520580769,4389.153210319579,left,1,0.5021902434527874,0.25,,,,,,,,,,,s023,001,2024-07-26_16h07.41.452,simplestop_skeleton,2022.2.2,60.01736383330085,
None,None,,,,,,,,,1,0,1,0,3,0,12,1,,,,,,,,,4389.132595010102,go,squareblack.png,right,0.25,,,,,,,,,,,,,,,0.0024713613092899323,0.4866549149155617,,4391.633875288069,test,2,,,,,,,,,,4389.153210319579,4389.6461425460875,4389.6461425460875,4389.662814814597,4389.896437201649,4390.398678004742,4390.6473537273705,4391.651254545897,right,1,0.4930574744939804,0.25,,,,,,,,,,,s023,001,2024-07-26_16h07.41.452,simplestop_skeleton,2022.2.2,60.01736383330085,
$currentCorrectResponse,$currentGoStim,,,,,,,,,1,0,1,0,3,1,13,0,,,,,,,,,4391.634322814643,stop,squareblack.png,right,0.25,,,,,,,,,,,,,,,0.0015405192971229553,0.48847193270921707,0.738710030913353,4394.135798953474,test,2,,,,,,,,,,4391.651254545897,4392.14923787117,4392.14923787117,4392.165774479508,4392.399226784706,4392.900365453213,4393.151392739266,4394.153347283602,None,0,,0.3,,,,,,,,,,,s023,001,2024-07-26_16h07.41.452,simplestop_skeleton,2022.2.2,60.01736383330085,
$currentCorrectResponse,$currentGoStim,,,,,,,,,1,0,1,0,3,2,14,0,,,,,,,,,4394.13623886928,stop,circleblack.png,left,0.3,,,,,,,,,,,,,,,0.0018346793949604034,0.490663293749094,0.7904029488563538,4396.638609115034,test,2,,,,,,,,,,4394.153347283602,4394.653582472354,4394.653582472354,4394.653582472354,4394.952556382865,4395.452555913478,4395.6533657722175,4396.655456531793,left,1,0.35343262553215027,0.25,,,,,,,,,,,s023,001,2024-07-26_16h07.41.452,simplestop_skeleton,2022.2.2,60.01736383330085,
None,None,,,,,,,,,1,0,1,0,3,3,15,3,,,,,,,,,4396.639046404511,go,circleblack.png,left,0.25,,,,,,,,,,,,,,,0.0012120604515075684,0.48944975808262825,,4399.141453344375,test,2,,,,,,,,,,4396.655456531793,4397.156687777489,4397.156687777489,4397.156687777489,4397.406665712595,4397.922013089061,4398.172333210707,4399.158851001412,left,1,0.5342075489461422,0.25,,,,,,,,,,,s023,001,2024-07-26_16h07.41.452,simplestop_skeleton,2022.2.2,60.01736383330085,
None,None,,,,,,,,,1,0,1,0,4,0,16,1,,,,,,,,,4399.141912326217,go,circleblack.png,left,0.25,,,,,,,,,,,,,,,0.0012935101985931396,0.4891236163675785,,4401.6462524198,test,2,,,,,,,,,,4399.158851001412,4399.657233297825,4399.657233297825,4399.673819199204,4399.907975234091,4400.408197078854,4400.6583005562425,4401.673762511462,left,1,0.5413198880851269,0.25,,,,,,,,,,,s023,001,2024-07-26_16h07.41.452,simplestop_skeleton,2022.2.2,60.01736383330085,
None,None,,,,,,,,,1,0,1,0,4,1,17,2,,,,,,,,,4401.646705858409,stop,squareblack.png,right,0.25,,,,,,,,,,,,,,,0.008232321590185165,0.48555540665984154,0.7358775474131107,4404.148274499923,test,2,,,,,,,,,,4401.673762511462,4402.160160019994,4402.160160019994,4402.176675584167,4402.410291206092,4402.910954866558,4403.161421108991,4404.167648520321,None,0,,0.3,,,,,,,,,,,s023,001,2024-07-26_16h07.41.452,simplestop_skeleton,2022.2.2,60.01736383330085,
None,None,,,,,,,,,1,0,1,0,4,2,18,2,,,,,,,,,4404.148706678301,go,circleblack.png,left,0.3,,,,,,,,,,,,,,,0.002756040543317795,0.48752353712916374,,4406.6494728811085,test,2,,,,,,,,,,4404.167648520321,4404.66277975589,4404.66277975589,4404.679496545345,4404.963247671723,4405.464445315301,4405.663965798914,4406.666713159531,left,1,0.4353819191455841,0.3,,,,,,,,,,,s023,001,2024-07-26_16h07.41.452,simplestop_skeleton,2022.2.2,60.01736383330085,
None,None,,,,,,,,,1,0,1,0,4,3,19,3,,,,,,,,,4406.649934403598,go,squareblack.png,right,0.3,,,,,,,,,,,,,,,0.0015668012201786041,0.4899402819573879,,4409.152158692479,test,2,,,,,,,,,,4406.666713159531,4407.165646828711,4407.165646828711,4407.165646828711,4407.465795442462,4407.966360088438,4408.167625989765,4409.169350039214,right,1,0.5088817924261093,0.3,,,,,,,,,,,s023,001,2024-07-26_16h07.41.452,simplestop_skeleton,2022.2.2,60.01736383330085,
$currentCorrectResponse,$currentGoStim,,,,,,,,,1,0,1,0,5,0,20,0,,,,,,,,,4409.152602408081,stop,circleblack.png,left,0.3,,,,,,,,,,,,,,,0.001712154597043991,0.4907909892499447,0.7920322716236115,4411.65521844849,test,2,,,,,,,,,,4409.169350039214,4409.669623307884,4409.669623307884,4409.669623307884,4409.970387428999,4410.485917579383,4410.669351849705,4411.672751303762,left,1,0.39805764704942703,0.25,,,,,,,,,,,s023,001,2024-07-26_16h07.41.452,simplestop_skeleton,2022.2.2,60.01736383330085,
None,None,,,,,,,,,1,0,1,0,5,1,21,1,,,,,,,,,4411.655649498105,go,squareblack.png,right,0.25,,,,,,,,,,,,,,,0.001591406762599945,0.4895560294389725,,4414.157843198627,test,2,,,,,,,,,,4411.672751303762,4412.171094831079,4412.171094831079,4412.18762698397,4412.421591058373,4412.921891704202,4413.1721267700195,4414.17458223924,right,1,0.6311204060912132,0.25,,,,,,,,,,,s023,001,2024-07-26_16h07.41.452,simplestop_skeleton,2022.2.2,60.01736383330085,
None,None,,,,,,,,,1,0,1,0,5,2,22,1,,,,,,,,,4414.158284239471,go,squareblack.png,right,0.25,,,,,,,,,,,,,,,0.0011695288121700287,0.48971375450491905,,4416.662343502045,test,2,,,,,,,,,,4414.17458223924,4414.673818871379,4414.673818871379,4414.673818871379,4414.924046572298,4415.426914501935,4415.674880970269,4416.683466516435,right,1,0.6125271767377853,0.25,,,,,,,,,,,s023,001,2024-07-26_16h07.41.452,simplestop_skeleton,2022.2.2,60.01736383330085,
None,None,,,,,,,,,1,0,1,0,5,3,23,3,,,,,,,,,4416.6628015860915,go,circleblack.png,left,0.25,,,,,,,,,,,,,,,0.0026591457426548004,0.48672229424118996,,4419.1640135496855,test,2,,,,,,,,,,4416.683466516435,4417.176519710571,4417.176519710571,4417.193202909082,4417.426841858774,4417.92872325331,4418.17773976922,4419.182440217584,left,1,0.5715207420289516,0.25,,,,,,,,,,,s023,001,2024-07-26_16h07.41.452,simplestop_skeleton,2022.2.2,60.01736383330085,
$currentCorrectResponse,$currentGoStim,,,,,,,,,1,0,1,0,6,0,24,0,,,,,,,,,4419.164465367794,go,circleblack.png,left,0.25,,,,,,,,,,,,,,,0.0014478377997875214,0.48985549062490463,,4421.666173532605,test,2,,,,,,,,,,4419.182440217584,4419.681142300367,4419.681142300367,4419.697872579098,4419.929587133229,4420.430612374097,4420.681802421808,4421.68280268088,left,1,0.6197254322469234,0.25,,,,,,,,,,,s023,001,2024-07-26_16h07.41.452,simplestop_skeleton,2022.2.2,60.01736383330085,
$currentCorrectResponse,$currentGoStim,,,,,,,,,1,0,1,0,6,1,25,0,,,,,,,,,4421.666616991162,go,circleblack.png,left,0.25,,,,,,,,,,,,,,,0.0012166164815425873,0.4907960146665573,,4424.168785218149,test,2,,,,,,,,,,4421.68280268088,4422.184108708054,4422.184108708054,4422.184108708054,4422.43373291567,4422.932948797941,4423.183124139905,4424.185525570065,left,1,0.5954774580895901,0.25,,,,,,,,,,,s023,001,2024-07-26_16h07.41.452,simplestop_skeleton,2022.2.2,60.01736383330085,
None,None,,,,,,,,,1,0,1,0,6,2,26,3,,,,,,,,,4424.169216349721,stop,circleblack.png,left,0.25,,,,,,,,,,,,,,,0.0012544244527816772,0.4895498678088188,0.7414242327213287,4426.672003351152,test,2,,,,,,,,,,4424.185525570065,4424.684733670205,4424.684733670205,4424.684733670205,4424.936595581472,4425.435642816126,4425.6859074272215,4426.689469803125,None,0,,0.3,,,,,,,,,,,s023,001,2024-07-26_16h07.41.452,simplestop_skeleton,2022.2.2,60.01736383330085,
None,None,,,,,,,,,1,0,1,0,6,3,27,2,,,,,,,,,4426.672450438142,go,circleblack.png,left,0.3,,,,,,,,,,,,,,,0.0012538433074951172,0.48886265233159065,,4429.17614550516,test,2,,,,,,,,,,4426.689469803125,4427.1876969225705,4427.1876969225705,4427.204222094268,4427.488652974367,4427.98865173012,4428.188819993287,4429.197635523975,left,1,0.4867268018424511,0.3,,,,,,,,,,,s023,001,2024-07-26_16h07.41.452,simplestop_skeleton,2022.2.2,60.01736383330085,
None,None,,,,,,,,,1,0,1,0,7,0,28,2,,,,,,,,,4429.176858253777,go,squareblack.png,right,0.3,,,,,,,,,,,,,,,0.0024366863071918488,0.48499826714396477,,4431.677820820361,test,2,,,,,,,,,,4429.197635523975,4429.690817981958,4429.690817981958,4429.707441009581,4429.991186968982,4430.491633623838,4430.692235022783,4431.696135301143,right,1,0.6077448390424252,0.3,,,,,,,,,,,s023,001,2024-07-26_16h07.41.452,simplestop_skeleton,2022.2.2,60.01736383330085,
None,None,,,,,,,,,1,0,1,0,7,1,29,1,,,,,,,,,4431.678593426943,stop,circleblack.png,left,0.3,,,,,,,,,,,,,,,0.0017113052308559418,0.49016691744327545,0.7885540872812271,4434.180054653436,test,2,,,,,,,,,,4431.696135301143,4432.194972399622,4432.194972399622,4432.211856987327,4432.493554241955,4432.993983946741,4433.194199811667,4434.2110969386995,None,0,,0.35,,,,,,,,,,,s023,001,2024-07-26_16h07.41.452,simplestop_skeleton,2022.2.2,60.01736383330085,
None,None,,,,,,,,,1,0,1,0,7,2,30,3,,,,,,,,,4434.180492527783,go,circleblack.png,left,0.35,,,,,,,,,,,,,,,0.0012458376586437225,0.4893534369766712,,4436.682557951659,test,2,,,,,,,,,,4434.2110969386995,4434.696039713919,4434.696039713919,4434.71285090968,4435.046438589692,4435.546754926443,4435.6972217820585,4436.700366232544,left,1,0.4656723625957966,0.35,,,,,,,,,,,s023,001,2024-07-26_16h07.41.452,simplestop_skeleton,2022.2.2,60.01736383330085,
None,None,,,,,,,,,1,0,1,0,7,3,31,1,,,,,,,,,4436.683013044298,go,squareblack.png,right,0.35,,,,,,,,,,,,,,,0.001702878624200821,0.48944153264164925,,4439.187332756817,test,2,,,,,,,,,,4436.700366232544,4437.198688082397,4437.198688082397,4437.2153394296765,4437.550128497183,4438.049527045339,4438.199691668153,4439.208207018673,right,1,0.6557482481002808,0.35,,,,,,,,,,,s023,001,2024-07-26_16h07.41.452,simplestop_skeleton,2022.2.2,60.01736383330085,
None,None,,,,,,,,,1,0,1,0,8,0,32,3,,,,,,,,,4439.187783051282,go,squareblack.png,right,0.35,,,,,,,,,,,,,,,0.002075914293527603,0.4863055609166622,,4441.6893577203155,test,2,,,,,,,,,,4439.208207018673,4439.701362255961,4439.701362255961,4439.718231849372,4440.0517281368375,4440.5524243712425,4440.7027930654585,4441.707715500146,right,1,0.6136813350021839,0.35,,,,,,,,,,,s023,001,2024-07-26_16h07.41.452,simplestop_skeleton,2022.2.2,60.01736383330085,
$currentCorrectResponse,$currentGoStim,,,,,,,,,1,0,1,0,8,1,33,0,,,,,,,,,4441.689798612148,go,squareblack.png,right,0.35,,,,,,,,,,,,,,,0.001553121954202652,0.4879334419965744,,4444.193380780518,test,2,,,,,,,,,,4441.707715500146,4442.20414641127,4442.20414641127,4442.2208566479385,4442.554529607296,4443.055208999664,4443.205373346806,4444.210911151022,right,1,0.7081196382641792,0.35,,,,,,,,,,,s023,001,2024-07-26_16h07.41.452,simplestop_skeleton,2022.2.2,60.01736383330085,
None,None,,,,,,,,,1,0,1,0,8,2,34,2,,,,,,,,,4444.193810425699,stop,squareblack.png,right,0.35,,,,,,,,,,,,,,,0.00184684619307518,0.48845167458057404,0.8370699808001518,4446.693770058453,test,2,,,,,,,,,,4444.210911151022,4444.708748869598,4444.708748869598,4444.7253899388015,4445.05723484233,4445.557989768684,4445.709023360163,4446.710516780615,right,1,0.544517993927002,0.3,,,,,,,,,,,s023,001,2024-07-26_16h07.41.452,simplestop_skeleton,2022.2.2,60.01736383330085,
None,None,,,,,,,,,1,0,1,0,8,3,35,3,,,,,,,,,4446.694230172783,stop,squareblack.png,right,0.3,,,,,,,,,,,,,,,0.0011801160871982574,0.49058564007282257,0.7917120382189751,4449.1963900998235,test,2,,,,,,,,,,4446.710516780615,4447.211001768708,4447.211001768708,4447.211001768708,4447.511863503605,4448.027251623571,4448.210781823844,4449.213223800063,None,0,,0.35,,,,,,,,,,,s023,001,2024-07-26_16h07.41.452,simplestop_skeleton,2022.2.2,60.01736383330085,
$currentCorrectResponse,$currentGoStim,,,,,,,,,1,0,1,0,9,0,36,0,,,,,,,,,4449.1968218535185,stop,squareblack.png,right,0.35,,,,,,,,,,,,,,,0.00117453932762146,0.4895228035748005,0.8410551697015762,4451.70135281235,test,2,,,,,,,,,,4449.213223800063,4449.712462160736,4449.712462160736,4449.712462160736,4450.064248390496,4450.563394464552,4450.713454067707,4451.722203046083,None,0,,0.4,,,,,,,,,,,s023,001,2024-07-26_16h07.41.452,simplestop_skeleton,2022.2.2,60.01736383330085,
$currentCorrectResponse,$currentGoStim,,,,,,,,,1,0,1,0,9,1,37,0,,,,,,,,,4451.701808407903,go,squareblack.png,right,0.4,,,,,,,,,,,,,,,0.0019190981984138489,0.4860732704401016,,4454.203068267554,test,2,,,,,,,,,,4451.722203046083,4452.215164992958,4452.215164992958,4452.231839574873,4452.615832418203,4453.117955926806,4453.218297738582,4454.221919696778,right,1,0.5909663550555706,0.4,,,,,,,,,,,s023,001,2024-07-26_16h07.41.452,simplestop_skeleton,2022.2.2,60.01736383330085,
$currentCorrectResponse,$currentGoStim,,,,,,,,,1,0,1,0,9,2,38,0,,,,,,,,,4454.203529141843,go,circleblack.png,left,0.4,,,,,,,,,,,,,,,0.0025691986083984375,0.4894343465566635,,4456.704609744251,test,2,,,,,,,,,,4454.221919696778,4454.719928052276,4454.719928052276,4454.7346349693835,4455.1183931306,4455.618937365711,4455.719222638756,4456.72151600942,left,1,0.7217300273478031,0.4,,,,,,,,,,,s023,001,2024-07-26_16h07.41.452,simplestop_skeleton,2022.2.2,60.01736383330085,
None,None,,,,,,,,,1,0,1,0,9,3,39,3,,,,,,,,,4456.705040037632,stop,circleblack.png,left,0.4,,,,,,,,,,,,,,,0.0012444518506526947,0.4918530248105526,0.890271931886673,4459.2076607346535,test,2,,,,,,,,,,4456.72151600942,4457.222684752196,4457.222684752196,4457.222684752196,4457.621202658862,4458.121726926416,4458.222289565951,4459.22513423115,left,1,0.5288539789617062,0.35,,,,,,,,,,,s023,001,2024-07-26_16h07.41.452,simplestop_skeleton,2022.2.2,60.01736383330085,
None,None,,,,,,,,,1,0,1,0,10,0,40,1,,,,,,,,,4459.208121098578,go,squareblack.png,right,0.35,,,,,,,,,,,,,,,0.0016948767006397247,0.4894135221838951,,4461.710358958691,test,2,,,,,,,,,,4459.22513423115,4459.723511893302,4459.723511893302,4459.74019004032,4460.074377004057,4460.574399031699,4460.724582683295,4461.728481475264,right,1,0.7257432118058205,0.35,,,,,,,,,,,s023,001,2024-07-26_16h07.41.452,simplestop_skeleton,2022.2.2,60.01736383330085,
None,None,,,,,,,,,1,0,1,0,10,1,41,2,,,,,,,,,4461.7108254134655,stop,circleblack.png,left,0.35,,,,,,,,,,,,,,,0.0018966905772686005,0.48924804851412773,0.8396098129451275,4464.215205166489,test,2,,,,,,,,,,4461.728481475264,4462.226337727159,4462.226337727159,4462.242912214249,4462.57666086033,4463.077379573137,4463.227351389825,4464.235833451152,left,1,0.5192974470555782,0.3,,,,,,,,,,,s023,001,2024-07-26_16h07.41.452,simplestop_skeleton,2022.2.2,60.01736383330085,
None,None,,,,,,,,,1,0,1,0,10,2,42,2,,,,,,,,,4464.215667318553,go,circleblack.png,left,0.3,,,,,,,,,,,,,,,0.001949850469827652,0.4863247498869896,,4466.71668086946,test,2,,,,,,,,,,4464.235833451152,4464.729022655636,4464.729022655636,4464.745668463409,4465.0295006632805,4465.53030211851,4465.730301097035,4466.73344739154,left,1,0.6750052608549595,0.3,,,,,,,,,,,s023,001,2024-07-26_16h07.41.452,simplestop_skeleton,2022.2.2,60.01736383330085,
$currentCorrectResponse,$currentGoStim,,,,,,,,,1,0,1,0,10,3,43,0,,,,,,,,,4466.717109192163,go,circleblack.png,left,0.3,,,,,,,,,,,,,,,0.0012852810323238373,0.4887302368879318,,4469.218643601984,test,2,,,,,,,,,,4466.73344739154,4467.231914605945,4467.231914605945,4467.24873014912,4467.532149396837,4468.035250883549,4468.234173011035,4469.235448464751,left,1,0.6517655923962593,0.3,,,,,,,,,,,s023,001,2024-07-26_16h07.41.452,simplestop_skeleton,2022.2.2,60.01736383330085,
None,None,,,,,,,,,1,0,1,0,11,0,44,2,,,,,,,,,4469.219100240618,go,circleblack.png,left,0.3,,,,,,,,,,,,,,,0.001308295875787735,0.48969340324401855,,4471.72139120847,test,2,,,,,,,,,,4469.235448464751,4469.734628468752,4469.734628468752,4469.734628468752,4470.035101868212,4470.535495691001,4470.7355860807,4471.743562810123,left,1,0.6534299105405807,0.3,,,,,,,,,,,s023,001,2024-07-26_16h07.41.452,simplestop_skeleton,2022.2.2,60.01736383330085,
None,None,,,,,,,,,1,0,1,0,11,1,45,1,,,,,,,,,4471.721826795489,stop,squareblack.png,right,0.3,,,,,,,,,,,,,,,0.007214397192001343,0.4895242378115654,0.7910284847021103,4474.226231057197,test,2,,,,,,,,,,4471.743562810123,4472.237302206457,4472.237302206457,4472.254370443523,4472.538921114057,4473.038202326745,4473.238333396614,4474.247481051832,None,0,,0.35,,,,,,,,,,,s023,001,2024-07-26_16h07.41.452,simplestop_skeleton,2022.2.2,60.01736383330085,
None,None,,,,,,,,,1,0,1,0,11,2,46,1,,,,,,,,,4474.22669762373,go,squareblack.png,right,0.35,,,,,,,,,,,,,,,0.0023635849356651306,0.4860358238220215,,4476.729114752263,test,2,,,,,,,,,,4474.247481051832,4474.740085359663,4474.740085359663,4474.756672862917,4475.09041262418,4475.591045208275,4475.741332322359,4476.746684245765,right,1,0.6023545227944851,0.35,,,,,,,,,,,s023,001,2024-07-26_16h07.41.452,simplestop_skeleton,2022.2.2,60.01736383330085,
None,None,,,,,,,,,1,0,1,0,11,3,47,2,,,,,,,,,4476.729628928006,go,squareblack.png,right,0.35,,,,,,,,,,,,,,,0.001711130142211914,0.4869002029299736,,4479.229486964643,test,2,,,,,,,,,,4476.746684245765,4477.242811847478,4477.242811847478,4477.259512454271,4477.593212541193,4478.0960850305855,4478.244998309761,4479.245135527104,right,1,0.6902792938053608,0.35,,,,,,,,,,,s023,001,2024-07-26_16h07.41.452,simplestop_skeleton,2022.2.2,60.01736383330085,
,,,,,,,,,,1,0,1,0,,,,,,,,,,,,,,,,,,,,,,,,,,,,,,,,,,,,,,,,,,,,,,,,,,,,,,,,,,,4479.245135527104,4479.245135527104,return,10.227605227380991,"[{'fileName': 'squareblack.png', 'correct_response': 'right', 'condition': 'go'}, {'fileName': 'squareblack.png', 'correct_response': 'right', 'condition': 'go'}, {'fileName': 'circleblack.png', 'correct_response': 'left', 'condition': 'go'}, {'fileName': 'circleblack.png', 'correct_response': 'left', 'condition': 'go'}, {'fileName': 'circleblack.png', 'correct_response': 'left', 'condition': 'go'}, {'fileName': 'squareblack.png', 'correct_response': 'right', 'condition': 'stop'}, {'fileName': 'circleblack.png', 'correct_response': 'left', 'condition': 'stop'}, {'fileName': 'circleblack.png', 'correct_response': 'left', 'condition': 'go'}, {'fileName': 'circleblack.png', 'correct_response': 'left', 'condition': 'stop'}, {'fileName': 'squareblack.png', 'correct_response': 'right', 'condition': 'stop'}, {'fileName': 'squareblack.png', 'correct_response': 'right', 'condition': 'go'}, {'fileName': 'squareblack.png', 'correct_response': 'right', 'condition': 'go'}, {'fileName': 'squareblack.png', 'correct_response': 'right', 'condition': 'go'}, {'fileName': 'squareblack.png', 'correct_response': 'right', 'condition': 'go'}, {'fileName': 'circleblack.png', 'correct_response': 'left', 'condition': 'go'}, {'fileName': 'squareblack.png', 'correct_response': 'right', 'condition': 'stop'}, {'fileName': 'circleblack.png', 'correct_response': 'left', 'condition': 'go'}, {'fileName': 'circleblack.png', 'correct_response': 'left', 'condition': 'go'}, {'fileName': 'squareblack.png', 'correct_response': 'right', 'condition': 'stop'}, {'fileName': 'squareblack.png', 'correct_response': 'right', 'condition': 'go'}, {'fileName': 'circleblack.png', 'correct_response': 'left', 'condition': 'stop'}, {'fileName': 'squareblack.png', 'correct_response': 'right', 'condition': 'go'}, {'fileName': 'circleblack.png', 'correct_response': 'left', 'condition': 'go'}, {'fileName': 'circleblack.png', 'correct_response': 'left', 'condition': 'stop'}, {'fileName': 'squareblack.png', 'correct_response': 'right', 'condition': 'go'}, {'fileName': 'circleblack.png', 'correct_response': 'left', 'condition': 'go'}, {'fileName': 'circleblack.png', 'correct_response': 'left', 'condition': 'stop'}, {'fileName': 'circleblack.png', 'correct_response': 'left', 'condition': 'go'}, {'fileName': 'circleblack.png', 'correct_response': 'left', 'condition': 'stop'}, {'fileName': 'squareblack.png', 'correct_response': 'right', 'condition': 'go'}, {'fileName': 'squareblack.png', 'correct_response': 'right', 'condition': 'stop'}, {'fileName': 'circleblack.png', 'correct_response': 'left', 'condition': 'go'}, {'fileName': 'squareblack.png', 'correct_response': 'right', 'condition': 'go'}, {'fileName': 'squareblack.png', 'correct_response': 'right', 'condition': 'go'}, {'fileName': 'circleblack.png', 'correct_response': 'left', 'condition': 'go'}, {'fileName': 'squareblack.png', 'correct_response': 'right', 'condition': 'stop'}, {'fileName': 'circleblack.png', 'correct_response': 'left', 'condition': 'go'}, {'fileName': 'squareblack.png', 'correct_response': 'right', 'condition': 'go'}, {'fileName': 'circleblack.png', 'correct_response': 'left', 'condition': 'stop'}, {'fileName': 'circleblack.png', 'correct_response': 'left', 'condition': 'stop'}, {'fileName': 'squareblack.png', 'correct_response': 'right', 'condition': 'stop'}, {'fileName': 'squareblack.png', 'correct_response': 'right', 'condition': 'go'}, {'fileName': 'squareblack.png', 'correct_response': 'right', 'condition': 'go'}, {'fileName': 'squareblack.png', 'correct_response': 'right', 'condition': 'go'}, {'fileName': 'circleblack.png', 'correct_response': 'left', 'condition': 'go'}, {'fileName': 'circleblack.png', 'correct_response': 'left', 'condition': 'go'}, {'fileName': 'squareblack.png', 'correct_response': 'right', 'condition': 'stop'}, {'fileName': 'circleblack.png', 'correct_response': 'left', 'condition': 'go'}]",,,,,,s023,001,2024-07-26_16h07.41.452,simplestop_skeleton,2022.2.2,60.01736383330085,
None,None,,,,,,,,,2,0,2,0,0,0,0,2,,,,,,,,,4489.492030959576,go,squareblack.png,right,0.35,,,,,,,,,,,,,,,0.0012336932122707367,0.4904479384422302,,4491.995541349053,test,3,,,,,,,,,,4489.510460626334,4490.008314307779,4490.008314307779,4490.02485139668,4490.35872168839,4490.859299618751,4491.0096774585545,4492.014435097575,right,1,0.6859723888337612,0.35,,,,,,,,,,,s023,001,2024-07-26_16h07.41.452,simplestop_skeleton,2022.2.2,60.01736383330085,
None,None,,,,,,,,,2,0,2,0,0,1,1,2,,,,,,,,,4491.996089078486,go,squareblack.png,right,0.35,,,,,,,,,,,,,,,0.0013229474425315857,0.48949146270751953,,4494.496314745396,test,3,,,,,,,,,,4492.014435097575,4492.511216707528,4492.511216707528,4492.527821294963,4492.861890483648,4493.377810616046,4493.510930318385,4494.519189823419,right,1,0.5193121992051601,0.35,,,,,,,,,,,s023,001,2024-07-26_16h07.41.452,simplestop_skeleton,2022.2.2,60.01736383330085,
None,None,,,,,,,,,2,0,2,0,0,2,2,1,,,,,,,,,4494.496747534722,go,circleblack.png,left,0.35,,,,,,,,,,,,,,,0.007524508982896805,0.48980531841516495,,4496.9991649873555,test,3,,,,,,,,,,4494.519189823419,4495.0127099864185,4495.0127099864185,4495.029285419732,4495.362841024995,4495.8634717054665,4496.013547576964,4497.016135212034,left,1,0.41830479726195335,0.35,,,,,,,,,,,s023,001,2024-07-26_16h07.41.452,simplestop_skeleton,2022.2.2,60.01736383330085,
None,None,,,,,,,,,2,0,2,0,0,3,3,1,,,,,,,,,4496.999607138336,go,circleblack.png,left,0.35,,,,,,,,,,,,,,,0.001247640699148178,0.49014411866664886,,4499.502096295357,test,3,,,,,,,,,,4497.016135212034,4497.516014881432,4497.516014881432,4497.516014881432,4497.867336340249,4498.382857121527,4498.516382157803,4499.520902350545,left,1,0.5363280810415745,0.35,,,,,,,,,,,s023,001,2024-07-26_16h07.41.452,simplestop_skeleton,2022.2.2,60.01736383330085,
None,None,,,,,,,,,2,0,2,0,1,0,4,1,,,,,,,,,4499.502539075911,go,circleblack.png,left,0.35,,,,,,,,,,,,,,,0.0014344416558742523,0.4882138632237911,,4502.005792614073,test,3,,,,,,,,,,4499.520902350545,4500.017839413136,4500.017839413136,4500.03472673893,4500.368368059397,4500.86902756989,4501.018972888589,4502.026321128011,left,1,0.4277127608656883,0.35,,,,,,,,,,,s023,001,2024-07-26_16h07.41.452,simplestop_skeleton,2022.2.2,60.01736383330085,
$currentCorrectResponse,$currentGoStim,,,,,,,,,2,0,2,0,1,1,5,0,,,,,,,,,4502.006241977215,stop,squareblack.png,right,0.35,,,,,,,,,,,,,,,0.004044830799102783,0.48778875172138214,0.8381392545998096,4504.507662173361,test,3,,,,,,,,,,4502.026321128011,4502.520728241652,4502.520728241652,4502.537373755127,4502.87112319842,4503.37347407639,4503.522723801434,4504.525025062263,None,0,,0.4,,,,,,,,,,,s023,001,2024-07-26_16h07.41.452,simplestop_skeleton,2022.2.2,60.01736383330085,
None,None,,,,,,,,,2,0,2,0,1,2,6,1,,,,,,,,,4504.508101694286,stop,circleblack.png,left,0.4,,,,,,,,,,,,,,,0.0017385967075824738,0.4894138388335705,0.8896989934146404,4507.010147057474,test,3,,,,,,,,,,4504.525025062263,4505.023766994476,4505.023766994476,4505.040429059416,4505.4238771647215,4505.924485556781,4506.024598531425,4507.027068730444,left,1,0.49651216715574265,0.35,,,,,,,,,,,s023,001,2024-07-26_16h07.41.452,simplestop_skeleton,2022.2.2,60.01736383330085,
None,None,,,,,,,,,2,0,2,0,1,3,7,1,,,,,,,,,4507.010575354099,go,circleblack.png,left,0.35,,,,,,,,,,,,,,,0.0012331493198871613,0.4896076060831547,,4509.513210158795,test,3,,,,,,,,,,4507.027068730444,4507.526183761656,4507.526183761656,4507.526183761656,4507.878554802388,4508.393721435219,4508.5272833146155,4509.530871905386,left,1,0.6554812118411064,0.35,,,,,,,,,,,s023,001,2024-07-26_16h07.41.452,simplestop_skeleton,2022.2.2,60.01736383330085,
$currentCorrectResponse,$currentGoStim,,,,,,,,,2,0,2,0,2,0,8,0,,,,,,,,,4509.513653267175,stop,circleblack.png,left,0.35,,,,,,,,,,,,,,,0.0012975707650184631,0.4891047030687332,0.8393839187920094,4512.01703741774,test,3,,,,,,,,,,4509.530871905386,4510.029116854072,4510.029116854072,4510.045677069575,4510.379308439791,4510.880074348301,4511.030065026134,4512.042745035142,left,1,0.4918905906379223,0.3,,,,,,,,,,,s023,001,2024-07-26_16h07.41.452,simplestop_skeleton,2022.2.2,60.01736383330085,
None,None,,,,,,,,,2,0,2,0,2,1,9,1,,,,,,,,,4512.017484653741,stop,squareblack.png,right,0.3,,,,,,,,,,,,,,,0.007403641939163208,0.48750773444771767,0.7878161668777466,4514.519140295684,test,3,,,,,,,,,,4512.042745035142,4512.531757034361,4512.531757034361,4512.548515401781,4512.832108356059,4513.333473600447,4513.532945405692,4514.535837713629,None,0,,0.35,,,,,,,,,,,s023,001,2024-07-26_16h07.41.452,simplestop_skeleton,2022.2.2,60.01736383330085,
None,None,,,,,,,,,2,0,2,0,2,2,10,3,,,,,,,,,4514.519592292607,go,squareblack.png,right,0.35,,,,,,,,,,,,,,,0.0011897571384906769,0.49093443900346756,,4517.021198518574,test,3,,,,,,,,,,4514.535837713629,4515.036381844431,4515.036381844431,4515.036381844431,4515.385005746037,4515.885810490698,4516.03634095192,4517.0379987843335,right,1,0.5735618472099304,0.35,,,,,,,,,,,s023,001,2024-07-26_16h07.41.452,simplestop_skeleton,2022.2.2,60.01736383330085,
$currentCorrectResponse,$currentGoStim,,,,,,,,,2,0,2,0,2,3,11,0,,,,,,,,,4517.021629981697,go,squareblack.png,right,0.35,,,,,,,,,,,,,,,0.0011676400899887085,0.48969608545303345,,4519.5263322889805,test,3,,,,,,,,,,4517.0379987843335,4517.537201315165,4517.537201315165,4517.537201315165,4517.888875387609,4518.389848478138,4518.538355153054,4519.546898812056,right,1,0.6582049056887627,0.35,,,,,,,,,,,s023,001,2024-07-26_16h07.41.452,simplestop_skeleton,2022.2.2,60.01736383330085,
$currentCorrectResponse,$currentGoStim,,,,,,,,,2,0,2,0,3,0,12,0,,,,,,,,,4519.5267842672765,go,squareblack.png,right,0.35,,,,,,,,,,,,,,,0.0018617473542690277,0.48627208545804024,,4522.026757601649,test,3,,,,,,,,,,4519.546898812056,4520.040009006858,4520.040009006858,4520.056734770536,4520.390377100557,4520.891023088247,4521.041265267879,4522.044820860028,right,1,0.5240919291973114,0.35,,,,,,,,,,,s023,001,2024-07-26_16h07.41.452,simplestop_skeleton,2022.2.2,60.01736383330085,
None,None,,,,,,,,,2,0,2,0,3,1,13,1,,,,,,,,,4522.027187138796,go,squareblack.png,right,0.35,,,,,,,,,,,,,,,0.0011851750314235687,0.4888598844408989,,4524.529426924884,test,3,,,,,,,,,,4522.044820860028,4522.543012160808,4522.543012160808,4522.559742707759,4522.893157549202,4523.39364778623,4523.544617533684,4524.551935315132,right,1,0.5530307590961456,0.35,,,,,,,,,,,s023,001,2024-07-26_16h07.41.452,simplestop_skeleton,2022.2.2,60.01736383330085,
None,None,,,,,,,,,2,0,2,0,3,2,14,3,,,,,,,,,4524.529856793582,go,circleblack.png,left,0.35,,,,,,,,,,,,,,,0.007562942802906036,0.4909261092543602,,4527.032217383385,test,3,,,,,,,,,,4524.551935315132,4525.046795576811,4525.046795576811,4525.063362263143,4525.397829692811,4525.913376670331,4526.046757403761,4527.0496075078845,left,1,0.6390755325555801,0.35,,,,,,,,,,,s023,001,2024-07-26_16h07.41.452,simplestop_skeleton,2022.2.2,60.01736383330085,
None,None,,,,,,,,,2,0,2,0,3,3,15,3,,,,,,,,,4527.032647058368,stop,squareblack.png,right,0.35,,,,,,,,,,,,,,,0.001624520868062973,0.48950306326150894,0.8405862413346767,4529.536403648555,test,3,,,,,,,,,,4527.0496075078845,4527.548320349306,4527.548320349306,4527.564896199852,4527.899558786303,4528.399386480451,4528.54942587018,4529.556078981608,None,0,,0.4,,,,,,,,,,,s023,001,2024-07-26_16h07.41.452,simplestop_skeleton,2022.2.2,60.01736383330085,
None,None,,,,,,,,,2,0,2,0,4,0,16,2,,,,,,,,,4529.536865171045,go,circleblack.png,left,0.4,,,,,,,,,,,,,,,0.0024003498256206512,0.48631682991981506,,4532.038364071399,test,3,,,,,,,,,,4529.556078981608,4530.05094492808,4530.05094492808,4530.067711688578,4530.4515642896295,4530.952046763152,4531.0522755384445,4532.057596448809,left,1,0.4595704637467861,0.4,,,,,,,,,,,s023,001,2024-07-26_16h07.41.452,simplestop_skeleton,2022.2.2,60.01736383330085,
$currentCorrectResponse,$currentGoStim,,,,,,,,,2,0,2,0,4,1,17,0,,,,,,,,,4532.038865473121,go,circleblack.png,left,0.4,,,,,,,,,,,,,,,0.001742299646139145,0.4881155304610729,,4534.5406321026385,test,3,,,,,,,,,,4532.057596448809,4532.55415463075,4532.55415463075,4532.570799630135,4532.954261038452,4533.455002050847,4533.554974030703,4534.557821754366,left,1,0.4090598486363888,0.4,,,,,,,,,,,s023,001,2024-07-26_16h07.41.452,simplestop_skeleton,2022.2.2,60.01736383330085,
None,None,,,,,,,,,2,0,2,0,4,2,18,2,,,,,,,,,4534.541076626629,stop,squareblack.png,right,0.4,,,,,,,,,,,,,,,0.0016112923622131348,0.4894055910408497,0.891737524420023,4537.04534034431,test,3,,,,,,,,,,4534.557821754366,4535.056509926915,4535.056509926915,4535.07319669053,4535.458938356489,4535.974230363965,4536.057598274201,4537.063006915152,None,0,,0.45,,,,,,,,,,,s023,001,2024-07-26_16h07.41.452,simplestop_skeleton,2022.2.2,60.01736383330085,
None,None,,,,,,,,,2,0,2,0,4,3,19,3,,,,,,,,,4537.045790936798,go,squareblack.png,right,0.45,,,,,,,,,,,,,,,0.001595575362443924,0.4873591475188732,,4539.547949902713,test,3,,,,,,,,,,4537.063006915152,4537.559326786548,4537.559326786548,4537.575973957777,4538.010833077133,4538.510695781559,4538.560613393784,4539.569948989898,right,1,0.5873622000217438,0.45,,,,,,,,,,,s023,001,2024-07-26_16h07.41.452,simplestop_skeleton,2022.2.2,60.01736383330085,
None,None,,,,,,,,,2,0,2,0,5,0,20,2,,,,,,,,,4539.548763107508,stop,circleblack.png,left,0.45,,,,,,,,,,,,,,,0.002597033977508545,0.48607680201530457,0.9345725327730179,4542.04920104146,test,3,,,,,,,,,,4539.569948989898,4540.063873078674,4540.063873078674,4540.078818697482,4540.512595292181,4541.013268455863,4541.063368301839,4542.066157523543,left,1,0.6258883662521839,0.4,,,,,,,,,,,s023,001,2024-07-26_16h07.41.452,simplestop_skeleton,2022.2.2,60.01736383330085,
$currentCorrectResponse,$currentGoStim,,,,,,,,,2,0,2,0,5,1,21,0,,,,,,,,,4542.0496359393,go,squareblack.png,right,0.4,,,,,,,,,,,,,,,0.0018198490142822266,0.490235798060894,,4544.551606956869,test,3,,,,,,,,,,4542.066157523543,4542.56602986902,4542.56602986902,4542.56602986902,4542.965475015342,4543.46584591642,4543.566012270749,4544.568926602602,right,1,0.6465768218040466,0.4,,,,,,,,,,,s023,001,2024-07-26_16h07.41.452,simplestop_skeleton,2022.2.2,60.01736383330085,
None,None,,,,,,,,,2,0,2,0,5,2,22,1,,,,,,,,,4544.552055809647,go,circleblack.png,left,0.4,,,,,,,,,,,,,,,0.001715186983346939,0.48979733139276505,,4547.055295459926,test,3,,,,,,,,,,4544.568926602602,4545.067646358162,4545.067646358162,4545.084376249462,4545.468933556229,4545.968795530498,4546.0687168985605,4547.073688685894,left,1,0.4938030131161213,0.4,,,,,,,,,,,s023,001,2024-07-26_16h07.41.452,simplestop_skeleton,2022.2.2,60.01736383330085,
None,None,,,,,,,,,2,0,2,0,5,3,23,3,,,,,,,,,4547.055730480701,stop,circleblack.png,left,0.4,,,,,,,,,,,,,,,0.001505821943283081,0.48801594972610474,0.888490866869688,4549.55714732036,test,3,,,,,,,,,,4547.073688685894,4547.5703049227595,4547.5703049227595,4547.587057892233,4547.970802500844,4548.472634818405,4548.572821721435,4549.574512243271,None,0,,0.45,,,,,,,,,,,s023,001,2024-07-26_16h07.41.452,simplestop_skeleton,2022.2.2,60.01736383330085,
None,None,,,,,,,,,2,0,2,0,6,0,24,1,,,,,,,,,4549.557591170073,go,squareblack.png,right,0.45,,,,,,,,,,,,,,,0.0017357803881168365,0.49050943553447723,,4552.059823278338,test,3,,,,,,,,,,4549.574512243271,4550.074579451233,4550.074579451233,4550.074579451233,4550.523648377508,4551.024150893092,4551.074245329946,4552.077500961721,right,1,0.6371718496084213,0.45,,,,,,,,,,,s023,001,2024-07-26_16h07.41.452,simplestop_skeleton,2022.2.2,60.01736383330085,
None,None,,,,,,,,,2,0,2,0,6,1,25,1,,,,,,,,,4552.060269538313,go,circleblack.png,left,0.45,,,,,,,,,,,,,,,0.0018300078809261322,0.48993946611881256,,4554.563608463854,test,3,,,,,,,,,,4552.077500961721,4552.575939320028,4552.575939320028,4552.592541459948,4553.027478899807,4553.5268959365785,4553.577023956925,4554.582740269601,left,1,0.6379921920597553,0.45,,,,,,,,,,,s023,001,2024-07-26_16h07.41.452,simplestop_skeleton,2022.2.2,60.01736383330085,
$currentCorrectResponse,$currentGoStim,,,,,,,,,2,0,2,0,6,2,26,0,,,,,,,,,4554.564074456692,stop,circleblack.png,left,0.45,,,,,,,,,,,,,,,0.0016330517828464508,0.4876523092389107,0.9381816983222961,4557.065703835338,test,3,,,,,,,,,,4554.582740269601,4555.078568547964,4555.078568547964,4555.09533624351,4555.5291143506765,4556.0298194773495,4556.079881969839,4557.082660317421,None,0,,0.5,,,,,,,,,,,s023,001,2024-07-26_16h07.41.452,simplestop_skeleton,2022.2.2,60.01736383330085,
$currentCorrectResponse,$currentGoStim,,,,,,,,,2,0,2,0,6,3,27,0,,,,,,,,,4557.0661387480795,go,circleblack.png,left,0.5,,,,,,,,,,,,,,,0.0012292638421058655,0.49118514731526375,,4559.568243332207,test,3,,,,,,,,,,4557.082660317421,4557.583298332989,4557.583298332989,4557.583298332989,4558.082016900182,4558.582974344492,4558.582974344492,4559.58493001014,left,1,0.4689408019185066,0.5,,,,,,,,,,,s023,001,2024-07-26_16h07.41.452,simplestop_skeleton,2022.2.2,60.01736383330085,
$currentCorrectResponse,$currentGoStim,,,,,,,,,2,0,2,0,7,0,28,0,,,,,,,,,4559.568673498929,stop,circleblack.png,left,0.5,,,,,,,,,,,,,,,0.001279633492231369,0.48981351777911186,0.9920877292752266,4562.072530012578,test,3,,,,,,,,,,4559.58493001014,4560.085656668991,4560.085656668991,4560.085656668991,4560.586613398045,4561.101963371038,4561.085378587246,4562.09884526208,left,1,0.5339789502322674,0.45,,,,,,,,,,,s023,001,2024-07-26_16h07.41.452,simplestop_skeleton,2022.2.2,60.01736383330085,
None,None,,,,,,,,,2,0,2,0,7,1,29,2,,,,,,,,,4562.073090955615,go,squareblack.png,right,0.45,,,,,,,,,,,,,,,0.0075550079345703125,0.4871305152773857,,4564.573745794594,test,3,,,,,,,,,,4562.09884526208,4562.586880702525,4562.586880702525,4562.603548195213,4563.037527270615,4563.538102455437,4563.5881900675595,4564.591189537197,right,1,0.6312068961560726,0.45,,,,,,,,,,,s023,001,2024-07-26_16h07.41.452,simplestop_skeleton,2022.2.2,60.01736383330085,
$currentCorrectResponse,$currentGoStim,,,,,,,,,2,0,2,0,7,2,30,0,,,,,,,,,4564.574188947678,stop,squareblack.png,right,0.45,,,,,,,,,,,,,,,0.0012064389884471893,0.49141381680965424,0.9398674257099628,4567.076651476324,test,3,,,,,,,,,,4564.591189537197,4565.091631550342,4565.091631550342,4565.091631550342,4565.540327813476,4566.040747195482,4566.093296352774,4567.09421691671,right,1,0.6503839418292046,0.4,,,,,,,,,,,s023,001,2024-07-26_16h07.41.452,simplestop_skeleton,2022.2.2,60.01736383330085,
None,None,,,,,,,,,2,0,2,0,7,3,31,2,,,,,,,,,4567.077094458044,go,circleblack.png,left,0.4,,,,,,,,,,,,,,,0.002003442496061325,0.48946020752191544,,4569.5811987146735,test,3,,,,,,,,,,4567.09421691671,4567.592416133732,4567.592416133732,4567.609182402492,4567.994702726603,4568.510193739086,4568.593570489436,4569.602377019823,left,1,0.45394614711403847,0.4,,,,,,,,,,,s023,001,2024-07-26_16h07.41.452,simplestop_skeleton,2022.2.2,60.01736383330085,
None,None,,,,,,,,,2,0,2,0,8,0,32,3,,,,,,,,,4569.581693913788,go,squareblack.png,right,0.4,,,,,,,,,,,,,,,0.00246356800198555,0.48651986941695213,,4572.082068208605,test,3,,,,,,,,,,4569.602377019823,4570.095235906541,4570.095235906541,4570.111899793148,4570.49566591531,4570.996340539306,4571.096554450691,4572.099390063435,right,1,0.5844530537724495,0.4,,,,,,,,,,,s023,001,2024-07-26_16h07.41.452,simplestop_skeleton,2022.2.2,60.01736383330085,
None,None,,,,,,,,,2,0,2,0,8,1,33,2,,,,,,,,,4572.082522429526,go,squareblack.png,right,0.4,,,,,,,,,,,,,,,0.001413203775882721,0.4896773248910904,,4574.58474701643,test,3,,,,,,,,,,4572.099390063435,4572.598279219121,4572.598279219121,4572.614891242236,4572.998514015228,4573.498945489526,4573.60017362982,4574.602426785976,right,1,0.49955732375383377,0.4,,,,,,,,,,,s023,001,2024-07-26_16h07.41.452,simplestop_skeleton,2022.2.2,60.01736383330085,
None,None,,,,,,,,,2,0,2,0,8,2,34,2,,,,,,,,,4574.58520527184,go,circleblack.png,left,0.4,,,,,,,,,,,,,,,0.0019256249070167542,0.490593034774065,,4577.089359857142,test,3,,,,,,,,,,4574.602426785976,4575.1014127880335,4575.1014127880335,4575.1014127880335,4575.503096796572,4576.018390063196,4576.101843286306,4577.110874578357,left,1,0.8455354571342468,0.4,,,,,,,,,,,s023,001,2024-07-26_16h07.41.452,simplestop_skeleton,2022.2.2,60.01736383330085,
None,None,,,,,,,,,2,0,2,0,8,3,35,3,,,,,,,,,4577.08980742842,stop,squareblack.png,right,0.4,,,,,,,,,,,,,,,0.0023387596011161804,0.48633092641830444,0.8867658898234367,4579.591298021376,test,3,,,,,,,,,,4577.110874578357,4577.603479642421,4577.603479642421,4577.620106805116,4578.003925625235,4578.504700306803,4578.604828689247,4579.60973360762,None,0,,0.45,,,,,,,,,,,s023,001,2024-07-26_16h07.41.452,simplestop_skeleton,2022.2.2,60.01736383330085,
None,None,,,,,,,,,2,0,2,0,9,0,36,2,,,,,,,,,4579.591734472662,go,circleblack.png,left,0.45,,,,,,,,,,,,,,,0.0021514222025871277,0.4901353307068348,,4582.093101564795,test,3,,,,,,,,,,4579.60973360762,4580.108120933175,4580.108120933175,4580.124745048583,4580.556800380349,4581.057325977832,4581.107328824699,4582.112660225481,left,1,0.6614401638507843,0.45,,,,,,,,,,,s023,001,2024-07-26_16h07.41.452,simplestop_skeleton,2022.2.2,60.01736383330085,
None,None,,,,,,,,,2,0,2,0,9,1,37,2,,,,,,,,,4582.093541551381,go,squareblack.png,right,0.45,,,,,,,,,,,,,,,0.0020162761211395264,0.4880020394921303,,4584.59643092379,test,3,,,,,,,,,,4582.112660225481,4582.609131485224,4582.609131485224,4582.626164715737,4583.061465926468,4583.576807804406,4583.610658109188,4584.618249934167,right,1,0.6874156482517719,0.45,,,,,,,,,,,s023,001,2024-07-26_16h07.41.452,simplestop_skeleton,2022.2.2,60.01736383330085,
None,None,,,,,,,,,2,0,2,0,9,2,38,3,,,,,,,,,4584.596892353147,stop,circleblack.png,left,0.45,,,,,,,,,,,,,,,0.0029697827994823456,0.4859052337706089,0.9364165142178535,4587.1009219400585,test,3,,,,,,,,,,4584.618249934167,4585.111745420843,4585.111745420843,4585.128436911851,4585.56220722571,4586.063069961965,4586.113035015762,4587.118491906673,None,0,,0.5,,,,,,,,,,,s023,001,2024-07-26_16h07.41.452,simplestop_skeleton,2022.2.2,60.01736383330085,
None,None,,,,,,,,,2,0,2,0,9,3,39,1,,,,,,,,,4587.101350743324,stop,circleblack.png,left,0.5,,,,,,,,,,,,,,,0.0020571835339069366,0.48867178335785866,0.9874505586922169,4589.601253785193,test,3,,,,,,,,,,4587.118491906673,4587.61643993482,4587.61643993482,4587.633154664189,4588.1150537543,4588.615669220686,4588.615669220686,4589.632496781647,None,0,,0.55,,,,,,,,,,,s023,001,2024-07-26_16h07.41.452,simplestop_skeleton,2022.2.2,60.01736383330085,
None,None,,,,,,,,,2,0,2,0,10,0,40,3,,,,,,,,,4589.601680338383,stop,squareblack.png,right,0.55,,,,,,,,,,,,,,,0.001606859266757965,0.4896824434399605,1.0422971658408642,4592.1062474399805,test,3,,,,,,,,,,4589.632496781647,4590.11731306836,4590.11731306836,4590.134176466614,4590.669715825468,4591.18514284119,4591.118428412825,4592.127524074167,right,1,0.6902468204498291,0.5,,,,,,,,,,,s023,001,2024-07-26_16h07.41.452,simplestop_skeleton,2022.2.2,60.01736383330085,
$currentCorrectResponse,$currentGoStim,,,,,,,,,2,0,2,0,10,1,41,0,,,,,,,,,4592.106720119715,go,squareblack.png,right,0.5,,,,,,,,,,,,,,,0.0020753219723701477,0.4858645424246788,,4594.607180405408,test,3,,,,,,,,,,4592.127524074167,4592.6201727464795,4592.6201727464795,4592.636804174632,4593.121093209833,4593.621448185295,4593.621448185295,4594.62393405661,right,1,0.640349131077528,0.5,,,,,,,,,,,s023,001,2024-07-26_16h07.41.452,simplestop_skeleton,2022.2.2,60.01736383330085,
None,None,,,,,,,,,2,0,2,0,10,2,42,3,,,,,,,,,4594.6076305657625,go,squareblack.png,right,0.5,,,,,,,,,,,,,,,0.0011832118034362793,0.4895782060921192,,4597.109527885914,test,3,,,,,,,,,,4594.62393405661,4595.122986793518,4595.122986793518,4595.122986793518,4595.623450748622,4596.123836144805,4596.123836144805,4597.126366581768,right,1,0.7217350006103516,0.5,,,,,,,,,,,s023,001,2024-07-26_16h07.41.452,simplestop_skeleton,2022.2.2,60.01736383330085,
$currentCorrectResponse,$currentGoStim,,,,,,,,,2,0,2,0,10,3,43,0,,,,,,,,,4597.109993331134,go,squareblack.png,right,0.5,,,,,,,,,,,,,,,0.0011694803833961487,0.4899228401482105,,4599.6145420745015,test,3,,,,,,,,,,4597.126366581768,4597.625583108515,4597.625583108515,4597.625583108515,4598.128035809845,4598.643367726356,4598.626686826348,4599.642384313047,right,1,0.6198630332946777,0.5,,,,,,,,,,,s023,001,2024-07-26_16h07.41.452,simplestop_skeleton,2022.2.2,60.01736383330085,
None,None,,,,,,,,,2,0,2,0,11,0,44,1,,,,,,,,,4599.614999670535,go,circleblack.png,left,0.5,,,,,,,,,,,,,,,0.008771885186433792,0.48591984435915947,,4602.1151193752885,test,3,,,,,,,,,,4599.642384313047,4600.128425605595,4600.128425605595,4600.1450662612915,4600.629281632602,4601.131259839982,4601.131259839982,4602.131883122027,left,1,0.48686034977436066,0.5,,,,,,,,,,,s023,001,2024-07-26_16h07.41.452,simplestop_skeleton,2022.2.2,60.01736383330085,
None,None,,,,,,,,,2,0,2,0,11,1,45,3,,,,,,,,,4602.115551151335,go,circleblack.png,left,0.5,,,,,,,,,,,,,,,0.001231752336025238,0.48985347151756287,,4604.617766138166,test,3,,,,,,,,,,4602.131883122027,4602.6313379481435,4602.6313379481435,4602.6313379481435,4603.131714198738,4603.63223971054,4603.63223971054,4604.63510524109,left,1,0.4451489523053169,0.5,,,,,,,,,,,s023,001,2024-07-26_16h07.41.452,simplestop_skeleton,2022.2.2,60.01736383330085,
None,None,,,,,,,,,2,0,2,0,11,2,46,3,,,,,,,,,4604.618215736002,stop,squareblack.png,right,0.5,,,,,,,,,,,,,,,0.0016225501894950867,0.4921649657189846,0.9904314763844013,4607.1228875517845,test,3,,,,,,,,,,4604.63510524109,4605.134053207934,4605.134053207934,4605.134053207934,4605.634641736746,4606.134958874434,4606.134958874434,4607.144705027342,right,1,0.556776151061058,0.45,,,,,,,,,,,s023,001,2024-07-26_16h07.41.452,simplestop_skeleton,2022.2.2,60.01736383330085,
None,None,,,,,,,,,2,0,2,0,11,3,47,2,,,,,,,,,4607.1234093979,go,circleblack.png,left,0.45,,,,,,,,,,,,,,,0.002676628530025482,0.4859289601445198,,4609.623300045729,test,3,,,,,,,,,,4607.144705027342,4607.636739037931,4607.636739037931,4607.653370819986,4608.087119225413,4608.587787538767,4608.637750424445,4609.643370490521,left,1,0.8370935618877411,0.45,,,,,,,,,,,s023,001,2024-07-26_16h07.41.452,simplestop_skeleton,2022.2.2,60.01736383330085,
