corrGoResp,shape,practiceBlocks.thisRepN,practiceBlocks.thisTrialN,practiceBlocks.thisN,practiceBlocks.thisIndex,practiceTrials.thisRepN,practiceTrials.thisTrialN,practiceTrials.thisN,practiceTrials.thisIndex,stopBlocks.thisRepN,stopBlocks.thisTrialN,stopBlocks.thisN,stopBlocks.thisIndex,testTrials.thisRepN,testTrials.thisTrialN,testTrials.thisN,testTrials.thisIndex,stopPracTrialList,Test Block: 1,welcome.started,start_exp.started,start_exp.keys,start_exp.rt,instrStopText.started,start_prac.started,StartTrialTimeStamp,trialType,goStim,correctResponse,ssd,fixation.started,rules.started,goStim.started,goResp.started,fixation.stopped,stopSignal.started,stopSignal.stopped,goStim.stopped,goResp.stopped,rules.stopped,goResp.keys,goResp.corr,goResp.rt,text.started,rules_2.started,text.stopped,rules_2.stopped,fixationOnset,goStimOnset,stopSignalOnset,EndTrialTimeStamp,Phase,Block,text_5.started,key_resp_3.started,key_resp_3.keys,key_resp_3.rt,key_resp.started,testText.started,test_fixation.started,goStim_test.started,goResp_test.started,test_fixation.stopped,stopSignal_test.started,stopSignal_test.stopped,goStim_test.stopped,goResp_test.stopped,goResp_test.keys,goResp_test.corr,EndingSSD,goResp_test.rt,text_6.started,key_resp_4.started,key_resp_4.keys,key_resp_4.rt,Test Block: 2,Test Block: 3,ending_text.started,end_resp.started,end_resp.keys,end_resp.rt,participant,session,date,expName,psychopyVersion,frameRate,
,,,,,,,,,,,,,,,,,,"[{'fileName': 'squareblack.png', 'correct_response': 'right', 'condition': 'go'}, {'fileName': 'squareblack.png', 'correct_response': 'right', 'condition': 'stop'}, {'fileName': 'squareblack.png', 'correct_response': 'right', 'condition': 'go'}, {'fileName': 'circleblack.png', 'correct_response': 'left', 'condition': 'stop'}, {'fileName': 'squareblack.png', 'correct_response': 'right', 'condition': 'go'}, {'fileName': 'circleblack.png', 'correct_response': 'left', 'condition': 'go'}, {'fileName': 'circleblack.png', 'correct_response': 'left', 'condition': 'go'}, {'fileName': 'squareblack.png', 'correct_response': 'right', 'condition': 'go'}, {'fileName': 'circleblack.png', 'correct_response': 'left', 'condition': 'go'}, {'fileName': 'circleblack.png', 'correct_response': 'left', 'condition': 'stop'}, {'fileName': 'circleblack.png', 'correct_response': 'left', 'condition': 'go'}, {'fileName': 'squareblack.png', 'correct_response': 'right', 'condition': 'stop'}, {'fileName': 'squareblack.png', 'correct_response': 'right', 'condition': 'stop'}, {'fileName': 'squareblack.png', 'correct_response': 'right', 'condition': 'go'}, {'fileName': 'circleblack.png', 'correct_response': 'left', 'condition': 'stop'}, {'fileName': 'squareblack.png', 'correct_response': 'right', 'condition': 'go'}, {'fileName': 'squareblack.png', 'correct_response': 'right', 'condition': 'go'}, {'fileName': 'circleblack.png', 'correct_response': 'left', 'condition': 'stop'}, {'fileName': 'circleblack.png', 'correct_response': 'left', 'condition': 'go'}, {'fileName': 'circleblack.png', 'correct_response': 'left', 'condition': 'go'}, {'fileName': 'squareblack.png', 'correct_response': 'right', 'condition': 'stop'}, {'fileName': 'squareblack.png', 'correct_response': 'right', 'condition': 'go'}, {'fileName': 'circleblack.png', 'correct_response': 'left', 'condition': 'go'}, {'fileName': 'circleblack.png', 'correct_response': 'left', 'condition': 'go'}]","[{'fileName': 'circleblack.png', 'correct_response': 'left', 'condition': 'stop'}, {'fileName': 'squareblack.png', 'correct_response': 'right', 'condition': 'go'}, {'fileName': 'squareblack.png', 'correct_response': 'right', 'condition': 'go'}, {'fileName': 'squareblack.png', 'correct_response': 'right', 'condition': 'stop'}, {'fileName': 'squareblack.png', 'correct_response': 'right', 'condition': 'go'}, {'fileName': 'circleblack.png', 'correct_response': 'left', 'condition': 'go'}, {'fileName': 'circleblack.png', 'correct_response': 'left', 'condition': 'go'}, {'fileName': 'squareblack.png', 'correct_response': 'right', 'condition': 'stop'}, {'fileName': 'circleblack.png', 'correct_response': 'left', 'condition': 'stop'}, {'fileName': 'circleblack.png', 'correct_response': 'left', 'condition': 'go'}, {'fileName': 'squareblack.png', 'correct_response': 'right', 'condition': 'go'}, {'fileName': 'circleblack.png', 'correct_response': 'left', 'condition': 'go'}, {'fileName': 'squareblack.png', 'correct_response': 'right', 'condition': 'go'}, {'fileName': 'squareblack.png', 'correct_response': 'right', 'condition': 'go'}, {'fileName': 'circleblack.png', 'correct_response': 'left', 'condition': 'stop'}, {'fileName': 'circleblack.png', 'correct_response': 'left', 'condition': 'go'}, {'fileName': 'circleblack.png', 'correct_response': 'left', 'condition': 'stop'}, {'fileName': 'squareblack.png', 'correct_response': 'right', 'condition': 'stop'}, {'fileName': 'squareblack.png', 'correct_response': 'right', 'condition': 'go'}, {'fileName': 'squareblack.png', 'correct_response': 'right', 'condition': 'stop'}, {'fileName': 'circleblack.png', 'correct_response': 'left', 'condition': 'go'}, {'fileName': 'circleblack.png', 'correct_response': 'left', 'condition': 'go'}, {'fileName': 'squareblack.png', 'correct_response': 'right', 'condition': 'go'}, {'fileName': 'circleblack.png', 'correct_response': 'left', 'condition': 'go'}, {'fileName': 'circleblack.png', 'correct_response': 'left', 'condition': 'go'}, {'fileName': 'circleblack.png', 'correct_response': 'left', 'condition': 'go'}, {'fileName': 'squareblack.png', 'correct_response': 'right', 'condition': 'go'}, {'fileName': 'circleblack.png', 'correct_response': 'left', 'condition': 'go'}, {'fileName': 'circleblack.png', 'correct_response': 'left', 'condition': 'go'}, {'fileName': 'squareblack.png', 'correct_response': 'right', 'condition': 'go'}, {'fileName': 'squareblack.png', 'correct_response': 'right', 'condition': 'stop'}, {'fileName': 'circleblack.png', 'correct_response': 'left', 'condition': 'stop'}, {'fileName': 'squareblack.png', 'correct_response': 'right', 'condition': 'go'}, {'fileName': 'circleblack.png', 'correct_response': 'left', 'condition': 'stop'}, {'fileName': 'squareblack.png', 'correct_response': 'right', 'condition': 'stop'}, {'fileName': 'squareblack.png', 'correct_response': 'right', 'condition': 'go'}, {'fileName': 'circleblack.png', 'correct_response': 'left', 'condition': 'go'}, {'fileName': 'squareblack.png', 'correct_response': 'right', 'condition': 'go'}, {'fileName': 'circleblack.png', 'correct_response': 'left', 'condition': 'stop'}, {'fileName': 'squareblack.png', 'correct_response': 'right', 'condition': 'stop'}, {'fileName': 'circleblack.png', 'correct_response': 'left', 'condition': 'go'}, {'fileName': 'squareblack.png', 'correct_response': 'right', 'condition': 'go'}, {'fileName': 'circleblack.png', 'correct_response': 'left', 'condition': 'go'}, {'fileName': 'squareblack.png', 'correct_response': 'right', 'condition': 'stop'}, {'fileName': 'circleblack.png', 'correct_response': 'left', 'condition': 'stop'}, {'fileName': 'squareblack.png', 'correct_response': 'right', 'condition': 'go'}, {'fileName': 'circleblack.png', 'correct_response': 'left', 'condition': 'go'}, {'fileName': 'squareblack.png', 'correct_response': 'right', 'condition': 'go'}]",2690.0000989213586,2690.0000989213586,return,4.851710796356201,,,,,,,,,,,,,,,,,,,,,,,,,,,,,,,,,,,,,,,,,,,,,,,,,,,,,,,,,,,s033,001,2024-09-10_14h14.05.996,simplestop_skeleton,2022.2.2,60.035295375343246,
None,None,0,0,0,0,0,0,0,2,,,,,,,,,,,,,,,2694.8742563799024,2694.8742563799024,2751.2892833948135,go,squareblack.png,right,0.35,2751.310197532177,2751.310197532177,2751.8038767129183,2751.8038767129183,2751.820343784988,2752.1543176174164,2752.6547288298607,2752.8122599348426,2753.8060789108276,2753.822706528008,left,0,0.9747724533081055,2753.822706528008,2753.822706528008,2754.327431410551,2754.327431410551,0.003078937530517578,0.48835310339927673,0.8388597816228867,2754.3076621368527,practice,1,,,,,,,,,,,,,,,,,,,,,,,,,,,,,s033,001,2024-09-10_14h14.05.996,simplestop_skeleton,2022.2.2,60.035295375343246,
None,None,0,0,0,0,0,1,1,3,,,,,,,,,,,,,,,,,2754.3082047328353,stop,squareblack.png,right,0.35,2754.327431410551,2754.327431410551,2754.823652744293,2754.823652744293,2754.840313181281,2755.174072124064,2755.6749902516603,2755.823579721153,2756.824862509966,2756.8413714393973,right,1,0.5563702136278152,2756.8413714393973,2756.8413714393973,2757.3435787260532,2757.3435787260532,0.001301594078540802,0.4897262379527092,0.839972198009491,2757.3259819746017,practice,1,,,,,,,,,,,,,,,,,,,,,,,,,,,,,s033,001,2024-09-10_14h14.05.996,simplestop_skeleton,2022.2.2,60.035295375343246,
None,None,0,0,0,0,0,2,2,1,,,,,,,,,,,,,,,,,2757.3264142125845,go,squareblack.png,right,0.3,2757.3435787260532,2757.3435787260532,2757.8424523845315,2757.8424523845315,2757.8592086583376,2758.1427888423204,2758.6435717493296,2758.8435830920935,2759.8454077243805,2759.8454077243805,right,1,0.4883003756403923,2759.8454077243805,2759.8454077243805,,,0.0012049674987792969,0.48986127227544785,0.7899720966815948,2760.330357991159,practice,1,,,,,,,,,,,,,,,,,,,,,,,,,,,,,s033,001,2024-09-10_14h14.05.996,simplestop_skeleton,2022.2.2,60.035295375343246,
None,None,0,0,0,0,0,3,3,3,,,,,,,,,,,,,,,,,2760.330810174346,stop,circleblack.png,left,0.3,2760.352556064725,2760.352556064725,2760.8468632102013,2760.8468632102013,2760.863615475595,2761.1473242118955,2761.6466223597527,2761.8465579524636,2762.849598169327,2762.8662472218275,left,1,0.41213416308164597,2762.8662472218275,2762.8662472218275,,,0.004534333944320679,0.4901111125946045,0.79045420140028,2763.365743391216,practice,1,,,,,,,,,,,,,,,,,,,,,,,,,,,,,s033,001,2024-09-10_14h14.05.996,simplestop_skeleton,2022.2.2,60.035295375343246,
None,None,0,0,0,0,1,0,4,1,,,,,,,,,,,,,,,,,2763.366180188954,go,squareblack.png,right,0.25,2763.383472174406,2763.383472174406,2763.8826555907726,2763.8826555907726,2763.8991046845913,2764.132410161197,2764.632961496711,2764.88362082839,2765.885113455355,2765.885113455355,right,1,0.705131471157074,2765.885113455355,2765.885113455355,,,0.0016426071524620056,0.4903321787714958,0.740500308573246,2766.3704144135118,practice,1,,,,,,,,,,,,,,,,,,,,,,,,,,,,,s033,001,2024-09-10_14h14.05.996,simplestop_skeleton,2022.2.2,60.035295375343246,
None,None,0,0,0,0,1,1,5,1,,,,,,,,,,,,,,,,,2766.370836906135,go,circleblack.png,left,0.25,2766.3906812891364,2766.3906812891364,2766.8870604410768,2766.8870604410768,2766.903690941632,2767.137434653938,2767.6378517895937,2767.888581328094,2768.8879379332066,2768.9043751507998,left,1,0.7567888647317886,2768.9043751507998,2768.9043751507998,2769.420676641166,2769.420676641166,0.001772657036781311,0.48993968963623047,0.7405734285712242,2769.3891817331314,practice,1,,,,,,,,,,,,,,,,,,,,,,,,,,,,,s033,001,2024-09-10_14h14.05.996,simplestop_skeleton,2022.2.2,60.035295375343246,
None,None,0,0,0,0,1,2,6,2,,,,,,,,,,,,,,,,,2769.3896096870303,go,circleblack.png,left,0.25,2769.420676641166,2769.420676641166,2769.9082952439785,2769.9082952439785,2769.9221758022904,2770.156003370881,2770.656623765826,2770.923265606165,2771.9077178686857,2771.924443118274,left,1,0.5271913260221481,2771.924443118274,2771.924443118274,,,0.0012393370270729065,0.4911300912499428,0.7404055446386337,2772.410407744348,practice,1,,,,,,,,,,,,,,,,,,,,,,,,,,,,,s033,001,2024-09-10_14h14.05.996,simplestop_skeleton,2022.2.2,60.035295375343246,
None,None,0,0,0,0,1,3,7,1,,,,,,,,,,,,,,,,,2772.4108441844583,go,squareblack.png,right,0.25,2772.430433176458,2772.430433176458,2772.9269289448857,2772.9269289448857,2772.9436625167727,2773.1772173568606,2773.67644957453,2773.9266188517213,2774.9279139861465,2774.9446215108037,right,1,0.4076518788933754,2774.9446215108037,2774.9446215108037,2775.44746761024,2775.44746761024,0.0016726329922676086,0.49011290818452835,0.7405294850468636,2775.4292528033257,practice,1,,,,,,,,,,,,,,,,,,,,,,,,,,,,,s033,001,2024-09-10_14h14.05.996,simplestop_skeleton,2022.2.2,60.035295375343246,
None,None,0,0,0,0,2,0,8,3,,,,,,,,,,,,,,,,,2775.429685421288,go,circleblack.png,left,0.25,2775.44746761024,2775.44746761024,2775.945762179792,2775.945762179792,2775.962404116988,2776.1957972720265,2776.6963228583336,2776.9468715041876,2777.9489011391997,2777.9489011391997,left,1,0.4440176412463188,2777.9489011391997,2777.9489011391997,,,0.0017832815647125244,0.48998264223337173,0.7401656955480576,2778.43383513391,practice,1,,,,,,,,,,,,,,,,,,,,,,,,,,,,,s033,001,2024-09-10_14h14.05.996,simplestop_skeleton,2022.2.2,60.035295375343246,
None,None,0,0,0,0,2,1,9,2,,,,,,,,,,,,,,,,,2778.434261612594,stop,circleblack.png,left,0.25,2778.453284330666,2778.453284330666,2778.950112052262,2778.950112052262,2778.966902464628,2779.200557999313,2779.6998865380883,2779.9500005841255,2780.9511464089155,2780.9679426550865,left,1,0.4069744646549225,2780.9679426550865,2780.9679426550865,2781.4701968729496,2781.4701968729496,0.0012447014451026917,0.49025119096040726,0.7402352690696716,2781.452666684985,practice,1,,,,,,,,,,,,,,,,,,,,,,,,,,,,,s033,001,2024-09-10_14h14.05.996,simplestop_skeleton,2022.2.2,60.035295375343246,
None,None,0,0,0,0,2,2,10,1,,,,,,,,,,,,,,,,,2781.4530913606286,go,circleblack.png,left,0.2,2781.4701968729496,2781.4701968729496,2781.968942888081,2781.968942888081,2781.9857900068164,2782.1690518558025,2782.669581912458,2782.970009945333,2783.9718574658036,2783.9718574658036,left,1,0.8211219906806946,2783.9718574658036,2783.9718574658036,,,0.0013262256979942322,0.49014031141996384,0.6901539862155914,2784.457047767937,practice,1,,,,,,,,,,,,,,,,,,,,,,,,,,,,,s033,001,2024-09-10_14h14.05.996,simplestop_skeleton,2022.2.2,60.035295375343246,
None,None,0,0,0,0,2,3,11,3,,,,,,,,,,,,,,,,,2784.457494959235,stop,squareblack.png,right,0.2,2784.4816225022078,2784.4816225022078,2784.9736495018005,2784.9736495018005,2784.9903020635247,2785.174032561481,2785.6745685115457,2785.9735026061535,2786.976247727871,2786.9931069761515,right,1,0.45652544498443604,2786.9931069761515,2786.9931069761515,,,0.0072623565793037415,0.4902021512389183,0.6904370412230492,2787.4922633320093,practice,1,,,,,,,,,,,,,,,,,,,,,,,,,,,,,s033,001,2024-09-10_14h14.05.996,simplestop_skeleton,2022.2.2,60.035295375343246,
$currentCorrectResponse,$currentGoStim,0,0,0,0,3,0,12,0,,,,,,,,,,,,,,,,,2787.4926955103874,stop,squareblack.png,right,0.15,2787.509621940553,2787.509621940553,2788.008889608085,2788.008889608085,2788.008889608085,2788.1591610461473,2788.6595140844584,2789.0100847259164,2790.011731147766,2790.011731147766,None,0,,2790.011731147766,2790.011731147766,,,0.0012458041310310364,0.49037354439496994,0.6404969766736031,2790.4970694333315,practice,1,,,,,,,,,,,,,,,,,,,,,,,,,,,,,s033,001,2024-09-10_14h14.05.996,simplestop_skeleton,2022.2.2,60.035295375343246,
None,None,0,0,0,0,3,1,13,2,,,,,,,,,,,,,,,,,2790.4974914714694,go,squareblack.png,right,0.2,2790.5167239308357,2790.5167239308357,2791.0134116485715,2791.0134116485715,2791.030298821628,2791.2136993706226,2791.7151103317738,2792.0133499130607,2793.0144083052874,2793.0311293676496,right,1,0.4342757537961006,2793.0311293676496,2793.0311293676496,2793.5399210006,2793.5399210006,0.001202605664730072,0.4900030046701431,0.6902855187654495,2793.5157419517636,practice,1,,,,,,,,,,,,,,,,,,,,,,,,,,,,,s033,001,2024-09-10_14h14.05.996,simplestop_skeleton,2022.2.2,60.035295375343246,
None,None,0,0,0,0,3,2,14,2,,,,,,,,,,,,,,,,,2793.5161759629846,stop,circleblack.png,left,0.2,2793.5399210006,2793.5399210006,2794.032194234431,2794.032194234431,2794.0489578321576,2794.2323949858546,2794.7329067140818,2795.0333895236254,2796.0353158190846,2796.051764778793,left,1,0.446466401219368,2796.051764778793,2796.051764778793,,,0.00807548314332962,0.48961959034204483,0.6897744312882423,2796.536985717714,practice,1,,,,,,,,,,,,,,,,,,,,,,,,,,,,,s033,001,2024-09-10_14h14.05.996,simplestop_skeleton,2022.2.2,60.035295375343246,
$currentCorrectResponse,$currentGoStim,0,0,0,0,3,3,15,0,,,,,,,,,,,,,,,,,2796.537412047386,go,squareblack.png,right,0.15,2796.5570722147822,2796.5570722147822,2797.0535387322307,2797.0535387322307,2797.0701472088695,2797.203753039241,2797.704707428813,2798.053346335888,2799.0544306114316,2799.0711338073015,right,1,0.4742969274520874,2799.0711338073015,2799.0711338073015,2799.5738272964954,2799.5738272964954,0.0018411949276924133,0.49036025255918503,0.6403641402721405,2799.555953286588,practice,1,,,,,,,,,,,,,,,,,,,,,,,,,,,,,s033,001,2024-09-10_14h14.05.996,simplestop_skeleton,2022.2.2,60.035295375343246,
$currentCorrectResponse,$currentGoStim,0,0,0,0,4,0,16,0,,,,,,,,,,,,,,,,,2799.556468181312,go,squareblack.png,right,0.15,2799.5738272964954,2799.5738272964954,2800.072469957173,2800.072469957173,2800.089424133301,2800.2222112193704,2800.7230037525296,2801.0733285471797,2802.0754089429975,2802.0754089429975,right,1,0.45316746830940247,2802.0754089429975,2802.0754089429975,,,0.0012092068791389465,0.4899187311530113,0.6398171409964561,2802.560404635966,practice,1,,,,,,,,,,,,,,,,,,,,,,,,,,,,,s033,001,2024-09-10_14h14.05.996,simplestop_skeleton,2022.2.2,60.035295375343246,
$currentCorrectResponse,$currentGoStim,0,0,0,0,4,1,17,0,,,,,,,,,,,,,,,,,2802.560848079622,stop,circleblack.png,left,0.15,2802.58437667042,2802.58437667042,2803.0768990963697,2803.0768990963697,2803.0934552699327,2803.2270194739103,2803.7276109606028,2804.0779081061482,2805.079009786248,2805.095915041864,None,0,,2805.095915041864,2805.095915041864,2805.5969289168715,2805.5969289168715,0.007792055606842041,0.4903981536626816,0.6405866146087646,2805.579638339579,practice,1,,,,,,,,,,,,,,,,,,,,,,,,,,,,,s033,001,2024-09-10_14h14.05.996,simplestop_skeleton,2022.2.2,60.035295375343246,
$currentCorrectResponse,$currentGoStim,0,0,0,0,4,2,18,0,,,,,,,,,,,,,,,,,2805.58009082824,go,circleblack.png,left,0.2,2805.5969289168715,2805.5969289168715,2806.095458626747,2806.095458626747,2806.1122564822435,2806.2957483008504,2806.796412780881,2807.0966189950705,2808.09774453938,2808.09774453938,left,1,0.610846683382988,2808.09774453938,2808.09774453938,2808.6008279770613,2808.6008279770613,0.0012194439768791199,0.4895494803786278,0.6898414641618729,2808.58269149065,practice,1,,,,,,,,,,,,,,,,,,,,,,,,,,,,,s033,001,2024-09-10_14h14.05.996,simplestop_skeleton,2022.2.2,60.035295375343246,
None,None,0,0,0,0,4,3,19,3,,,,,,,,,,,,,,,,,2808.583133868873,go,circleblack.png,left,0.2,2808.6008279770613,2808.6008279770613,2809.0988825261593,2809.0988825261593,2809.1155939921737,2809.2990001812577,2809.7997259646654,2810.0999344289303,2811.101003371179,2811.101003371179,left,1,0.5413745120167732,2811.101003371179,2811.101003371179,,,0.0012774690985679626,0.4896773025393486,0.6898725554347038,2811.586236655712,practice,1,,,,,,,,,,,,,,,,,,,,,,,,,,,,,s033,001,2024-09-10_14h14.05.996,simplestop_skeleton,2022.2.2,60.035295375343246,
None,None,0,0,0,0,5,0,20,3,,,,,,,,,,,,,,,,,2811.5866672322154,stop,squareblack.png,right,0.2,2811.6068404242396,2811.6068404242396,2812.1035171300173,2812.1035171300173,2812.120086938143,2812.3038295432925,2812.804598107934,2813.103362619877,2814.104396469891,2814.121170118451,right,1,0.4734986200928688,2814.121170118451,2814.121170118451,2814.6227845549583,2814.6227845549583,0.004594013094902039,0.4909156709909439,0.6911545172333717,2814.605736397207,practice,1,,,,,,,,,,,,,,,,,,,,,,,,,,,,,s033,001,2024-09-10_14h14.05.996,simplestop_skeleton,2022.2.2,60.035295375343246,
None,None,0,0,0,0,5,1,21,1,,,,,,,,,,,,,,,,,2814.606188647449,go,squareblack.png,right,0.15,2814.6227845549583,2814.6227845549583,2815.1221709549427,2815.1221709549427,2815.1221709549427,2815.2725077047944,2815.7728587388992,2816.1232450306416,2817.1251410245895,2817.1251410245895,right,1,0.3964037373661995,2817.1251410245895,2817.1251410245895,,,0.0011600330471992493,0.49023281782865524,0.6404445767402649,2817.6102019026875,practice,1,,,,,,,,,,,,,,,,,,,,,,,,,,,,,s033,001,2024-09-10_14h14.05.996,simplestop_skeleton,2022.2.2,60.035295375343246,
None,None,0,0,0,0,5,2,22,2,,,,,,,,,,,,,,,,,2817.610627003014,go,circleblack.png,left,0.15,2817.6303813904524,2817.6303813904524,2818.125498600304,2818.125498600304,2818.1422120779753,2818.2756066918373,2818.7761053964496,2819.126566052437,2820.1285882666707,2820.145337305963,left,1,0.3436348959803581,2820.145337305963,2820.145337305963,,,0.0019375607371330261,0.48873698711395264,0.6389663740992546,2820.630264520645,practice,1,,,,,,,,,,,,,,,,,,,,,,,,,,,,,s033,001,2024-09-10_14h14.05.996,simplestop_skeleton,2022.2.2,60.035295375343246,
$currentCorrectResponse,$currentGoStim,0,0,0,0,5,3,23,0,,,,,,,,,,,,,,,,,2820.6306957677007,go,circleblack.png,left,0.15,2820.649964645505,2820.649964645505,2821.147014506161,2821.147014506161,2821.1633871793747,2821.2969206497073,2821.7982293739915,2822.1466638445854,2823.1477453038096,2823.1645023822784,left,1,0.46191056817770004,2823.1645023822784,2823.1645023822784,2823.665537327528,2823.665537327528,0.0012693479657173157,0.4900934621691704,0.6402420625090599,2823.649114534259,practice,1,,,,,,,,,,,,,,,,,,,,,,,,,,,,,s033,001,2024-09-10_14h14.05.996,simplestop_skeleton,2022.2.2,60.035295375343246,
,,0,0,0,0,,,,,,,,,,,,,"[{'fileName': 'squareblack.png', 'correct_response': 'right', 'condition': 'go'}, {'fileName': 'squareblack.png', 'correct_response': 'right', 'condition': 'go'}, {'fileName': 'circleblack.png', 'correct_response': 'left', 'condition': 'go'}, {'fileName': 'circleblack.png', 'correct_response': 'left', 'condition': 'go'}, {'fileName': 'squareblack.png', 'correct_response': 'right', 'condition': 'stop'}, {'fileName': 'squareblack.png', 'correct_response': 'right', 'condition': 'go'}, {'fileName': 'circleblack.png', 'correct_response': 'left', 'condition': 'stop'}, {'fileName': 'circleblack.png', 'correct_response': 'left', 'condition': 'go'}, {'fileName': 'squareblack.png', 'correct_response': 'right', 'condition': 'stop'}, {'fileName': 'squareblack.png', 'correct_response': 'right', 'condition': 'go'}, {'fileName': 'circleblack.png', 'correct_response': 'left', 'condition': 'go'}, {'fileName': 'circleblack.png', 'correct_response': 'left', 'condition': 'stop'}, {'fileName': 'squareblack.png', 'correct_response': 'right', 'condition': 'go'}, {'fileName': 'circleblack.png', 'correct_response': 'left', 'condition': 'stop'}, {'fileName': 'squareblack.png', 'correct_response': 'right', 'condition': 'go'}, {'fileName': 'squareblack.png', 'correct_response': 'right', 'condition': 'stop'}, {'fileName': 'circleblack.png', 'correct_response': 'left', 'condition': 'go'}, {'fileName': 'squareblack.png', 'correct_response': 'right', 'condition': 'go'}, {'fileName': 'circleblack.png', 'correct_response': 'left', 'condition': 'stop'}, {'fileName': 'circleblack.png', 'correct_response': 'left', 'condition': 'go'}, {'fileName': 'squareblack.png', 'correct_response': 'right', 'condition': 'stop'}, {'fileName': 'circleblack.png', 'correct_response': 'left', 'condition': 'go'}, {'fileName': 'circleblack.png', 'correct_response': 'left', 'condition': 'go'}, {'fileName': 'squareblack.png', 'correct_response': 'right', 'condition': 'go'}]",,,,,,,,,,,,,,,,,,,,,,,,,,,,,,,,,,,,2823.665537327528,2823.665537327528,return,1.8930486589670181,,,,,,,,,,,,,,,,,,,,,,,,,s033,001,2024-09-10_14h14.05.996,simplestop_skeleton,2022.2.2,60.035295375343246,
None,None,,,,,,,,,0,0,0,0,0,0,0,3,,,,,,,,,2834.1618167236447,stop,circleblack.png,left,0.15,,,,,,,,,,,,,,,,,,0.0030594542622566223,0.4906083419919014,0.6405795440077782,2836.6653613969684,test,1,,,,,2825.584931254387,2825.584931254387,2834.184151634574,2834.6784293726087,2834.6784293726087,2834.695108167827,2834.8285601213574,2835.3292898908257,2835.679898582399,2836.689395032823,None,0,0.2,,,,,,,,,,,,s033,001,2024-09-10_14h14.05.996,simplestop_skeleton,2022.2.2,60.035295375343246,
None,None,,,,,,,,,0,0,0,0,0,1,1,2,,,,,,,,,2836.6659208014607,go,squareblack.png,right,0.2,,,,,,,,,,,,,,,,,,0.007083117961883545,0.4894893690943718,,2839.1677148267627,test,1,,,,,,,2836.689395032823,2837.1811048612,2837.1811048612,2837.1980967894197,2837.381384432316,2837.8823723345995,2838.1809922233224,2839.1883395388722,right,1,0.2,0.39816971868276596,,,,,,,,,,,s033,001,2024-09-10_14h14.05.996,simplestop_skeleton,2022.2.2,60.035295375343246,
None,None,,,,,,,,,0,0,0,0,0,2,2,3,,,,,,,,,2839.168183207512,go,squareblack.png,right,0.2,,,,,,,,,,,,,,,,,,0.0015586763620376587,0.48761627823114395,,2841.669480122626,test,1,,,,,,,2839.1883395388722,2839.682664550841,2839.682664550841,2839.6992448195815,2839.8827201873064,2840.3833286762238,2840.6835341751575,2841.6871557831764,right,1,0.2,0.37748072296380997,,,,,,,,,,,s033,001,2024-09-10_14h14.05.996,simplestop_skeleton,2022.2.2,60.035295375343246,
$currentCorrectResponse,$currentGoStim,,,,,,,,,0,0,0,0,0,3,3,0,,,,,,,,,2841.669942751527,stop,squareblack.png,right,0.2,,,,,,,,,,,,,,,,,,0.001245066523551941,0.48889121413230896,0.6890931576490402,2844.1720781624317,test,1,,,,,,,2841.6871557831764,2842.1851860657334,2842.1851860657334,2842.201949097216,2842.3854457587004,2842.885941721499,2843.1863616630435,2844.1888012439013,right,1,0.15,0.3639463558793068,,,,,,,,,,,s033,001,2024-09-10_14h14.05.996,simplestop_skeleton,2022.2.2,60.035295375343246,
None,None,,,,,,,,,0,0,0,0,1,0,4,3,,,,,,,,,2844.1725213751197,go,squareblack.png,right,0.15,,,,,,,,,,,,,,,,,,0.0011986717581748962,0.48950857669115067,,2846.674659244716,test,1,,,,,,,2844.1888012439013,2844.6892459616065,2844.6892459616065,2844.6892459616065,2844.8389764130116,2845.338642835617,2845.689215518534,2846.696887217462,left,0,0.15,0.3503923937678337,,,,,,,,,,,s033,001,2024-09-10_14h14.05.996,simplestop_skeleton,2022.2.2,60.035295375343246,
None,None,,,,,,,,,0,0,0,0,1,1,5,1,,,,,,,,,2846.67510766536,go,circleblack.png,left,0.15,,,,,,,,,,,,,,,,,,0.007413975894451141,0.4903711974620819,,2849.1773981153965,test,1,,,,,,,2846.696887217462,2847.193458646536,2847.193458646536,2847.2076264694333,2847.342255793512,2847.8414443805814,2848.208563297987,2849.1943216994405,left,1,0.15,0.350387379527092,,,,,,,,,,,s033,001,2024-09-10_14h14.05.996,simplestop_skeleton,2022.2.2,60.035295375343246,
None,None,,,,,,,,,0,0,0,0,1,2,6,2,,,,,,,,,2849.177872687578,go,circleblack.png,left,0.15,,,,,,,,,,,,,,,,,,0.0013259723782539368,0.4895026609301567,,2851.680185981095,test,1,,,,,,,2849.1943216994405,2849.693437099457,2849.693437099457,2849.7103585600853,2849.8437564074993,2850.3442280367017,2850.6945074871182,2851.6974008977413,left,1,0.15,0.3762230798602104,,,,,,,,,,,s033,001,2024-09-10_14h14.05.996,simplestop_skeleton,2022.2.2,60.035295375343246,
$currentCorrectResponse,$currentGoStim,,,,,,,,,0,0,0,0,1,3,7,0,,,,,,,,,2851.6806493476033,stop,squareblack.png,right,0.15,,,,,,,,,,,,,,,,,,0.001562952995300293,0.4896804392337799,0.639990858733654,2854.1830668002367,test,1,,,,,,,2851.6974008977413,2852.196505777538,2852.196505777538,2852.213196247816,2852.346633769572,2852.846943460405,2853.1987441927195,2854.202102854848,right,1,0.1,0.43661046773195267,,,,,,,,,,,s033,001,2024-09-10_14h14.05.996,simplestop_skeleton,2022.2.2,60.035295375343246,
None,None,,,,,,,,,0,0,0,0,2,0,8,1,,,,,,,,,2854.183537848294,stop,circleblack.png,left,0.1,,,,,,,,,,,,,,,,,,0.0016874819993972778,0.4899500533938408,0.5900067389011383,2856.6857648193836,test,1,,,,,,,2854.202102854848,2854.7008251175284,2854.7008251175284,2854.7175725474954,2854.8010338395834,2855.3163500875235,2855.7015138417482,2856.7025911286473,None,0,0.15,,,,,,,,,,,,s033,001,2024-09-10_14h14.05.996,simplestop_skeleton,2022.2.2,60.035295375343246,
None,None,,,,,,,,,0,0,0,0,2,1,9,1,,,,,,,,,2856.686225950718,go,circleblack.png,left,0.15,,,,,,,,,,,,,,,,,,0.0012221559882164001,0.4899764955043793,,2859.1897268369794,test,1,,,,,,,2856.7025911286473,2857.201980061829,2857.201980061829,2857.201980061829,2857.3519880473614,2857.8524985313416,2858.2031228989363,2859.207146808505,left,1,0.15,0.523787185549736,,,,,,,,,,,s033,001,2024-09-10_14h14.05.996,simplestop_skeleton,2022.2.2,60.035295375343246,
None,None,,,,,,,,,0,0,0,0,2,2,10,2,,,,,,,,,2859.190181724727,go,squareblack.png,right,0.15,,,,,,,,,,,,,,,,,,0.0016822069883346558,0.4897349700331688,,2861.6926857680082,test,1,,,,,,,2859.207146808505,2859.7058808729053,2859.7058808729053,2859.7225382328033,2859.856076993048,2860.3568165302277,2860.705872952938,2861.7110914215446,right,1,0.15,0.5237843617796898,,,,,,,,,,,s033,001,2024-09-10_14h14.05.996,simplestop_skeleton,2022.2.2,60.035295375343246,
None,None,,,,,,,,,0,0,0,0,2,3,11,1,,,,,,,,,2861.693144157529,go,circleblack.png,left,0.15,,,,,,,,,,,,,,,,,,0.0019455552101135254,0.48777973651885986,,2864.1960454285145,test,1,,,,,,,2861.7110914215446,2862.207364857197,2862.207364857197,2862.22406103462,2862.35764811188,2862.8583371788263,2863.2085180580616,2864.2172759845853,left,1,0.15,0.5571776479482651,,,,,,,,,,,s033,001,2024-09-10_14h14.05.996,simplestop_skeleton,2022.2.2,60.035295375343246,
None,None,,,,,,,,,0,0,0,0,3,0,12,2,,,,,,,,,2864.1965132951736,go,squareblack.png,right,0.15,,,,,,,,,,,,,,,,,,0.0025800466537475586,0.4865555018186569,,2866.698933042586,test,1,,,,,,,2864.2172759845853,2864.7102306336164,2864.7102306336164,2864.7268790006638,2864.860390394926,2865.3608871772885,2865.71123278141,2866.71881878376,right,1,0.15,0.39291295409202576,,,,,,,,,,,s033,001,2024-09-10_14h14.05.996,simplestop_skeleton,2022.2.2,60.035295375343246,
None,None,,,,,,,,,0,0,0,0,3,1,13,3,,,,,,,,,2866.699420645833,go,squareblack.png,right,0.15,,,,,,,,,,,,,,,,,,0.0022211000323295593,0.48701463639736176,,2869.1996553987265,test,1,,,,,,,2866.71881878376,2867.212859041989,2867.212859041989,2867.229515403509,2867.3635369464755,2867.8636133372784,2868.2139665335417,2869.2170030996203,right,1,0.15,0.5685594975948334,,,,,,,,,,,s033,001,2024-09-10_14h14.05.996,simplestop_skeleton,2022.2.2,60.035295375343246,
None,None,,,,,,,,,0,0,0,0,3,2,14,1,,,,,,,,,2869.2001168206334,stop,circleblack.png,left,0.15,,,,,,,,,,,,,,,,,,0.001797690987586975,0.4901159778237343,0.6408104225993156,2871.702460758388,test,1,,,,,,,2869.2170030996203,2869.7180282771587,2869.7180282771587,2869.7323335185647,2869.8668942525983,2870.366300046444,2870.7333985567093,2871.7194040194154,None,0,0.2,,,,,,,,,,,,s033,001,2024-09-10_14h14.05.996,simplestop_skeleton,2022.2.2,60.035295375343246,
None,None,,,,,,,,,0,0,0,0,3,3,15,1,,,,,,,,,2871.70292571187,go,circleblack.png,left,0.2,,,,,,,,,,,,,,,,,,0.0012294277548789978,0.48940616101026535,,2874.2050425559282,test,1,,,,,,,2871.7194040194154,2872.218284934759,2872.218284934759,2872.2350908517838,2872.4187482595444,2872.919166237116,2873.219403386116,2874.221888385713,left,1,0.2,0.5941272228956223,,,,,,,,,,,s033,001,2024-09-10_14h14.05.996,simplestop_skeleton,2022.2.2,60.035295375343246,
$currentCorrectResponse,$currentGoStim,,,,,,,,,0,0,0,0,4,0,16,0,,,,,,,,,2874.2055086046457,stop,circleblack.png,left,0.2,,,,,,,,,,,,,,,,,,0.0012751370668411255,0.489811472594738,0.689986988902092,2876.7078609615564,test,1,,,,,,,2874.221888385713,2874.7212081998587,2874.7212081998587,2874.7212081998587,2874.92145653069,2875.42194429785,2875.7222328856587,2876.7250232845545,None,0,0.25,,,,,,,,,,,,s033,001,2024-09-10_14h14.05.996,simplestop_skeleton,2022.2.2,60.035295375343246,
None,None,,,,,,,,,0,0,0,0,4,1,17,2,,,,,,,,,2876.7083226293325,stop,squareblack.png,right,0.25,,,,,,,,,,,,,,,,,,0.0016065239906311035,0.4909396842122078,0.7414483204483986,2879.211306512356,test,1,,,,,,,2876.7250232845545,2877.2258429452777,2877.2258429452777,2877.2258429452777,2877.4755432009697,2877.9747204333544,2878.242106176913,2879.229257568717,right,1,0.2,0.41388535499572754,,,,,,,,,,,s033,001,2024-09-10_14h14.05.996,simplestop_skeleton,2022.2.2,60.035295375343246,
None,None,,,,,,,,,0,0,0,0,4,2,18,2,,,,,,,,,2879.211854144931,go,squareblack.png,right,0.2,,,,,,,,,,,,,,,,,,0.0012245327234268188,0.48865507543087006,,2881.7143957540393,test,1,,,,,,,2879.229257568717,2879.726794987917,2879.726794987917,2879.74347320199,2879.9268045425415,2880.427394539118,2880.72783703357,2881.73088247329,right,1,0.2,0.5305208191275597,,,,,,,,,,,s033,001,2024-09-10_14h14.05.996,simplestop_skeleton,2022.2.2,60.035295375343246,
None,None,,,,,,,,,0,0,0,0,4,3,19,3,,,,,,,,,2881.714834012091,stop,squareblack.png,right,0.2,,,,,,,,,,,,,,,,,,0.001191757619380951,0.4899483025074005,0.6901297569274902,2884.2175206765532,test,1,,,,,,,2881.73088247329,2882.2306971251965,2882.2306971251965,2882.2306971251965,2882.4310657307506,2882.931653365493,2883.2319053560495,2884.237115301192,None,0,0.25,,,,,,,,,,,,s033,001,2024-09-10_14h14.05.996,simplestop_skeleton,2022.2.2,60.035295375343246,
None,None,,,,,,,,,0,0,0,0,5,0,20,1,,,,,,,,,2884.2179632112384,go,circleblack.png,left,0.25,,,,,,,,,,,,,,,,,,0.0017959251999855042,0.489897757768631,,2886.718784697354,test,1,,,,,,,2884.237115301192,2884.73362326622,2884.73362326622,2884.750365421176,2884.9838815778494,2885.484596863389,2885.7334803193808,2886.7357065081596,left,1,0.25,0.6456949561834335,,,,,,,,,,,s033,001,2024-09-10_14h14.05.996,simplestop_skeleton,2022.2.2,60.035295375343246,
None,None,,,,,,,,,0,0,0,0,5,1,21,1,,,,,,,,,2886.7192250564694,go,circleblack.png,left,0.25,,,,,,,,,,,,,,,,,,0.0012381449341773987,0.48957090824842453,,2889.221845127642,test,1,,,,,,,2886.7357065081596,2887.235067859292,2887.235067859292,2887.235067859292,2887.485130764544,2887.985870577395,2888.2364481911063,2889.2402279675007,left,1,0.25,0.436198353767395,,,,,,,,,,,s033,001,2024-09-10_14h14.05.996,simplestop_skeleton,2022.2.2,60.035295375343246,
$currentCorrectResponse,$currentGoStim,,,,,,,,,0,0,0,0,5,2,22,0,,,,,,,,,2889.2224447354674,go,squareblack.png,right,0.25,,,,,,,,,,,,,,,,,,0.001691371202468872,0.48888304829597473,,2891.726446017623,test,1,,,,,,,2889.2402279675007,2889.737678542733,2889.737678542733,2889.7543445825577,2889.9879534840584,2890.4887404367328,2890.7387355268,2891.7475940808654,right,1,0.25,0.4389367252588272,,,,,,,,,,,s033,001,2024-09-10_14h14.05.996,simplestop_skeleton,2022.2.2,60.035295375343246,
None,None,,,,,,,,,0,0,0,0,5,3,23,3,,,,,,,,,2891.726911537349,go,circleblack.png,left,0.25,,,,,,,,,,,,,,,,,,0.0023723095655441284,0.4863879904150963,,2894.2292230278254,test,1,,,,,,,2891.7475940808654,2892.2403715848923,2892.2403715848923,2892.257114432752,2892.491331964731,2892.9931883215904,2893.2415503785014,2894.2502048313618,left,1,0.25,0.5024047270417213,,,,,,,,,,,s033,001,2024-09-10_14h14.05.996,simplestop_skeleton,2022.2.2,60.035295375343246,
None,None,,,,,,,,,0,0,0,0,6,0,24,2,,,,,,,,,2894.229704223573,go,circleblack.png,left,0.25,,,,,,,,,,,,,,,,,,0.0020084530115127563,0.48606451600790024,,2896.7300859093666,test,1,,,,,,,2894.2502048313618,2894.7432017177343,2894.7432017177343,2894.7598765790462,2894.9934467822313,2895.4940650314093,2895.744260534644,2896.746730327606,left,1,0.25,0.4413844868540764,,,,,,,,,,,s033,001,2024-09-10_14h14.05.996,simplestop_skeleton,2022.2.2,60.035295375343246,
None,None,,,,,,,,,0,0,0,0,6,1,25,2,,,,,,,,,2896.730534031987,go,circleblack.png,left,0.25,,,,,,,,,,,,,,,,,,0.0012201517820358276,0.4897070601582527,,2899.2329045683146,test,1,,,,,,,2896.746730327606,2897.2459526136518,2897.2459526136518,2897.2459526136518,2897.4973966553807,2897.996731929481,2898.247122451663,2899.2548871412873,left,1,0.25,0.480795256793499,,,,,,,,,,,s033,001,2024-09-10_14h14.05.996,simplestop_skeleton,2022.2.2,60.035295375343246,
None,None,,,,,,,,,0,0,0,0,6,2,26,3,,,,,,,,,2899.233363442123,go,squareblack.png,right,0.25,,,,,,,,,,,,,,,,,,0.0071869418025016785,0.4893961399793625,,2901.735431589186,test,1,,,,,,,2899.2548871412873,2899.7487488016486,2899.7487488016486,2899.765451312065,2900.0001924335957,2900.4998040646315,2900.7497620284557,2901.7528963536024,right,1,0.25,0.6579423695802689,,,,,,,,,,,s033,001,2024-09-10_14h14.05.996,simplestop_skeleton,2022.2.2,60.035295375343246,
$currentCorrectResponse,$currentGoStim,,,,,,,,,0,0,0,0,6,3,27,0,,,,,,,,,2901.7358758598566,go,circleblack.png,left,0.25,,,,,,,,,,,,,,,,,,0.0017079934477806091,0.48961034417152405,,2904.2383231669664,test,1,,,,,,,2901.7528963536024,2902.251477986574,2902.251477986574,2902.2680967748165,2902.5030625388026,2903.002342566848,2903.25245796144,2904.2550917193294,right,0,0.25,0.40310078114271164,,,,,,,,,,,s033,001,2024-09-10_14h14.05.996,simplestop_skeleton,2022.2.2,60.035295375343246,
None,None,,,,,,,,,0,0,0,0,7,0,28,2,,,,,,,,,2904.238785095513,go,circleblack.png,left,0.25,,,,,,,,,,,,,,,,,,0.0012462437152862549,0.489519901573658,,2906.741700515151,test,1,,,,,,,2904.2550917193294,2904.7541583552957,2904.7541583552957,2904.7715875580907,2905.005783908069,2905.505196020007,2905.755418419838,2906.7651539817452,left,1,0.25,0.5705317929387093,,,,,,,,,,,s033,001,2024-09-10_14h14.05.996,simplestop_skeleton,2022.2.2,60.035295375343246,
$currentCorrectResponse,$currentGoStim,,,,,,,,,0,0,0,0,7,1,29,0,,,,,,,,,2906.742482088506,go,squareblack.png,right,0.25,,,,,,,,,,,,,,,,,,0.0070307254791259766,0.4882295951247215,,2909.2436823770404,test,1,,,,,,,2906.7651539817452,2907.2574034258723,2907.2574034258723,2907.2741048038006,2907.5079419091344,2908.007725484669,2908.258096188307,2909.2605144381523,right,1,0.25,0.5730275064706802,,,,,,,,,,,s033,001,2024-09-10_14h14.05.996,simplestop_skeleton,2022.2.2,60.035295375343246,
None,None,,,,,,,,,0,0,0,0,7,2,30,1,,,,,,,,,2909.2442315220833,stop,squareblack.png,right,0.25,,,,,,,,,,,,,,,,,,0.0011563301086425781,0.4913690537214279,0.7399004772305489,2911.746559537947,test,1,,,,,,,2909.2605144381523,2909.7616083174944,2909.7616083174944,2909.7616083174944,2910.0100332051516,2910.5105286315084,2910.761816136539,2911.7640295103192,right,1,0.2,0.511857271194458,,,,,,,,,,,s033,001,2024-09-10_14h14.05.996,simplestop_skeleton,2022.2.2,60.035295375343246,
None,None,,,,,,,,,0,0,0,0,7,3,31,3,,,,,,,,,2911.747026525438,stop,circleblack.png,left,0.2,,,,,,,,,,,,,,,,,,0.0017910972237586975,0.4897926226258278,0.6898234486579895,2914.249946065247,test,1,,,,,,,2911.7640295103192,2912.2627049311996,2912.2627049311996,2912.2794233709574,2912.4627504721284,2912.9632691293955,2913.263881444931,2914.267552666366,left,1,0.15,0.4177905172109604,,,,,,,,,,,s033,001,2024-09-10_14h14.05.996,simplestop_skeleton,2022.2.2,60.035295375343246,
$currentCorrectResponse,$currentGoStim,,,,,,,,,0,0,0,0,8,0,32,0,,,,,,,,,2914.2503907084465,go,squareblack.png,right,0.15,,,,,,,,,,,,,,,,,,0.0016872957348823547,0.4902515411376953,,2916.753449641168,test,1,,,,,,,2914.267552666366,2914.7669421881437,2914.7669421881437,2914.783321760595,2914.9169604480267,2915.418020874262,2915.766704328358,2916.772397354245,right,1,0.15,0.4106617048382759,,,,,,,,,,,s033,001,2024-09-10_14h14.05.996,simplestop_skeleton,2022.2.2,60.035295375343246,
None,None,,,,,,,,,0,0,0,0,8,1,33,3,,,,,,,,,2916.753908865154,stop,circleblack.png,left,0.15,,,,,,,,,,,,,,,,,,0.0025108084082603455,0.48744847625494003,0.6376749649643898,2919.25543666631,test,1,,,,,,,2916.772397354245,2917.2681826651096,2917.2681826651096,2917.284835383296,2917.418302692473,2917.9190574362874,2918.269251741469,2919.2736712768674,None,0,0.2,,,,,,,,,,,,s033,001,2024-09-10_14h14.05.996,simplestop_skeleton,2022.2.2,60.035295375343246,
None,None,,,,,,,,,0,0,0,0,8,2,34,2,,,,,,,,,2919.255896538496,stop,squareblack.png,right,0.2,,,,,,,,,,,,,,,,,,0.0017234012484550476,0.48861585557460785,0.6886755898594856,2921.7598509714007,test,1,,,,,,,2919.2736712768674,2919.770957387984,2919.770957387984,2919.7875582128763,2919.970983430743,2920.471729591489,2920.7719733789563,2921.780876234174,right,1,0.15,0.44434788078069687,,,,,,,,,,,s033,001,2024-09-10_14h14.05.996,simplestop_skeleton,2022.2.2,60.035295375343246,
None,None,,,,,,,,,0,0,0,0,8,3,35,1,,,,,,,,,2921.7603309750557,go,squareblack.png,right,0.15,,,,,,,,,,,,,,,,,,0.0021182596683502197,0.4859447032213211,,2924.26216866076,test,1,,,,,,,2921.780876234174,2922.2737310156226,2922.2737310156226,2922.2903134152293,2922.4237333983183,2922.9244915172458,2923.2747455611825,2924.283618092537,right,1,0.15,0.5979253202676773,,,,,,,,,,,s033,001,2024-09-10_14h14.05.996,simplestop_skeleton,2022.2.2,60.035295375343246,
None,None,,,,,,,,,0,0,0,0,9,0,36,2,,,,,,,,,2924.2626472637057,go,circleblack.png,left,0.15,,,,,,,,,,,,,,,,,,0.0024338513612747192,0.48648662865161896,,2926.763016268611,test,1,,,,,,,2924.283618092537,2924.776419200003,2924.776419200003,2924.7929790169,2924.926579557359,2925.4272193163633,2925.77742356807,2926.780670158565,left,1,0.15,0.5685063377022743,,,,,,,,,,,s033,001,2024-09-10_14h14.05.996,simplestop_skeleton,2022.2.2,60.035295375343246,
None,None,,,,,,,,,0,0,0,0,9,1,37,1,,,,,,,,,2926.7634663283825,go,squareblack.png,right,0.15,,,,,,,,,,,,,,,,,,0.0017381012439727783,0.4895873963832855,,2929.265856333077,test,1,,,,,,,2926.780670158565,2927.279142513871,2927.279142513871,2927.2957982346416,2927.4317367970943,2927.946482114494,2928.2801436707377,2929.2832738533616,right,1,0.15,0.5250096842646599,,,,,,,,,,,s033,001,2024-09-10_14h14.05.996,simplestop_skeleton,2022.2.2,60.035295375343246,
$currentCorrectResponse,$currentGoStim,,,,,,,,,0,0,0,0,9,2,38,0,,,,,,,,,2929.266318358481,stop,circleblack.png,left,0.15,,,,,,,,,,,,,,,,,,0.001802392303943634,0.4896347224712372,0.6398233398795128,2931.7685289382935,test,1,,,,,,,2929.2832738533616,2929.7817531451583,2929.7817531451583,2929.798701375723,2929.9320055395365,2930.4325686469674,2930.782963618636,2931.785578839481,None,0,0.2,,,,,,,,,,,,s033,001,2024-09-10_14h14.05.996,simplestop_skeleton,2022.2.2,60.035295375343246,
$currentCorrectResponse,$currentGoStim,,,,,,,,,0,0,0,0,9,3,39,0,,,,,,,,,2931.7689722180367,stop,squareblack.png,right,0.2,,,,,,,,,,,,,,,,,,0.0015831217169761658,0.4898093566298485,0.6910063177347183,2934.2717078849673,test,1,,,,,,,2931.785578839481,2932.2846047505736,2932.2846047505736,2932.3013280034065,2932.4859544858336,2932.9853883236647,2933.2857281193137,2934.289013057947,right,1,0.15,0.5832880288362503,,,,,,,,,,,s033,001,2024-09-10_14h14.05.996,simplestop_skeleton,2022.2.2,60.035295375343246,
None,None,,,,,,,,,0,0,0,0,10,0,40,2,,,,,,,,,2934.2721551135182,go,circleblack.png,left,0.15,,,,,,,,,,,,,,,,,,0.0017069503664970398,0.48957008868455887,,2936.7740417197347,test,1,,,,,,,2934.289013057947,2934.7878426089883,2934.7878426089883,2934.806860886514,2934.938293032348,2935.438008725643,2935.7884477823973,2936.7915689870715,left,1,0.15,0.5218570530414581,,,,,,,,,,,s033,001,2024-09-10_14h14.05.996,simplestop_skeleton,2022.2.2,60.035295375343246,
$currentCorrectResponse,$currentGoStim,,,,,,,,,0,0,0,0,10,1,41,0,,,,,,,,,2936.774482265115,go,squareblack.png,right,0.15,,,,,,,,,,,,,,,,,,0.0016109645366668701,0.4924640879034996,,2939.2767389938235,test,1,,,,,,,2936.7915689870715,2937.29029173404,2937.29029173404,2937.29029173404,2937.440381459892,2937.9407712072134,2938.2912190183997,2939.2941714525223,right,1,0.15,0.4568115174770355,,,,,,,,,,,s033,001,2024-09-10_14h14.05.996,simplestop_skeleton,2022.2.2,60.035295375343246,
None,None,,,,,,,,,0,0,0,0,10,2,42,3,,,,,,,,,2939.277193456888,go,circleblack.png,left,0.15,,,,,,,,,,,,,,,,,,0.0017621666193008423,0.4910365268588066,,2941.7794868573546,test,1,,,,,,,2939.2941714525223,2939.794183820486,2939.794183820486,2939.794183820486,2939.944087654352,2940.4437019228935,2940.7939933538437,2941.7968184426427,left,1,0.15,0.5031918063759804,,,,,,,,,,,s033,001,2024-09-10_14h14.05.996,simplestop_skeleton,2022.2.2,60.035295375343246,
None,None,,,,,,,,,0,0,0,0,10,3,43,3,,,,,,,,,2941.7799831703305,stop,squareblack.png,right,0.15,,,,,,,,,,,,,,,,,,0.0016265884041786194,0.4916754513978958,0.6410243362188339,2944.28229175508,test,1,,,,,,,2941.7968184426427,2942.296675287187,2942.296675287187,2942.296675287187,2942.4469913318753,2942.946800388396,2943.2966947481036,2944.2995696887374,None,0,0.2,,,,,,,,,,,,s033,001,2024-09-10_14h14.05.996,simplestop_skeleton,2022.2.2,60.035295375343246,
$currentCorrectResponse,$currentGoStim,,,,,,,,,0,0,0,0,11,0,44,0,,,,,,,,,2944.282729268074,stop,circleblack.png,left,0.2,,,,,,,,,,,,,,,,,,0.0016877353191375732,0.4921458438038826,0.6911863833665848,2946.785142250359,test,1,,,,,,,2944.2995696887374,2944.7983868718147,2944.7983868718147,2944.7983868718147,2945.0005292370915,2945.5158491656184,2945.7995617091656,2946.8025000169873,None,0,0.25,,,,,,,,,,,,s033,001,2024-09-10_14h14.05.996,simplestop_skeleton,2022.2.2,60.035295375343246,
None,None,,,,,,,,,0,0,0,0,11,1,45,1,,,,,,,,,2946.785673364997,go,squareblack.png,right,0.25,,,,,,,,,,,,,,,,,,0.001641198992729187,0.48953530937433243,,2949.2877974435687,test,1,,,,,,,2946.8025000169873,2947.3019210621715,2947.3019210621715,2947.320459038019,2947.552743241191,2948.051923379302,2948.3022745996714,2949.3052270933986,right,1,0.25,0.5306834056973457,,,,,,,,,,,s033,001,2024-09-10_14h14.05.996,simplestop_skeleton,2022.2.2,60.035295375343246,
None,None,,,,,,,,,0,0,0,0,11,2,46,3,,,,,,,,,2949.288253776729,go,circleblack.png,left,0.25,,,,,,,,,,,,,,,,,,0.001726977527141571,0.48976896703243256,,2951.790830388665,test,1,,,,,,,2949.3052270933986,2949.804904088378,2949.804904088378,2949.8233946040273,2950.055056206882,2950.554921001196,2950.8051076754928,2951.808242328465,left,1,0.25,0.5853635668754578,,,,,,,,,,,s033,001,2024-09-10_14h14.05.996,simplestop_skeleton,2022.2.2,60.035295375343246,
$currentCorrectResponse,$currentGoStim,,,,,,,,,0,0,0,0,11,3,47,0,,,,,,,,,2951.791276447475,go,squareblack.png,right,0.25,,,,,,,,,,,,,,,,,,0.001590624451637268,0.48965291678905487,,2954.2954741716385,test,1,,,,,,,2951.808242328465,2952.3067656308413,2952.3067656308413,2952.323375619948,2952.5583336651325,2953.0577912926674,2953.3079120889306,2954.3288788720965,right,1,0.25,0.49092046171426773,,,,,,,,,,,s033,001,2024-09-10_14h14.05.996,simplestop_skeleton,2022.2.2,60.035295375343246,
,,,,,,,,,,0,0,0,0,,,,,,"[{'fileName': 'circleblack.png', 'correct_response': 'left', 'condition': 'go'}, {'fileName': 'squareblack.png', 'correct_response': 'right', 'condition': 'go'}, {'fileName': 'circleblack.png', 'correct_response': 'left', 'condition': 'go'}, {'fileName': 'squareblack.png', 'correct_response': 'right', 'condition': 'go'}, {'fileName': 'circleblack.png', 'correct_response': 'left', 'condition': 'go'}, {'fileName': 'circleblack.png', 'correct_response': 'left', 'condition': 'go'}, {'fileName': 'squareblack.png', 'correct_response': 'right', 'condition': 'stop'}, {'fileName': 'squareblack.png', 'correct_response': 'right', 'condition': 'go'}, {'fileName': 'squareblack.png', 'correct_response': 'right', 'condition': 'go'}, {'fileName': 'circleblack.png', 'correct_response': 'left', 'condition': 'stop'}, {'fileName': 'squareblack.png', 'correct_response': 'right', 'condition': 'stop'}, {'fileName': 'circleblack.png', 'correct_response': 'left', 'condition': 'stop'}, {'fileName': 'squareblack.png', 'correct_response': 'right', 'condition': 'go'}, {'fileName': 'squareblack.png', 'correct_response': 'right', 'condition': 'stop'}, {'fileName': 'circleblack.png', 'correct_response': 'left', 'condition': 'stop'}, {'fileName': 'squareblack.png', 'correct_response': 'right', 'condition': 'go'}, {'fileName': 'circleblack.png', 'correct_response': 'left', 'condition': 'stop'}, {'fileName': 'circleblack.png', 'correct_response': 'left', 'condition': 'go'}, {'fileName': 'squareblack.png', 'correct_response': 'right', 'condition': 'go'}, {'fileName': 'squareblack.png', 'correct_response': 'right', 'condition': 'stop'}, {'fileName': 'circleblack.png', 'correct_response': 'left', 'condition': 'go'}, {'fileName': 'circleblack.png', 'correct_response': 'left', 'condition': 'go'}, {'fileName': 'circleblack.png', 'correct_response': 'left', 'condition': 'go'}, {'fileName': 'squareblack.png', 'correct_response': 'right', 'condition': 'go'}, {'fileName': 'circleblack.png', 'correct_response': 'left', 'condition': 'stop'}, {'fileName': 'circleblack.png', 'correct_response': 'left', 'condition': 'stop'}, {'fileName': 'squareblack.png', 'correct_response': 'right', 'condition': 'stop'}, {'fileName': 'circleblack.png', 'correct_response': 'left', 'condition': 'go'}, {'fileName': 'circleblack.png', 'correct_response': 'left', 'condition': 'go'}, {'fileName': 'squareblack.png', 'correct_response': 'right', 'condition': 'go'}, {'fileName': 'squareblack.png', 'correct_response': 'right', 'condition': 'go'}, {'fileName': 'squareblack.png', 'correct_response': 'right', 'condition': 'stop'}, {'fileName': 'circleblack.png', 'correct_response': 'left', 'condition': 'go'}, {'fileName': 'circleblack.png', 'correct_response': 'left', 'condition': 'go'}, {'fileName': 'squareblack.png', 'correct_response': 'right', 'condition': 'go'}, {'fileName': 'squareblack.png', 'correct_response': 'right', 'condition': 'go'}, {'fileName': 'squareblack.png', 'correct_response': 'right', 'condition': 'go'}, {'fileName': 'circleblack.png', 'correct_response': 'left', 'condition': 'go'}, {'fileName': 'squareblack.png', 'correct_response': 'right', 'condition': 'go'}, {'fileName': 'circleblack.png', 'correct_response': 'left', 'condition': 'go'}, {'fileName': 'squareblack.png', 'correct_response': 'right', 'condition': 'stop'}, {'fileName': 'circleblack.png', 'correct_response': 'left', 'condition': 'go'}, {'fileName': 'squareblack.png', 'correct_response': 'right', 'condition': 'go'}, {'fileName': 'circleblack.png', 'correct_response': 'left', 'condition': 'stop'}, {'fileName': 'squareblack.png', 'correct_response': 'right', 'condition': 'stop'}, {'fileName': 'squareblack.png', 'correct_response': 'right', 'condition': 'go'}, {'fileName': 'circleblack.png', 'correct_response': 'left', 'condition': 'stop'}, {'fileName': 'circleblack.png', 'correct_response': 'left', 'condition': 'go'}]",,,,,,,,,,,,,,,,,,,,,,,,,,,,,,,,,,,,,,,,,,,,,,,,,,,,,2954.3288788720965,2954.3288788720965,return,2.9843243584036827,,,,,,,s033,001,2024-09-10_14h14.05.996,simplestop_skeleton,2022.2.2,60.035295375343246,
None,None,,,,,,,,,1,0,1,0,0,0,0,1,,,,,,,,,2957.3537122160196,go,circleblack.png,left,0.25,,,,,,,,,,,,,,,,,,0.0017472505569458008,0.48343874514102936,,2959.851419739425,test,2,,,,,,,2957.371774330735,2957.8643030822277,2957.8643030822277,2957.880860686302,2958.11458607018,2958.6152562499046,2958.865581229329,2959.8709570765495,left,1,0.25,0.751875065267086,,,,,,,,,,,s033,001,2024-09-10_14h14.05.996,simplestop_skeleton,2022.2.2,60.035295375343246,
None,None,,,,,,,,,1,0,1,0,0,1,1,1,,,,,,,,,2959.8519577756524,go,squareblack.png,right,0.25,,,,,,,,,,,,,,,,,,0.0017547309398651123,0.4893909692764282,,2962.353919401765,test,2,,,,,,,2959.8709570765495,2960.3672179728746,2960.3672179728746,2960.3837248384953,2960.617525458336,2961.118632249534,2961.367039695382,2962.373173482716,right,1,0.25,0.45121245086193085,,,,,,,,,,,s033,001,2024-09-10_14h14.05.996,simplestop_skeleton,2022.2.2,60.035295375343246,
None,None,,,,,,,,,1,0,1,0,0,2,2,1,,,,,,,,,2962.3547555208206,go,circleblack.png,left,0.25,,,,,,,,,,,,,,,,,,0.002545304596424103,0.4868318736553192,,2964.856788828969,test,2,,,,,,,2962.373173482716,2962.868426717818,2962.868426717818,2962.885148257017,2963.118760511279,2963.619389049709,2963.8696547970176,2964.876601204276,left,1,0.25,0.4463230147957802,,,,,,,,,,,s033,001,2024-09-10_14h14.05.996,simplestop_skeleton,2022.2.2,60.035295375343246,
None,None,,,,,,,,,1,0,1,0,0,3,3,3,,,,,,,,,2964.857402317226,go,squareblack.png,right,0.25,,,,,,,,,,,,,,,,,,0.002530597150325775,0.4868397116661072,,2967.3599251657724,test,2,,,,,,,2964.876601204276,2965.3710639700294,2965.3710639700294,2965.387876793742,2965.6214613690972,2966.122161924839,2966.3724725991488,2967.38101824373,left,0,0.25,0.41009221971035004,,,,,,,,,,,s033,001,2024-09-10_14h14.05.996,simplestop_skeleton,2022.2.2,60.035295375343246,
None,None,,,,,,,,,1,0,1,0,1,0,4,1,,,,,,,,,2967.3603830635548,go,circleblack.png,left,0.25,,,,,,,,,,,,,,,,,,0.002273760735988617,0.48623933643102646,,2969.86273047328,test,2,,,,,,,2967.38101824373,2967.873847037554,2967.873847037554,2967.890681914985,2968.1241295337677,2968.6248735412955,2968.8752779886127,2969.8837660476565,left,1,0.25,0.4493289217352867,,,,,,,,,,,s033,001,2024-09-10_14h14.05.996,simplestop_skeleton,2022.2.2,60.035295375343246,
None,None,,,,,,,,,1,0,1,0,1,1,5,3,,,,,,,,,2969.863202601671,go,circleblack.png,left,0.25,,,,,,,,,,,,,,,,,,0.0023461058735847473,0.48622292280197144,,2972.3652941063046,test,2,,,,,,,2969.8837660476565,2970.3766208812594,2970.3766208812594,2970.393339715898,2970.626881957054,2971.1275907084346,2971.3777677491307,2972.3862913772464,left,1,0.25,0.40612470358610153,,,,,,,,,,,s033,001,2024-09-10_14h14.05.996,simplestop_skeleton,2022.2.2,60.035295375343246,
None,None,,,,,,,,,1,0,1,0,1,2,6,2,,,,,,,,,2972.365774936974,stop,squareblack.png,right,0.25,,,,,,,,,,,,,,,,,,0.0025135353207588196,0.4865519776940346,0.7370499894022942,2974.868506811559,test,2,,,,,,,2972.3862913772464,2972.8795809075236,2972.8795809075236,2972.8962267413735,2973.129776418209,2973.6302905753255,2973.8804756700993,2974.8897801339626,right,1,0.2,0.3779240623116493,,,,,,,,,,,s033,001,2024-09-10_14h14.05.996,simplestop_skeleton,2022.2.2,60.035295375343246,
None,None,,,,,,,,,1,0,1,0,1,3,7,3,,,,,,,,,2974.868973404169,go,squareblack.png,right,0.2,,,,,,,,,,,,,,,,,,0.0016510114073753357,0.48502714931964874,,2977.3711886405945,test,2,,,,,,,2974.8897801339626,2975.382206559181,2975.382206559181,2975.398936085403,2975.5824567973614,2976.0831039473414,2976.3832597509027,2977.3916759938,right,1,0.2,0.6662941053509712,,,,,,,,,,,s033,001,2024-09-10_14h14.05.996,simplestop_skeleton,2022.2.2,60.035295375343246,
$currentCorrectResponse,$currentGoStim,,,,,,,,,1,0,1,0,2,0,8,0,,,,,,,,,2977.371687889099,go,squareblack.png,right,0.2,,,,,,,,,,,,,,,,,,0.001960456371307373,0.48622463643550873,,2979.8737209886312,test,2,,,,,,,2977.3916759938,2977.8848932012916,2977.8848932012916,2977.9016264155507,2978.085242509842,2978.585819236934,2978.8862001895905,2979.8950758874416,right,1,0.2,0.5176632255315781,,,,,,,,,,,s033,001,2024-09-10_14h14.05.996,simplestop_skeleton,2022.2.2,60.035295375343246,
None,None,,,,,,,,,1,0,1,0,2,1,9,3,,,,,,,,,2979.8741841465235,stop,circleblack.png,left,0.2,,,,,,,,,,,,,,,,,,0.002647712826728821,0.48648851364851,0.6865733042359352,2982.3764172121882,test,2,,,,,,,2979.8950758874416,2980.38765642792,2980.38765642792,2980.404361821711,2980.5878356322646,2981.088534027338,2981.3887177035213,2982.397574700415,None,0,0.25,,,,,,,,,,,,s033,001,2024-09-10_14h14.05.996,simplestop_skeleton,2022.2.2,60.035295375343246,
None,None,,,,,,,,,1,0,1,0,2,2,10,3,,,,,,,,,2982.3768994882703,stop,squareblack.png,right,0.25,,,,,,,,,,,,,,,,,,0.002284318208694458,0.48628947138786316,0.7367962077260017,2984.8793489933014,test,2,,,,,,,2982.397574700415,2982.890592440963,2982.890592440963,2982.9070325791836,2983.1406674310565,2983.641352005303,2983.891576908529,2984.900957070291,None,0,0.3,,,,,,,,,,,,s033,001,2024-09-10_14h14.05.996,simplestop_skeleton,2022.2.2,60.035295375343246,
None,None,,,,,,,,,1,0,1,0,2,3,11,2,,,,,,,,,2984.8798213005066,stop,circleblack.png,left,0.3,,,,,,,,,,,,,,,,,,0.0027777180075645447,0.4863429516553879,0.7867384478449821,2987.383080199361,test,2,,,,,,,2984.900957070291,2985.3931426107883,2985.3931426107883,2985.409840539098,2985.6936169937253,2986.194463096559,2986.394248381257,2987.4084179997444,left,1,0.25,0.497530035674572,,,,,,,,,,,s033,001,2024-09-10_14h14.05.996,simplestop_skeleton,2022.2.2,60.035295375343246,
$currentCorrectResponse,$currentGoStim,,,,,,,,,1,0,1,0,3,0,12,0,,,,,,,,,2987.383684389293,go,squareblack.png,right,0.25,,,,,,,,,,,,,,,,,,0.0023452341556549072,0.4985748678445816,,2989.9013759940863,test,2,,,,,,,2987.4084179997444,2987.912663780153,2987.912663780153,2987.912663780153,2988.1629242002964,2988.664276957512,2988.9136828258634,2989.9224739670753,right,1,0.25,0.5570752769708633,,,,,,,,,,,s033,001,2024-09-10_14h14.05.996,simplestop_skeleton,2022.2.2,60.035295375343246,
$currentCorrectResponse,$currentGoStim,,,,,,,,,1,0,1,0,3,1,13,0,,,,,,,,,2989.9018412828445,stop,squareblack.png,right,0.25,,,,,,,,,,,,,,,,,,0.0022466033697128296,0.48632442206144333,0.7365611121058464,2992.4041353091598,test,2,,,,,,,2989.9224739670753,2990.415390521288,2990.415390521288,2990.432010613382,2990.665755748749,2991.1663861349225,2991.4164411127567,2992.425474740565,None,0,0.3,,,,,,,,,,,,s033,001,2024-09-10_14h14.05.996,simplestop_skeleton,2022.2.2,60.035295375343246,
None,None,,,,,,,,,1,0,1,0,3,2,14,3,,,,,,,,,2992.4045907408,stop,circleblack.png,left,0.3,,,,,,,,,,,,,,,,,,0.0024918168783187866,0.48630858957767487,0.7866014167666435,2994.9070190787315,test,2,,,,,,,2992.425474740565,2992.918158367276,2992.918158367276,2992.9348186030984,2993.2184633389115,2993.7191192805767,2993.919281512499,2994.928587526083,left,1,0.25,0.4555602893233299,,,,,,,,,,,s033,001,2024-09-10_14h14.05.996,simplestop_skeleton,2022.2.2,60.035295375343246,
None,None,,,,,,,,,1,0,1,0,3,3,15,3,,,,,,,,,2994.9075026884675,go,squareblack.png,right,0.25,,,,,,,,,,,,,,,,,,0.0025807321071624756,0.48589878529310226,,2997.4095270186663,test,2,,,,,,,2994.928587526083,2995.4209498018026,2995.4209498018026,2995.4376059249043,2995.671207629144,2996.1719010546803,2996.421985067427,2997.4311987534165,right,1,0.25,0.7137715071439743,,,,,,,,,,,s033,001,2024-09-10_14h14.05.996,simplestop_skeleton,2022.2.2,60.035295375343246,
None,None,,,,,,,,,1,0,1,0,4,0,16,2,,,,,,,,,2997.409993506968,stop,circleblack.png,left,0.25,,,,,,,,,,,,,,,,,,0.0029029250144958496,0.4866364300251007,0.7369241043925285,2999.912530146539,test,2,,,,,,,2997.4311987534165,2997.9236656725407,2997.9236656725407,2997.940309755504,2998.1739040762186,2998.674633733928,2998.924828492105,2999.9336135089397,None,0,0.3,,,,,,,,,,,,s033,001,2024-09-10_14h14.05.996,simplestop_skeleton,2022.2.2,60.035295375343246,
None,None,,,,,,,,,1,0,1,0,4,1,17,1,,,,,,,,,2999.9129872471094,go,circleblack.png,left,0.3,,,,,,,,,,,,,,,,,,0.002283327281475067,0.4860434830188751,,3002.415332905948,test,2,,,,,,,2999.9336135089397,3000.4264264032245,3000.4264264032245,3000.443092763424,3000.7267181053758,3001.2276695743203,3001.4275798276067,3002.4361766055226,left,1,0.3,0.8165678009390831,,,,,,,,,,,s033,001,2024-09-10_14h14.05.996,simplestop_skeleton,2022.2.2,60.035295375343246,
None,None,,,,,,,,,1,0,1,0,4,2,18,2,,,,,,,,,3002.4158125445247,go,squareblack.png,right,0.3,,,,,,,,,,,,,,,,,,0.0022325441241264343,0.48621804267168045,,3004.917009599507,test,2,,,,,,,3002.4361766055226,3002.9291828498244,3002.9291828498244,3002.9458783715963,3003.229565769434,3003.7302465215325,3003.9302640631795,3004.9380699321628,right,1,0.3,0.5392449200153351,,,,,,,,,,,s033,001,2024-09-10_14h14.05.996,simplestop_skeleton,2022.2.2,60.035295375343246,
None,None,,,,,,,,,1,0,1,0,4,3,19,2,,,,,,,,,3004.9174914881587,stop,squareblack.png,right,0.3,,,,,,,,,,,,,,,,,,0.001673877239227295,0.48753271996974945,0.7877899706363678,3007.419948376715,test,2,,,,,,,3004.9380699321628,3005.4319622963667,3005.4319622963667,3005.4486814811826,3005.7324161306024,3006.2330567985773,3006.4334048107266,3007.441045574844,right,1,0.25,0.4416617527604103,,,,,,,,,,,s033,001,2024-09-10_14h14.05.996,simplestop_skeleton,2022.2.2,60.035295375343246,
$currentCorrectResponse,$currentGoStim,,,,,,,,,1,0,1,0,5,0,20,0,,,,,,,,,3007.4204015508294,go,circleblack.png,left,0.25,,,,,,,,,,,,,,,,,,0.002880588173866272,0.48761770129203796,,3009.9227671697736,test,2,,,,,,,3007.441045574844,3007.9347781315446,3007.9347781315446,3007.9514268040657,3008.1849444136024,3008.685759447515,3008.9361627846956,3009.941108137369,left,1,0.25,0.47285278141498566,,,,,,,,,,,s033,001,2024-09-10_14h14.05.996,simplestop_skeleton,2022.2.2,60.035295375343246,
$currentCorrectResponse,$currentGoStim,,,,,,,,,1,0,1,0,5,1,21,0,,,,,,,,,3009.923238158226,go,circleblack.png,left,0.25,,,,,,,,,,,,,,,,,,0.0016679167747497559,0.4876232445240021,,3012.425529040396,test,2,,,,,,,3009.941108137369,3010.437642380595,3010.437642380595,3010.4541682749987,3010.687823690474,3011.1884763538837,3011.4388258457184,3012.4448989257216,left,1,0.25,0.4374348670244217,,,,,,,,,,,s033,001,2024-09-10_14h14.05.996,simplestop_skeleton,2022.2.2,60.035295375343246,
None,None,,,,,,,,,1,0,1,0,5,2,22,1,,,,,,,,,3012.425971932709,go,circleblack.png,left,0.25,,,,,,,,,,,,,,,,,,0.002165563404560089,0.4868025779724121,,3014.92764736712,test,2,,,,,,,3012.4448989257216,3012.9403049871325,3012.9403049871325,3012.956939548254,3013.1905987411737,3013.691506423056,3013.941494062543,3014.948010869324,left,1,0.25,0.5006123036146164,,,,,,,,,,,s033,001,2024-09-10_14h14.05.996,simplestop_skeleton,2022.2.2,60.035295375343246,
None,None,,,,,,,,,1,0,1,0,5,3,23,2,,,,,,,,,3014.928096242249,go,squareblack.png,right,0.25,,,,,,,,,,,,,,,,,,0.00434798002243042,0.4885448068380356,,3017.4307592734694,test,2,,,,,,,3014.948010869324,3015.4431178718805,3015.4431178718805,3015.459590226412,3015.69326543808,3016.1943702474236,3016.4442797228694,3017.451701745391,right,1,0.25,0.4796486496925354,,,,,,,,,,,s033,001,2024-09-10_14h14.05.996,simplestop_skeleton,2022.2.2,60.035295375343246,
None,None,,,,,,,,,1,0,1,0,6,0,24,3,,,,,,,,,3017.431217081845,stop,circleblack.png,left,0.25,,,,,,,,,,,,,,,,,,0.0020099878311157227,0.4854229912161827,0.7356205582618713,3019.933897860348,test,2,,,,,,,3017.451701745391,3017.945805631578,3017.945805631578,3017.9623781964183,3018.1960128843784,3018.6965843588114,3018.9470353126526,3019.9529869556427,None,0,0.3,,,,,,,,,,,,s033,001,2024-09-10_14h14.05.996,simplestop_skeleton,2022.2.2,60.035295375343246,
$currentCorrectResponse,$currentGoStim,,,,,,,,,1,0,1,0,6,1,25,0,,,,,,,,,3019.934339120984,stop,circleblack.png,left,0.3,,,,,,,,,,,,,,,,,,0.0017351582646369934,0.4862181320786476,0.7865667045116425,3022.4352704435587,test,2,,,,,,,3019.9529869556427,3020.4485345482826,3020.4485345482826,3020.4652062132955,3020.748894251883,3021.2501920238137,3021.449893310666,3022.453082509339,None,0,0.35,,,,,,,,,,,,s033,001,2024-09-10_14h14.05.996,simplestop_skeleton,2022.2.2,60.035295375343246,
$currentCorrectResponse,$currentGoStim,,,,,,,,,1,0,1,0,6,2,26,0,,,,,,,,,3022.4357281550765,stop,squareblack.png,right,0.35,,,,,,,,,,,,,,,,,,0.0018809735774993896,0.48953431099653244,0.840041495859623,3024.9391103833914,test,2,,,,,,,3022.453082509339,3022.9512417912483,3022.9512417912483,3022.96800404042,3023.3018430396914,3023.8024403750896,3023.9524756595492,3024.9574836716056,None,0,0.4,,,,,,,,,,,,s033,001,2024-09-10_14h14.05.996,simplestop_skeleton,2022.2.2,60.035295375343246,
None,None,,,,,,,,,1,0,1,0,6,3,27,2,,,,,,,,,3024.939544275403,go,circleblack.png,left,0.4,,,,,,,,,,,,,,,,,,0.0018140226602554321,0.4898845925927162,,3027.4408401846886,test,2,,,,,,,3024.9574836716056,3025.4562359526753,3025.4562359526753,3025.4709108397365,3025.854486092925,3026.3550112769008,3026.471972487867,3027.472144149244,left,1,0.4,0.7329383715987206,,,,,,,,,,,s033,001,2024-09-10_14h14.05.996,simplestop_skeleton,2022.2.2,60.035295375343246,
None,None,,,,,,,,,1,0,1,0,7,0,28,3,,,,,,,,,3027.4413209855556,go,circleblack.png,left,0.4,,,,,,,,,,,,,,,,,,0.0013783276081085205,0.4915320500731468,,3029.943519756198,test,2,,,,,,,3027.472144149244,3027.9587967917323,3027.9587967917323,3027.975474908948,3028.357280254364,3028.8579281643033,3028.9765092656016,3029.965238466859,left,1,0.4,0.4933939054608345,,,,,,,,,,,s033,001,2024-09-10_14h14.05.996,simplestop_skeleton,2022.2.2,60.035295375343246,
None,None,,,,,,,,,1,0,1,0,7,1,29,3,,,,,,,,,3029.9439578205347,go,squareblack.png,right,0.4,,,,,,,,,,,,,,,,,,0.006906948983669281,0.4908134415745735,,3032.446444414556,test,2,,,,,,,3029.965238466859,3030.4607108980417,3030.4607108980417,3030.4772615134716,3030.8599788695574,3031.3605560809374,3031.4606523886323,3032.463216871023,right,1,0.4,0.5032790452241898,,,,,,,,,,,s033,001,2024-09-10_14h14.05.996,simplestop_skeleton,2022.2.2,60.035295375343246,
$currentCorrectResponse,$currentGoStim,,,,,,,,,1,0,1,0,7,2,30,0,,,,,,,,,3032.446889385581,go,squareblack.png,right,0.4,,,,,,,,,,,,,,,,,,0.0011652112007141113,0.49038347601890564,,3034.949036359787,test,2,,,,,,,3032.463216871023,3032.9633388891816,3032.9633388891816,3032.9633388891816,3033.36467025429,3033.8799527511,3033.963450215757,3034.965718328953,right,1,0.4,0.6708555892109871,,,,,,,,,,,s033,001,2024-09-10_14h14.05.996,simplestop_skeleton,2022.2.2,60.035295375343246,
None,None,,,,,,,,,1,0,1,0,7,3,31,2,,,,,,,,,3034.949477620423,stop,squareblack.png,right,0.4,,,,,,,,,,,,,,,,,,0.00119810551404953,0.4897434040904045,0.8921095803380013,3037.453885450959,test,2,,,,,,,3034.965718328953,3035.4650749862194,3035.4650749862194,3035.4650749862194,3035.867242977023,3036.3829688429832,3036.4661311656237,3037.4776042476296,None,0,0.45,,,,,,,,,,,,s033,001,2024-09-10_14h14.05.996,simplestop_skeleton,2022.2.2,60.035295375343246,
None,None,,,,,,,,,1,0,1,0,8,0,32,1,,,,,,,,,3037.4543469026685,go,circleblack.png,left,0.45,,,,,,,,,,,,,,,,,,0.00806109607219696,0.4868808016180992,,3039.95660430938,test,2,,,,,,,3037.4776042476296,3037.967834688723,3037.967834688723,3037.984520442784,3038.419630050659,3038.9188625216484,3038.968878619373,3039.977837495506,left,1,0.45,0.7749827802181244,,,,,,,,,,,s033,001,2024-09-10_14h14.05.996,simplestop_skeleton,2022.2.2,60.035295375343246,
None,None,,,,,,,,,1,0,1,0,8,1,33,3,,,,,,,,,3039.9570658504963,go,circleblack.png,left,0.45,,,,,,,,,,,,,,,,,,0.001971133053302765,0.48627500236034393,,3042.4587325826287,test,2,,,,,,,3039.977837495506,3040.47061483562,3040.47061483562,3040.487377732992,3040.921068429947,3041.421897172928,3041.4717478379607,3042.4802892282605,left,1,0.45,0.5110630318522453,,,,,,,,,,,s033,001,2024-09-10_14h14.05.996,simplestop_skeleton,2022.2.2,60.035295375343246,
None,None,,,,,,,,,1,0,1,0,8,2,34,2,,,,,,,,,3042.4592068344355,go,squareblack.png,right,0.45,,,,,,,,,,,,,,,,,,0.0023083090782165527,0.4856582060456276,,3044.96114795655,test,2,,,,,,,3042.4802892282605,3042.9735992774367,3042.9735992774367,3042.990153670311,3043.4239843189716,3043.9246105253696,3043.974652901292,3044.979208379984,right,1,0.45,0.324870228767395,,,,,,,,,,,s033,001,2024-09-10_14h14.05.996,simplestop_skeleton,2022.2.2,60.035295375343246,
None,None,,,,,,,,,1,0,1,0,8,3,35,1,,,,,,,,,3044.961855173111,go,squareblack.png,right,0.45,,,,,,,,,,,,,,,,,,0.0013020113110542297,0.4882334694266319,,3047.4641926288605,test,2,,,,,,,3044.979208379984,3045.4762881547213,3045.4762881547213,3045.4928727522492,3045.926706984639,3046.427404716611,3046.4774435460567,3047.4823697134852,right,1,0.45,0.43286634236574173,,,,,,,,,,,s033,001,2024-09-10_14h14.05.996,simplestop_skeleton,2022.2.2,60.035295375343246,
None,None,,,,,,,,,1,0,1,0,9,0,36,2,,,,,,,,,3047.4646439924836,go,squareblack.png,right,0.45,,,,,,,,,,,,,,,,,,0.0014811083674430847,0.48773717880249023,,3049.966926112771,test,2,,,,,,,3047.4823697134852,3047.9789023324847,3047.9789023324847,3047.9956052824855,3048.4295197427273,3048.930167078972,3048.9802367165685,3049.9904194548726,right,1,0.45,0.4348212629556656,,,,,,,,,,,s033,001,2024-09-10_14h14.05.996,simplestop_skeleton,2022.2.2,60.035295375343246,
None,None,,,,,,,,,1,0,1,0,9,1,37,1,,,,,,,,,3049.9673925563693,go,circleblack.png,left,0.45,,,,,,,,,,,,,,,,,,0.0075720250606536865,0.48790107667446136,,3052.4685250520706,test,2,,,,,,,3049.9904194548726,3050.4817504659295,3050.4817504659295,3050.4983779639006,3050.932048968971,3051.4335166215897,3051.484648562968,3052.485750541091,left,1,0.45,0.5042392089962959,,,,,,,,,,,s033,001,2024-09-10_14h14.05.996,simplestop_skeleton,2022.2.2,60.035295375343246,
None,None,,,,,,,,,1,0,1,0,9,2,38,3,,,,,,,,,3052.46896340698,go,squareblack.png,right,0.45,,,,,,,,,,,,,,,,,,0.001583099365234375,0.491467222571373,,3054.9710128828883,test,2,,,,,,,3052.485750541091,3052.9863342940807,3052.9863342940807,3052.9863342940807,3053.4348708093166,3053.9361102283,3053.9855096563697,3054.988458581269,right,1,0.45,0.4887484163045883,,,,,,,,,,,s033,001,2024-09-10_14h14.05.996,simplestop_skeleton,2022.2.2,60.035295375343246,
$currentCorrectResponse,$currentGoStim,,,,,,,,,1,0,1,0,9,3,39,0,,,,,,,,,3054.9714829847217,go,circleblack.png,left,0.45,,,,,,,,,,,,,,,,,,0.0016941651701927185,0.48990611732006073,,3057.473892390728,test,2,,,,,,,3054.988458581269,3055.4874631389976,3055.4874631389976,3055.5040895566344,3055.937625259161,3056.439337953925,3056.4897157400846,3057.4912361353636,left,1,0.45,0.5062512829899788,,,,,,,,,,,s033,001,2024-09-10_14h14.05.996,simplestop_skeleton,2022.2.2,60.035295375343246,
$currentCorrectResponse,$currentGoStim,,,,,,,,,1,0,1,0,10,0,40,0,,,,,,,,,3057.4743539616466,stop,squareblack.png,right,0.45,,,,,,,,,,,,,,,,,,0.001676015555858612,0.4915641322731972,0.9402313455939293,3059.97687394917,test,2,,,,,,,3057.4912361353636,3057.991835564375,3057.991835564375,3057.991835564375,3058.4405297115445,3058.9412884786725,3058.9910150021315,3059.994156740606,right,1,0.4,0.4407900646328926,,,,,,,,,,,s033,001,2024-09-10_14h14.05.996,simplestop_skeleton,2022.2.2,60.035295375343246,
None,None,,,,,,,,,1,0,1,0,10,1,41,1,,,,,,,,,3059.9773362874985,go,circleblack.png,left,0.4,,,,,,,,,,,,,,,,,,0.0017137229442596436,0.49047648161649704,,3062.480821825564,test,2,,,,,,,3059.994156740606,3060.4939452186227,3060.4939452186227,3060.4939452186227,3060.895003043115,3061.410530112684,3061.4938083961606,3062.4999586194754,left,1,0.4,0.7762661874294281,,,,,,,,,,,s033,001,2024-09-10_14h14.05.996,simplestop_skeleton,2022.2.2,60.035295375343246,
None,None,,,,,,,,,1,0,1,0,10,2,42,2,,,,,,,,,3062.4812953695655,go,squareblack.png,right,0.4,,,,,,,,,,,,,,,,,,0.0021221786737442017,0.4864630922675133,,3064.984262160957,test,2,,,,,,,3062.4999586194754,3062.995485842228,3062.995485842228,3063.0127267315984,3063.397379130125,3063.9134261384606,3063.996513865888,3065.005361877382,right,1,0.4,0.6129177808761597,,,,,,,,,,,s033,001,2024-09-10_14h14.05.996,simplestop_skeleton,2022.2.2,60.035295375343246,
$currentCorrectResponse,$currentGoStim,,,,,,,,,1,0,1,0,10,3,43,0,,,,,,,,,3064.9847365394235,stop,circleblack.png,left,0.4,,,,,,,,,,,,,,,,,,0.0023371875286102295,0.4862336069345474,0.8873176574707031,3067.487167224288,test,2,,,,,,,3065.005361877382,3065.4983575046062,3065.4983575046062,3065.514836899936,3065.900096423924,3066.3995001614094,3066.499350063503,3067.508176676929,left,1,0.35,0.4190308302640915,,,,,,,,,,,s033,001,2024-09-10_14h14.05.996,simplestop_skeleton,2022.2.2,60.035295375343246,
None,None,,,,,,,,,1,0,1,0,11,0,44,2,,,,,,,,,3067.4876382648945,stop,squareblack.png,right,0.35,,,,,,,,,,,,,,,,,,0.0023933127522468567,0.4863724112510681,0.836688369512558,3069.9892899766564,test,2,,,,,,,3067.508176676929,3068.0008803233504,3068.0008803233504,3068.0176827013493,3068.351280719042,3068.85207336396,3069.002417474985,3070.0080455839634,right,1,0.3,0.4952884018421173,,,,,,,,,,,s033,001,2024-09-10_14h14.05.996,simplestop_skeleton,2022.2.2,60.035295375343246,
None,None,,,,,,,,,1,0,1,0,11,1,45,1,,,,,,,,,3069.9897479638457,go,squareblack.png,right,0.3,,,,,,,,,,,,,,,,,,0.0023251548409461975,0.48721153289079666,,3072.492040157318,test,2,,,,,,,3070.0080455839634,3070.5037080943584,3070.5037080943584,3070.52051974833,3070.8040483891964,3071.304700784385,3071.5049753785133,3072.51169654727,right,1,0.3,0.7393917739391327,,,,,,,,,,,s033,001,2024-09-10_14h14.05.996,simplestop_skeleton,2022.2.2,60.035295375343246,
$currentCorrectResponse,$currentGoStim,,,,,,,,,1,0,1,0,11,2,46,0,,,,,,,,,3072.492796316743,stop,circleblack.png,left,0.3,,,,,,,,,,,,,,,,,,0.002093784511089325,0.4858948886394501,0.7861240431666374,3074.9932904466987,test,2,,,,,,,3072.51169654727,3073.006507359445,3073.006507359445,3073.023186825216,3073.306820206344,3073.8074276298285,3074.00769033283,3075.0101637095213,None,0,0.35,,,,,,,,,,,,s033,001,2024-09-10_14h14.05.996,simplestop_skeleton,2022.2.2,60.035295375343246,
None,None,,,,,,,,,1,0,1,0,11,3,47,1,,,,,,,,,3074.9937248677015,go,circleblack.png,left,0.35,,,,,,,,,,,,,,,,,,0.0012319236993789673,0.4897347614169121,,3077.4959409683943,test,2,,,,,,,3075.0101637095213,3075.509438768029,3075.509438768029,3075.509438768029,3075.8601379320025,3076.3609174862504,3076.510350957513,3077.5115070566535,left,1,0.35,0.7718663066625595,,,,,,,,,,,s033,001,2024-09-10_14h14.05.996,simplestop_skeleton,2022.2.2,60.035295375343246,
,,,,,,,,,,1,0,1,0,,,,,,,,,,,,,,,,,,,,,,,,,,,,,,,,,,,,,,,,,,,,,,,,,,,,,,,,,,,3077.5115070566535,3077.5115070566535,return,1.5991782695055008,"[{'fileName': 'squareblack.png', 'correct_response': 'right', 'condition': 'go'}, {'fileName': 'squareblack.png', 'correct_response': 'right', 'condition': 'go'}, {'fileName': 'circleblack.png', 'correct_response': 'left', 'condition': 'go'}, {'fileName': 'circleblack.png', 'correct_response': 'left', 'condition': 'stop'}, {'fileName': 'circleblack.png', 'correct_response': 'left', 'condition': 'go'}, {'fileName': 'squareblack.png', 'correct_response': 'right', 'condition': 'stop'}, {'fileName': 'circleblack.png', 'correct_response': 'left', 'condition': 'stop'}, {'fileName': 'circleblack.png', 'correct_response': 'left', 'condition': 'go'}, {'fileName': 'squareblack.png', 'correct_response': 'right', 'condition': 'go'}, {'fileName': 'squareblack.png', 'correct_response': 'right', 'condition': 'go'}, {'fileName': 'squareblack.png', 'correct_response': 'right', 'condition': 'stop'}, {'fileName': 'circleblack.png', 'correct_response': 'left', 'condition': 'go'}, {'fileName': 'circleblack.png', 'correct_response': 'left', 'condition': 'go'}, {'fileName': 'squareblack.png', 'correct_response': 'right', 'condition': 'stop'}, {'fileName': 'circleblack.png', 'correct_response': 'left', 'condition': 'stop'}, {'fileName': 'circleblack.png', 'correct_response': 'left', 'condition': 'go'}, {'fileName': 'squareblack.png', 'correct_response': 'right', 'condition': 'go'}, {'fileName': 'circleblack.png', 'correct_response': 'left', 'condition': 'go'}, {'fileName': 'squareblack.png', 'correct_response': 'right', 'condition': 'stop'}, {'fileName': 'squareblack.png', 'correct_response': 'right', 'condition': 'go'}, {'fileName': 'squareblack.png', 'correct_response': 'right', 'condition': 'go'}, {'fileName': 'squareblack.png', 'correct_response': 'right', 'condition': 'go'}, {'fileName': 'circleblack.png', 'correct_response': 'left', 'condition': 'go'}, {'fileName': 'circleblack.png', 'correct_response': 'left', 'condition': 'stop'}, {'fileName': 'squareblack.png', 'correct_response': 'right', 'condition': 'go'}, {'fileName': 'squareblack.png', 'correct_response': 'right', 'condition': 'stop'}, {'fileName': 'squareblack.png', 'correct_response': 'right', 'condition': 'go'}, {'fileName': 'circleblack.png', 'correct_response': 'left', 'condition': 'stop'}, {'fileName': 'squareblack.png', 'correct_response': 'right', 'condition': 'go'}, {'fileName': 'circleblack.png', 'correct_response': 'left', 'condition': 'stop'}, {'fileName': 'circleblack.png', 'correct_response': 'left', 'condition': 'go'}, {'fileName': 'squareblack.png', 'correct_response': 'right', 'condition': 'go'}, {'fileName': 'circleblack.png', 'correct_response': 'left', 'condition': 'go'}, {'fileName': 'circleblack.png', 'correct_response': 'left', 'condition': 'go'}, {'fileName': 'circleblack.png', 'correct_response': 'left', 'condition': 'go'}, {'fileName': 'squareblack.png', 'correct_response': 'right', 'condition': 'stop'}, {'fileName': 'squareblack.png', 'correct_response': 'right', 'condition': 'go'}, {'fileName': 'circleblack.png', 'correct_response': 'left', 'condition': 'stop'}, {'fileName': 'circleblack.png', 'correct_response': 'left', 'condition': 'go'}, {'fileName': 'circleblack.png', 'correct_response': 'left', 'condition': 'go'}, {'fileName': 'squareblack.png', 'correct_response': 'right', 'condition': 'stop'}, {'fileName': 'squareblack.png', 'correct_response': 'right', 'condition': 'go'}, {'fileName': 'circleblack.png', 'correct_response': 'left', 'condition': 'go'}, {'fileName': 'squareblack.png', 'correct_response': 'right', 'condition': 'go'}, {'fileName': 'squareblack.png', 'correct_response': 'right', 'condition': 'stop'}, {'fileName': 'circleblack.png', 'correct_response': 'left', 'condition': 'go'}, {'fileName': 'squareblack.png', 'correct_response': 'right', 'condition': 'go'}, {'fileName': 'circleblack.png', 'correct_response': 'left', 'condition': 'stop'}]",,,,,,s033,001,2024-09-10_14h14.05.996,simplestop_skeleton,2022.2.2,60.035295375343246,
$currentCorrectResponse,$currentGoStim,,,,,,,,,2,0,2,0,0,0,0,0,,,,,,,,,3079.132851205766,go,squareblack.png,right,0.35,,,,,,,,,,,,,,,,,,0.0017882436513900757,0.48776356875896454,,3081.635006904602,test,3,,,,,,,3079.15083886683,3079.6471343412995,3079.6471343412995,3079.663879804313,3079.997543796897,3080.498215638101,3080.648462615907,3081.6535550132394,right,1,0.35,0.9090350493788719,,,,,,,,,,,s033,001,2024-09-10_14h14.05.996,simplestop_skeleton,2022.2.2,60.035295375343246,
None,None,,,,,,,,,2,0,2,0,0,1,1,3,,,,,,,,,3081.6355619952083,go,squareblack.png,right,0.35,,,,,,,,,,,,,,,,,,0.0019250288605690002,0.4882369413971901,,3084.1373930722475,test,3,,,,,,,3081.6535550132394,3082.151171967387,3082.151171967387,3082.1680008620024,3082.5017987191677,3083.000965937972,3083.151161544025,3084.158241137862,right,1,0.35,0.40220749378204346,,,,,,,,,,,s033,001,2024-09-10_14h14.05.996,simplestop_skeleton,2022.2.2,60.035295375343246,
None,None,,,,,,,,,2,0,2,0,0,2,2,2,,,,,,,,,3084.1379703730345,go,circleblack.png,left,0.35,,,,,,,,,,,,,,,,,,0.0028059780597686768,0.48725441098213196,,3086.6394881904125,test,3,,,,,,,3084.158241137862,3084.65295060724,3084.65295060724,3084.6694820299745,3085.0030489116907,3085.5043874010444,3085.6539401486516,3086.6563413217664,left,1,0.35,0.41154076904058456,,,,,,,,,,,s033,001,2024-09-10_14h14.05.996,simplestop_skeleton,2022.2.2,60.035295375343246,
None,None,,,,,,,,,2,0,2,0,0,3,3,1,,,,,,,,,3086.6399397477508,stop,circleblack.png,left,0.35,,,,,,,,,,,,,,,,,,0.0012478530406951904,0.489945225417614,0.8401661813259125,3089.1425945833325,test,3,,,,,,,3086.6563413217664,3087.155601873994,3087.155601873994,3087.155601873994,3087.5058631822467,3088.006417095661,3088.1566882804036,3089.159344866872,left,1,0.3,0.3977556377649307,,,,,,,,,,,s033,001,2024-09-10_14h14.05.996,simplestop_skeleton,2022.2.2,60.035295375343246,
None,None,,,,,,,,,2,0,2,0,1,0,4,1,,,,,,,,,3089.143042601645,go,circleblack.png,left,0.3,,,,,,,,,,,,,,,,,,0.001225486397743225,0.49119438230991364,,3091.644934989512,test,3,,,,,,,3089.159344866872,3089.6601002663374,3089.6601002663374,3089.6601002663374,3089.9585658982396,3090.459094233811,3090.6598869264126,3091.662174835801,left,1,0.3,0.5808480456471443,,,,,,,,,,,s033,001,2024-09-10_14h14.05.996,simplestop_skeleton,2022.2.2,60.035295375343246,
$currentCorrectResponse,$currentGoStim,,,,,,,,,2,0,2,0,1,1,5,0,,,,,,,,,3091.6453902050853,stop,squareblack.png,right,0.3,,,,,,,,,,,,,,,,,,0.0016507282853126526,0.49148842692375183,0.7913122922182083,3094.147941440344,test,3,,,,,,,3091.662174835801,3092.162930496037,3092.162930496037,3092.162930496037,3092.4627691730857,3092.9785416722298,3093.1664293706417,3094.165762670338,right,1,0.25,0.47652820497751236,,,,,,,,,,,s033,001,2024-09-10_14h14.05.996,simplestop_skeleton,2022.2.2,60.035295375343246,
None,None,,,,,,,,,2,0,2,0,1,2,6,3,,,,,,,,,3094.1483834683895,stop,circleblack.png,left,0.25,,,,,,,,,,,,,,,,,,0.0019994527101516724,0.4891713187098503,0.7408911660313606,3096.6504481956363,test,3,,,,,,,3094.165762670338,3094.66380469501,3094.66380469501,3094.682583242655,3094.9150381088257,3095.414564922452,3095.6648079529405,3096.6674088686705,None,0,0.3,,,,,,,,,,,,s033,001,2024-09-10_14h14.05.996,simplestop_skeleton,2022.2.2,60.035295375343246,
None,None,,,,,,,,,2,0,2,0,1,3,7,1,,,,,,,,,3096.6509010493755,go,circleblack.png,left,0.3,,,,,,,,,,,,,,,,,,0.0012382790446281433,0.48967932909727097,,3099.1553550064564,test,3,,,,,,,3096.6674088686705,3097.166489496827,3097.166489496827,3097.183142222464,3097.4675075486302,3097.9673442840576,3098.167579241097,3099.1770676225424,left,1,0.3,0.721631370484829,,,,,,,,,,,s033,001,2024-09-10_14h14.05.996,simplestop_skeleton,2022.2.2,60.035295375343246,
$currentCorrectResponse,$currentGoStim,,,,,,,,,2,0,2,0,2,0,8,0,,,,,,,,,3099.155822135508,go,squareblack.png,right,0.3,,,,,,,,,,,,,,,,,,0.0025112926959991455,0.4859027788043022,,3101.657425843179,test,3,,,,,,,3099.1770676225424,3099.6692549437284,3099.6692549437284,3099.6859041005373,3099.9696513712406,3100.470289297402,3100.670344159007,3101.677862070501,right,1,0.3,0.6930838376283646,,,,,,,,,,,s033,001,2024-09-10_14h14.05.996,simplestop_skeleton,2022.2.2,60.035295375343246,
None,None,,,,,,,,,2,0,2,0,2,1,9,2,,,,,,,,,3101.6578810214996,go,squareblack.png,right,0.3,,,,,,,,,,,,,,,,,,0.0019427239894866943,0.4874483272433281,,3104.1604928672314,test,3,,,,,,,3101.677862070501,3102.172073967755,3102.172073967755,3102.188732109964,3102.472333520651,3102.9730431213975,3103.1733174547553,3104.1784762218595,right,1,0.3,1.0198708027601242,,,,,,,,,,,s033,001,2024-09-10_14h14.05.996,simplestop_skeleton,2022.2.2,60.035295375343246,
None,None,,,,,,,,,2,0,2,0,2,2,10,3,,,,,,,,,3104.1610554754734,stop,squareblack.png,right,0.3,,,,,,,,,,,,,,,,,,0.0020198971033096313,0.48691853135824203,0.7872742041945457,3106.6624063253403,test,3,,,,,,,3104.1784762218595,3104.674825191498,3104.674825191498,3104.6914518252015,3104.9750899225473,3105.475692011416,3105.6761160343885,3106.6813153624535,None,0,0.35,,,,,,,,,,,,s033,001,2024-09-10_14h14.05.996,simplestop_skeleton,2022.2.2,60.035295375343246,
None,None,,,,,,,,,2,0,2,0,2,3,11,2,,,,,,,,,3106.662849202752,go,circleblack.png,left,0.35,,,,,,,,,,,,,,,,,,0.00216645747423172,0.4883042573928833,,3109.1644126698375,test,3,,,,,,,3106.6813153624535,3107.177806712687,3107.177806712687,3107.1944759339094,3107.5279824212193,3108.028543278575,3108.1797109916806,3109.195480428636,left,1,0.35,0.5831931009888649,,,,,,,,,,,s033,001,2024-09-10_14h14.05.996,simplestop_skeleton,2022.2.2,60.035295375343246,
None,None,,,,,,,,,2,0,2,0,3,0,12,1,,,,,,,,,3109.164883993566,go,circleblack.png,left,0.35,,,,,,,,,,,,,,,,,,0.001246139407157898,0.4896756038069725,,3111.6669527441263,test,3,,,,,,,3109.195480428636,3109.680451333523,3109.680451333523,3109.6970790997148,3110.0312357395887,3110.531317040324,3110.6814183592796,3111.68417275697,left,1,0.35,0.39556390047073364,,,,,,,,,,,s033,001,2024-09-10_14h14.05.996,simplestop_skeleton,2022.2.2,60.035295375343246,
None,None,,,,,,,,,2,0,2,0,3,1,13,2,,,,,,,,,3111.667393684387,stop,squareblack.png,right,0.35,,,,,,,,,,,,,,,,,,0.0016211941838264465,0.4925446882843971,0.8413445129990578,3114.17222610116,test,3,,,,,,,3111.68417275697,3112.1830757185817,3112.1830757185817,3112.1830757185817,3112.535307779908,3113.0506926476955,3113.1842923387885,3114.1938644498587,right,1,0.3,0.33673494309186935,,,,,,,,,,,s033,001,2024-09-10_14h14.05.996,simplestop_skeleton,2022.2.2,60.035295375343246,
None,None,,,,,,,,,2,0,2,0,3,2,14,2,,,,,,,,,3114.1726870015264,stop,circleblack.png,left,0.3,,,,,,,,,,,,,,,,,,0.0027817487716674805,0.485903762280941,0.7889025881886482,3116.674636103213,test,3,,,,,,,3114.1938644498587,3114.68576040864,3114.68576040864,3114.702513076365,3114.986134149134,3115.4868957027793,3115.6869103387,3116.696299545467,None,0,0.35,,,,,,,,,,,,s033,001,2024-09-10_14h14.05.996,simplestop_skeleton,2022.2.2,60.035295375343246,
None,None,,,,,,,,,2,0,2,0,3,3,15,3,,,,,,,,,3116.67509444803,go,circleblack.png,left,0.35,,,,,,,,,,,,,,,,,,0.001538790762424469,0.48477256298065186,,3119.176440127194,test,3,,,,,,,3116.696299545467,3117.188589014113,3117.188589014113,3117.205245614052,3117.539145193994,3118.039666518569,3118.1899212151766,3119.1955040842295,left,1,0.35,0.7559514120221138,,,,,,,,,,,s033,001,2024-09-10_14h14.05.996,simplestop_skeleton,2022.2.2,60.035295375343246,
None,None,,,,,,,,,2,0,2,0,4,0,16,2,,,,,,,,,3119.1769079864025,go,squareblack.png,right,0.35,,,,,,,,,,,,,,,,,,0.002565942704677582,0.4876190349459648,,3121.6778830364347,test,3,,,,,,,3119.1955040842295,3119.691348731518,3119.691348731518,3119.707977592945,3120.0417905524373,3120.542381092906,3120.692509688437,3121.695349097252,right,1,0.35,0.6300689354538918,,,,,,,,,,,s033,001,2024-09-10_14h14.05.996,simplestop_skeleton,2022.2.2,60.035295375343246,
$currentCorrectResponse,$currentGoStim,,,,,,,,,2,0,2,0,4,1,17,0,,,,,,,,,3121.6783175244927,go,circleblack.png,left,0.35,,,,,,,,,,,,,,,,,,0.0017999261617660522,0.48998239636421204,,3124.181480847299,test,3,,,,,,,3121.695349097252,3122.194249868393,3122.194249868393,3122.211039490998,3122.544552102685,3123.0451749563217,3123.1953197568655,3124.199174284935,left,1,0.35,0.5851833671331406,,,,,,,,,,,s033,001,2024-09-10_14h14.05.996,simplestop_skeleton,2022.2.2,60.035295375343246,
None,None,,,,,,,,,2,0,2,0,4,2,18,2,,,,,,,,,3124.18192409724,stop,squareblack.png,right,0.35,,,,,,,,,,,,,,,,,,0.0018846392631530762,0.49060864746570587,0.8391719609498978,3126.683750219643,test,3,,,,,,,3124.199174284935,3124.6986596286297,3124.6986596286297,3124.6986596286297,3125.047189243138,3125.5478070527315,3125.6989206820726,3126.7005609720945,right,1,0.3,0.5230162069201469,,,,,,,,,,,s033,001,2024-09-10_14h14.05.996,simplestop_skeleton,2022.2.2,60.035295375343246,
None,None,,,,,,,,,2,0,2,0,4,3,19,1,,,,,,,,,3126.6842253282666,go,squareblack.png,right,0.3,,,,,,,,,,,,,,,,,,0.0011644214391708374,0.49073825031518936,,3129.1862697973847,test,3,,,,,,,3126.7005609720945,3127.2008016854525,3127.2008016854525,3127.2008016854525,3127.5017959699035,3128.0171401649714,3128.200739569962,3129.2032112255692,right,1,0.3,0.6003955155611038,,,,,,,,,,,s033,001,2024-09-10_14h14.05.996,simplestop_skeleton,2022.2.2,60.035295375343246,
None,None,,,,,,,,,2,0,2,0,5,0,20,2,,,,,,,,,3129.1867114678025,go,squareblack.png,right,0.3,,,,,,,,,,,,,,,,,,0.0011695250868797302,0.4896898418664932,,3131.6911374256015,test,3,,,,,,,3129.2032112255692,3129.7023793682456,3129.7023793682456,3129.7190248072147,3130.0038522407413,3130.5031729713082,3130.703492797911,3131.7117326036096,right,1,0.3,0.5270294845104218,,,,,,,,,,,s033,001,2024-09-10_14h14.05.996,simplestop_skeleton,2022.2.2,60.035295375343246,
None,None,,,,,,,,,2,0,2,0,5,1,21,2,,,,,,,,,3131.6916020810604,go,squareblack.png,right,0.3,,,,,,,,,,,,,,,,,,0.0019989013671875,0.4865236356854439,,3134.192911557853,test,3,,,,,,,3131.7117326036096,3132.2051811888814,3132.2051811888814,3132.221909299493,3132.505491644144,3133.006119258702,3133.2062457203865,3134.2193853333592,right,1,0.3,0.4910082519054413,,,,,,,,,,,s033,001,2024-09-10_14h14.05.996,simplestop_skeleton,2022.2.2,60.035295375343246,
None,None,,,,,,,,,2,0,2,0,5,2,22,3,,,,,,,,,3134.193361647427,go,circleblack.png,left,0.3,,,,,,,,,,,,,,,,,,0.00830964744091034,0.4878964275121689,,3136.695764668286,test,3,,,,,,,3134.2193853333592,3134.70788154006,3134.70788154006,3134.7245170772076,3135.008240804076,3135.508803024888,3135.7092121317983,3136.7171218171716,left,1,0.3,0.4852389544248581,,,,,,,,,,,s033,001,2024-09-10_14h14.05.996,simplestop_skeleton,2022.2.2,60.035295375343246,
$currentCorrectResponse,$currentGoStim,,,,,,,,,2,0,2,0,5,3,23,0,,,,,,,,,3136.696470476687,stop,circleblack.png,left,0.3,,,,,,,,,,,,,,,,,,0.001370839774608612,0.48428938537836075,0.7845101356506348,3139.1974838003516,test,3,,,,,,,3136.7171218171716,3137.210957363248,3137.210957363248,3137.2277848497033,3137.510993435979,3138.0115593597293,3138.2129065692425,3139.2146945148706,left,1,0.25,0.4934857115149498,,,,,,,,,,,s033,001,2024-09-10_14h14.05.996,simplestop_skeleton,2022.2.2,60.035295375343246,
$currentCorrectResponse,$currentGoStim,,,,,,,,,2,0,2,0,6,0,24,0,,,,,,,,,3139.1979418098927,go,squareblack.png,right,0.25,,,,,,,,,,,,,,,,,,0.0017201751470565796,0.48983537405729294,,3141.70024061203,test,3,,,,,,,3139.2146945148706,3139.713644810021,3139.713644810021,3139.730318635702,3139.9636155217886,3140.464126549661,3140.716529302299,3141.7168621867895,right,1,0.25,0.5256810709834099,,,,,,,,,,,s033,001,2024-09-10_14h14.05.996,simplestop_skeleton,2022.2.2,60.035295375343246,
$currentCorrectResponse,$currentGoStim,,,,,,,,,2,0,2,0,6,1,25,0,,,,,,,,,3141.7007176056504,stop,squareblack.png,right,0.25,,,,,,,,,,,,,,,,,,0.0011794716119766235,0.4899943247437477,0.7398470938205719,3144.2030172646046,test,3,,,,,,,3141.7168621867895,3142.216277733445,3142.216277733445,3142.216277733445,3142.466592952609,3142.966999396682,3143.2173997089267,3144.2204147055745,right,1,0.2,0.4287290573120117,,,,,,,,,,,s033,001,2024-09-10_14h14.05.996,simplestop_skeleton,2022.2.2,60.035295375343246,
None,None,,,,,,,,,2,0,2,0,6,2,26,2,,,,,,,,,3144.2034853622317,go,squareblack.png,right,0.2,,,,,,,,,,,,,,,,,,0.0011895522475242615,0.4889964610338211,,3146.7076050564647,test,3,,,,,,,3144.2204147055745,3144.7189169228077,3144.7189169228077,3144.735623292625,3144.920579828322,3145.4198460504413,3145.7200794145465,3146.729199580848,right,1,0.2,0.5371946096420288,,,,,,,,,,,s033,001,2024-09-10_14h14.05.996,simplestop_skeleton,2022.2.2,60.035295375343246,
$currentCorrectResponse,$currentGoStim,,,,,,,,,2,0,2,0,6,3,27,0,,,,,,,,,3146.7080866470933,stop,circleblack.png,left,0.2,,,,,,,,,,,,,,,,,,0.0027666687965393066,0.48642686009407043,0.6866924092173576,3149.2095536142588,test,3,,,,,,,3146.729199580848,3147.221944473684,3147.221944473684,3147.238430701196,3147.4219205901027,3147.922608077526,3148.2229587063193,3149.228940464556,None,0,0.25,,,,,,,,,,,,s033,001,2024-09-10_14h14.05.996,simplestop_skeleton,2022.2.2,60.035295375343246,
None,None,,,,,,,,,2,0,2,0,7,0,28,2,,,,,,,,,3149.2101145759225,go,squareblack.png,right,0.25,,,,,,,,,,,,,,,,,,0.002596057951450348,0.48746757209300995,,3151.7123398184776,test,3,,,,,,,3149.228940464556,3149.7244879603386,3149.7244879603386,3149.741078697145,3149.97476259619,3150.4757767394185,3150.725677855313,3151.7300556600094,right,1,0.25,0.5607227087020874,,,,,,,,,,,s033,001,2024-09-10_14h14.05.996,simplestop_skeleton,2022.2.2,60.035295375343246,
$currentCorrectResponse,$currentGoStim,,,,,,,,,2,0,2,0,7,1,29,0,,,,,,,,,3151.7127884849906,stop,circleblack.png,left,0.25,,,,,,,,,,,,,,,,,,0.0018086209893226624,0.48839519917964935,0.7384942919015884,3154.2140544503927,test,3,,,,,,,3151.7300556600094,3152.2274826169014,3152.2274826169014,3152.244146220386,3152.477511294186,3152.978652127087,3153.22978708148,3154.2451894134283,None,0,0.3,,,,,,,,,,,,s033,001,2024-09-10_14h14.05.996,simplestop_skeleton,2022.2.2,60.035295375343246,
None,None,,,,,,,,,2,0,2,0,7,2,30,3,,,,,,,,,3154.2145070955157,go,circleblack.png,left,0.3,,,,,,,,,,,,,,,,,,0.0013741552829742432,0.4907908961176872,,3156.7166151180863,test,3,,,,,,,3154.2451894134283,3154.7313390523195,3154.7313390523195,3154.7476215064526,3155.032271154225,3155.547516182065,3155.731091670692,3156.7342992201447,left,1,0.3,0.7198634371161461,,,,,,,,,,,s033,001,2024-09-10_14h14.05.996,simplestop_skeleton,2022.2.2,60.035295375343246,
$currentCorrectResponse,$currentGoStim,,,,,,,,,2,0,2,0,7,3,31,0,,,,,,,,,3156.7170573771,go,squareblack.png,right,0.3,,,,,,,,,,,,,,,,,,0.0016412734985351562,0.4893402010202408,,3159.221529968083,test,3,,,,,,,3156.7342992201447,3157.2327838391066,3157.2327838391066,3157.249964490533,3157.534406170249,3158.033589400351,3158.2339513748884,3159.2431640848517,right,1,0.3,0.4575485810637474,,,,,,,,,,,s033,001,2024-09-10_14h14.05.996,simplestop_skeleton,2022.2.2,60.035295375343246,
None,None,,,,,,,,,2,0,2,0,8,0,32,3,,,,,,,,,3159.2219971120358,go,circleblack.png,left,0.3,,,,,,,,,,,,,,,,,,0.002733178436756134,0.4861981049180031,,3161.7233125418425,test,3,,,,,,,3159.2431640848517,3159.735493823886,3159.735493823886,3159.752132989466,3160.035839140415,3160.536704748869,3160.736571572721,3161.7422410473228,left,1,0.3,0.4586432948708534,,,,,,,,,,,s033,001,2024-09-10_14h14.05.996,simplestop_skeleton,2022.2.2,60.035295375343246,
None,None,,,,,,,,,2,0,2,0,8,1,33,1,,,,,,,,,3161.7237700894475,go,circleblack.png,left,0.3,,,,,,,,,,,,,,,,,,0.0015721768140792847,0.4878612160682678,,3164.227922067046,test,3,,,,,,,3161.7422410473228,3162.2383982762694,3162.2383982762694,3162.2550262883306,3162.5386468321085,3163.0400694161654,3163.241260357201,3164.244684845209,left,1,0.3,0.5133131965994835,,,,,,,,,,,s033,001,2024-09-10_14h14.05.996,simplestop_skeleton,2022.2.2,60.035295375343246,
None,None,,,,,,,,,2,0,2,0,8,2,34,1,,,,,,,,,3164.2283729985356,go,circleblack.png,left,0.3,,,,,,,,,,,,,,,,,,0.0019950568675994873,0.48871129751205444,,3166.727833047509,test,3,,,,,,,3164.244684845209,3164.7428647354245,3164.7428647354245,3164.7596409395337,3165.0413426607847,3165.5419522821903,3165.7420792132616,3166.7450845614076,left,1,0.3,0.5965388417243958,,,,,,,,,,,s033,001,2024-09-10_14h14.05.996,simplestop_skeleton,2022.2.2,60.035295375343246,
None,None,,,,,,,,,2,0,2,0,8,3,35,3,,,,,,,,,3166.7283469215035,stop,squareblack.png,right,0.3,,,,,,,,,,,,,,,,,,0.00167035311460495,0.49127060920000076,0.791807234287262,3169.230608895421,test,3,,,,,,,3166.7450845614076,3167.244526542723,3167.244526542723,3167.244526542723,3167.5458926036954,3168.0614818632603,3168.2449919208884,3169.2474212944508,None,0,0.35,,,,,,,,,,,,s033,001,2024-09-10_14h14.05.996,simplestop_skeleton,2022.2.2,60.035295375343246,
$currentCorrectResponse,$currentGoStim,,,,,,,,,2,0,2,0,9,0,36,0,,,,,,,,,3169.2310712113976,go,squareblack.png,right,0.35,,,,,,,,,,,,,,,,,,0.0011980533599853516,0.48966744542121887,,3171.735221810639,test,3,,,,,,,3169.2474212944508,3169.746559999883,3169.746559999883,3169.746559999883,3170.098534554243,3170.5976996794343,3170.7476214691997,3171.7565591931343,right,1,0.35,0.7816640809178352,,,,,,,,,,,s033,001,2024-09-10_14h14.05.996,simplestop_skeleton,2022.2.2,60.035295375343246,
None,None,,,,,,,,,2,0,2,0,9,1,37,3,,,,,,,,,3171.735708370805,stop,circleblack.png,left,0.35,,,,,,,,,,,,,,,,,,0.002610132098197937,0.48672350496053696,0.8374801278114319,3174.236395686865,test,3,,,,,,,3171.7565591931343,3172.2493137195706,3172.2493137195706,3172.265950731933,3172.5996670275927,3173.100412905216,3173.250697642565,3174.2541766390204,left,1,0.3,0.4337586387991905,,,,,,,,,,,s033,001,2024-09-10_14h14.05.996,simplestop_skeleton,2022.2.2,60.035295375343246,
None,None,,,,,,,,,2,0,2,0,9,2,38,1,,,,,,,,,3174.2368281558156,go,circleblack.png,left,0.3,,,,,,,,,,,,,,,,,,0.0013113319873809814,0.4888114929199219,,3176.7388463914394,test,3,,,,,,,3174.2541766390204,3174.7520508021116,3174.7520508021116,3174.768659800291,3175.052383631468,3175.5530384778976,3175.75440723449,3176.7555436193943,left,1,0.3,0.8725846111774445,,,,,,,,,,,s033,001,2024-09-10_14h14.05.996,simplestop_skeleton,2022.2.2,60.035295375343246,
None,None,,,,,,,,,2,0,2,0,9,3,39,1,,,,,,,,,3176.7392866835,go,circleblack.png,left,0.3,,,,,,,,,,,,,,,,,,0.0012507587671279907,0.4915444850921631,,3179.2415466681123,test,3,,,,,,,3176.7555436193943,3177.2567443475127,3177.2567443475127,3177.2567443475127,3177.557056814432,3178.0725941732526,3178.2559529691935,3179.258950456977,left,1,0.3,0.5243377462029457,,,,,,,,,,,s033,001,2024-09-10_14h14.05.996,simplestop_skeleton,2022.2.2,60.035295375343246,
None,None,,,,,,,,,2,0,2,0,10,0,40,1,,,,,,,,,3179.242006495595,stop,squareblack.png,right,0.3,,,,,,,,,,,,,,,,,,0.0016102418303489685,0.48968999832868576,0.7912424579262733,3181.7466895729303,test,3,,,,,,,3179.258950456977,3179.75773973763,3179.75773973763,3179.774303779006,3180.0591036975384,3180.558821566403,3180.7597427740693,3181.7641633674502,right,1,0.25,0.5050922557711601,,,,,,,,,,,s033,001,2024-09-10_14h14.05.996,simplestop_skeleton,2022.2.2,60.035295375343246,
None,None,,,,,,,,,2,0,2,0,10,1,41,3,,,,,,,,,3181.747124925256,go,squareblack.png,right,0.25,,,,,,,,,,,,,,,,,,0.0020301267504692078,0.48899439722299576,,3184.2470323070884,test,3,,,,,,,3181.7641633674502,3182.2621619552374,3182.2621619552374,3182.279007047415,3182.510815180838,3183.0111562535167,3183.261445567012,3184.2646802291274,right,1,0.25,0.4973442107439041,,,,,,,,,,,s033,001,2024-09-10_14h14.05.996,simplestop_skeleton,2022.2.2,60.035295375343246,
None,None,,,,,,,,,2,0,2,0,10,2,42,1,,,,,,,,,3184.2475094497204,go,circleblack.png,left,0.25,,,,,,,,,,,,,,,,,,0.0017957761883735657,0.4896610975265503,,3186.750578671694,test,3,,,,,,,3184.2646802291274,3184.763224966824,3184.763224966824,3184.7798765674233,3185.0144554898143,3185.5140329003334,3185.764279000461,3186.7700095549226,left,1,0.25,0.6363017484545708,,,,,,,,,,,s033,001,2024-09-10_14h14.05.996,simplestop_skeleton,2022.2.2,60.035295375343246,
None,None,,,,,,,,,2,0,2,0,10,3,43,1,,,,,,,,,3186.751018986106,go,squareblack.png,right,0.25,,,,,,,,,,,,,,,,,,0.0016543641686439514,0.4888874217867851,,3189.252468198538,test,3,,,,,,,3186.7700095549226,3187.2661017030478,3187.2661017030478,3187.282693967223,3187.516074076295,3188.016730584204,3188.2680840417743,3189.2698114961386,right,1,0.25,0.41829998046159744,,,,,,,,,,,s033,001,2024-09-10_14h14.05.996,simplestop_skeleton,2022.2.2,60.035295375343246,
None,None,,,,,,,,,2,0,2,0,11,0,44,3,,,,,,,,,3189.252929702401,stop,squareblack.png,right,0.25,,,,,,,,,,,,,,,,,,0.0011688321828842163,0.48929498344659805,0.7406876385211945,3191.756818830967,test,3,,,,,,,3189.2698114961386,3189.7687835022807,3189.7687835022807,3189.7852593809366,3190.0200285464525,3190.5196562483907,3190.770147614181,3191.776754528284,right,1,0.2,0.4257190600037575,,,,,,,,,,,s033,001,2024-09-10_14h14.05.996,simplestop_skeleton,2022.2.2,60.035295375343246,
$currentCorrectResponse,$currentGoStim,,,,,,,,,2,0,2,0,11,1,45,0,,,,,,,,,3191.7572617530823,go,circleblack.png,left,0.2,,,,,,,,,,,,,,,,,,0.002068266272544861,0.48945824056863785,,3194.2580308914185,test,3,,,,,,,3191.776754528284,3192.2727806791663,3192.2727806791663,3192.2895763367414,3192.4715740457177,3192.972324281931,3193.2738424912095,3194.27530952543,left,1,0.2,0.4958121031522751,,,,,,,,,,,s033,001,2024-09-10_14h14.05.996,simplestop_skeleton,2022.2.2,60.035295375343246,
None,None,,,,,,,,,2,0,2,0,11,2,46,3,,,,,,,,,3194.2585075497627,go,squareblack.png,right,0.2,,,,,,,,,,,,,,,,,,0.0015594512224197388,0.4906742498278618,,3196.7613251134753,test,3,,,,,,,3194.27530952543,3194.77535469085,3194.77535469085,3194.77535469085,3194.9764622449875,3195.4915796518326,3195.7752159163356,3196.779657781124,right,1,0.2,0.6034873127937317,,,,,,,,,,,s033,001,2024-09-10_14h14.05.996,simplestop_skeleton,2022.2.2,60.035295375343246,
None,None,,,,,,,,,2,0,2,0,11,3,47,2,,,,,,,,,3196.761788085103,stop,circleblack.png,left,0.2,,,,,,,,,,,,,,,,,,0.0017946213483810425,0.48891229182481766,0.689154863357544,3199.2648997828364,test,3,,,,,,,3196.779657781124,3197.276863783598,3197.276863783598,3197.293640471995,3197.477195724845,3197.9779813960195,3198.278205484152,3199.2854802012444,None,0,0.25,,,,,,,,,,,,s033,001,2024-09-10_14h14.05.996,simplestop_skeleton,2022.2.2,60.035295375343246,
