corrGoResp,shape,practiceBlocks.thisRepN,practiceBlocks.thisTrialN,practiceBlocks.thisN,practiceBlocks.thisIndex,practiceTrials.thisRepN,practiceTrials.thisTrialN,practiceTrials.thisN,practiceTrials.thisIndex,stopBlocks.thisRepN,stopBlocks.thisTrialN,stopBlocks.thisN,stopBlocks.thisIndex,testTrials.thisRepN,testTrials.thisTrialN,testTrials.thisN,testTrials.thisIndex,stopPracTrialList,Test Block: 1,welcome.started,start_exp.started,start_exp.keys,start_exp.rt,instrStopText.started,start_prac.started,StartTrialTimeStamp,trialType,goStim,correctResponse,ssd,fixation.started,rules.started,goStim.started,goResp.started,fixation.stopped,stopSignal.started,stopSignal.stopped,goStim.stopped,goResp.stopped,rules.stopped,goResp.keys,goResp.corr,text.started,rules_2.started,fixationOnset,goStimOnset,stopSignalOnset,EndTrialTimeStamp,Phase,Block,text.stopped,rules_2.stopped,goResp.rt,text_5.started,key_resp_3.started,key_resp_3.keys,key_resp_3.rt,key_resp.started,testText.started,test_fixation.started,test_fixation.stopped,goStim_test.started,goResp_test.started,stopSignal_test.started,stopSignal_test.stopped,goStim_test.stopped,goResp_test.stopped,goResp_test.keys,goResp_test.corr,EndingSSD,goResp_test.rt,text_6.started,key_resp_4.started,key_resp_4.keys,key_resp_4.rt,Test Block: 2,Test Block: 3,ending_text.started,end_resp.started,end_resp.keys,end_resp.rt,participant,session,date,expName,psychopyVersion,frameRate,
,,,,,,,,,,,,,,,,,,"[{'fileName': 'squareblack.png', 'correct_response': 'right', 'condition': 'go'}, {'fileName': 'squareblack.png', 'correct_response': 'right', 'condition': 'go'}, {'fileName': 'squareblack.png', 'correct_response': 'right', 'condition': 'stop'}, {'fileName': 'circleblack.png', 'correct_response': 'left', 'condition': 'go'}, {'fileName': 'squareblack.png', 'correct_response': 'right', 'condition': 'stop'}, {'fileName': 'circleblack.png', 'correct_response': 'left', 'condition': 'stop'}, {'fileName': 'circleblack.png', 'correct_response': 'left', 'condition': 'go'}, {'fileName': 'circleblack.png', 'correct_response': 'left', 'condition': 'go'}, {'fileName': 'squareblack.png', 'correct_response': 'right', 'condition': 'go'}, {'fileName': 'circleblack.png', 'correct_response': 'left', 'condition': 'go'}, {'fileName': 'circleblack.png', 'correct_response': 'left', 'condition': 'stop'}, {'fileName': 'squareblack.png', 'correct_response': 'right', 'condition': 'go'}, {'fileName': 'circleblack.png', 'correct_response': 'left', 'condition': 'stop'}, {'fileName': 'squareblack.png', 'correct_response': 'right', 'condition': 'stop'}, {'fileName': 'squareblack.png', 'correct_response': 'right', 'condition': 'go'}, {'fileName': 'squareblack.png', 'correct_response': 'right', 'condition': 'stop'}, {'fileName': 'squareblack.png', 'correct_response': 'right', 'condition': 'go'}, {'fileName': 'circleblack.png', 'correct_response': 'left', 'condition': 'go'}, {'fileName': 'circleblack.png', 'correct_response': 'left', 'condition': 'go'}, {'fileName': 'squareblack.png', 'correct_response': 'right', 'condition': 'go'}, {'fileName': 'circleblack.png', 'correct_response': 'left', 'condition': 'go'}, {'fileName': 'circleblack.png', 'correct_response': 'left', 'condition': 'stop'}, {'fileName': 'circleblack.png', 'correct_response': 'left', 'condition': 'go'}, {'fileName': 'squareblack.png', 'correct_response': 'right', 'condition': 'go'}]","[{'fileName': 'squareblack.png', 'correct_response': 'right', 'condition': 'stop'}, {'fileName': 'squareblack.png', 'correct_response': 'right', 'condition': 'go'}, {'fileName': 'circleblack.png', 'correct_response': 'left', 'condition': 'stop'}, {'fileName': 'circleblack.png', 'correct_response': 'left', 'condition': 'go'}, {'fileName': 'circleblack.png', 'correct_response': 'left', 'condition': 'go'}, {'fileName': 'squareblack.png', 'correct_response': 'right', 'condition': 'go'}, {'fileName': 'squareblack.png', 'correct_response': 'right', 'condition': 'go'}, {'fileName': 'squareblack.png', 'correct_response': 'right', 'condition': 'stop'}, {'fileName': 'circleblack.png', 'correct_response': 'left', 'condition': 'go'}, {'fileName': 'squareblack.png', 'correct_response': 'right', 'condition': 'go'}, {'fileName': 'circleblack.png', 'correct_response': 'left', 'condition': 'go'}, {'fileName': 'circleblack.png', 'correct_response': 'left', 'condition': 'stop'}, {'fileName': 'squareblack.png', 'correct_response': 'right', 'condition': 'go'}, {'fileName': 'circleblack.png', 'correct_response': 'left', 'condition': 'go'}, {'fileName': 'circleblack.png', 'correct_response': 'left', 'condition': 'stop'}, {'fileName': 'squareblack.png', 'correct_response': 'right', 'condition': 'stop'}, {'fileName': 'squareblack.png', 'correct_response': 'right', 'condition': 'stop'}, {'fileName': 'circleblack.png', 'correct_response': 'left', 'condition': 'go'}, {'fileName': 'circleblack.png', 'correct_response': 'left', 'condition': 'go'}, {'fileName': 'circleblack.png', 'correct_response': 'left', 'condition': 'stop'}, {'fileName': 'squareblack.png', 'correct_response': 'right', 'condition': 'go'}, {'fileName': 'squareblack.png', 'correct_response': 'right', 'condition': 'go'}, {'fileName': 'squareblack.png', 'correct_response': 'right', 'condition': 'go'}, {'fileName': 'circleblack.png', 'correct_response': 'left', 'condition': 'go'}, {'fileName': 'squareblack.png', 'correct_response': 'right', 'condition': 'go'}, {'fileName': 'squareblack.png', 'correct_response': 'right', 'condition': 'go'}, {'fileName': 'circleblack.png', 'correct_response': 'left', 'condition': 'go'}, {'fileName': 'circleblack.png', 'correct_response': 'left', 'condition': 'go'}, {'fileName': 'squareblack.png', 'correct_response': 'right', 'condition': 'stop'}, {'fileName': 'squareblack.png', 'correct_response': 'right', 'condition': 'go'}, {'fileName': 'squareblack.png', 'correct_response': 'right', 'condition': 'go'}, {'fileName': 'circleblack.png', 'correct_response': 'left', 'condition': 'go'}, {'fileName': 'circleblack.png', 'correct_response': 'left', 'condition': 'stop'}, {'fileName': 'circleblack.png', 'correct_response': 'left', 'condition': 'stop'}, {'fileName': 'squareblack.png', 'correct_response': 'right', 'condition': 'stop'}, {'fileName': 'circleblack.png', 'correct_response': 'left', 'condition': 'go'}, {'fileName': 'squareblack.png', 'correct_response': 'right', 'condition': 'stop'}, {'fileName': 'circleblack.png', 'correct_response': 'left', 'condition': 'go'}, {'fileName': 'circleblack.png', 'correct_response': 'left', 'condition': 'go'}, {'fileName': 'circleblack.png', 'correct_response': 'left', 'condition': 'go'}, {'fileName': 'squareblack.png', 'correct_response': 'right', 'condition': 'go'}, {'fileName': 'squareblack.png', 'correct_response': 'right', 'condition': 'go'}, {'fileName': 'circleblack.png', 'correct_response': 'left', 'condition': 'stop'}, {'fileName': 'circleblack.png', 'correct_response': 'left', 'condition': 'go'}, {'fileName': 'circleblack.png', 'correct_response': 'left', 'condition': 'stop'}, {'fileName': 'squareblack.png', 'correct_response': 'right', 'condition': 'stop'}, {'fileName': 'squareblack.png', 'correct_response': 'right', 'condition': 'go'}, {'fileName': 'squareblack.png', 'correct_response': 'right', 'condition': 'go'}]",19.208614721894264,19.208614721894264,return,3.3561973720788956,,,,,,,,,,,,,,,,,,,,,,,,,,,,,,,,,,,,,,,,,,,,,,,,,,,,,,,,,,,s005,001,2024-06-20_13h00.40.131,simplestop_skeleton,2022.2.2,60.169758069948145,
$currentCorrectResponse,$currentGoStim,0,0,0,0,0,0,0,0,,,,,,,,,,,,,,,22.593022119253874,22.593022119253874,132.97173389047384,go,squareblack.png,right,0.35,132.99373207241297,132.99373207241297,133.4877300299704,133.4877300299704,133.50419953465462,133.83805636689067,134.3383377045393,134.48843717947602,135.48976350203156,135.50851937383413,None,0,135.50851937383413,135.50851937383413,0.0025504976511001587,0.48804469034075737,0.8382267840206623,136.0076539888978,practice,1,,,,,,,,,,,,,,,,,,,,,,,,,,,,,,,,s005,001,2024-06-20_13h00.40.131,simplestop_skeleton,2022.2.2,60.169758069948145,
None,None,0,0,0,0,0,1,1,2,,,,,,,,,,,,,,,,,136.00822008401155,go,squareblack.png,right,0.35,136.02738600224257,136.02738600224257,136.52427018806338,136.52427018806338,136.54061955213547,136.8746170140803,137.37496210634708,137.52526055276394,138.52671574056149,138.54294518381357,None,0,138.54294518381357,138.54294518381357,0.0011856108903884888,0.4903014302253723,0.8402622081339359,139.02788193896413,practice,1,139.0472243577242,139.0472243577242,,,,,,,,,,,,,,,,,,,,,,,,,,,,,,s005,001,2024-06-20_13h00.40.131,simplestop_skeleton,2022.2.2,60.169758069948145,
None,None,0,0,0,0,0,2,2,2,,,,,,,,,,,,,,,,,139.02830736339092,stop,squareblack.png,right,0.35,139.0472243577242,139.0472243577242,139.54422650113702,139.54422650113702,139.56066028401256,139.89483549818397,140.41024984419346,140.54439805448055,141.54620711132884,141.54620711132884,right,1,141.54620711132884,141.54620711132884,0.0012114979326725006,0.49019183218479156,0.8405097983777523,142.03102641925216,practice,1,142.0561210922897,142.0561210922897,0.2845290005207062,,,,,,,,,,,,,,,,,,,,,,,,,,,,,s005,001,2024-06-20_13h00.40.131,simplestop_skeleton,2022.2.2,60.169758069948145,
None,None,0,0,0,0,0,3,3,2,,,,,,,,,,,,,,,,,142.03144736588,go,circleblack.png,left,0.3,142.0561210922897,142.0561210922897,142.54730911180377,142.54730911180377,142.56384744867682,142.84775079786777,143.348708614707,143.5470337793231,144.54950292035937,144.5662923939526,left,1,144.5662923939526,144.5662923939526,0.007847893983125687,0.4899482913315296,0.7905741073191166,145.05105080455542,practice,1,,,0.6405809931457043,,,,,,,,,,,,,,,,,,,,,,,,,,,,,s005,001,2024-06-20_13h00.40.131,simplestop_skeleton,2022.2.2,60.169758069948145,
None,None,0,0,0,0,1,0,4,3,,,,,,,,,,,,,,,,,145.0514808371663,stop,squareblack.png,right,0.3,145.0708767361939,145.0708767361939,145.5673552043736,145.5673552043736,145.58417400345206,145.86793507263064,146.38352573662996,146.56706213206053,147.56954174116254,147.56954174116254,right,1,147.56954174116254,147.56954174116254,0.0017273128032684326,0.4903479963541031,0.7907748743891716,148.05472829192877,practice,1,148.07507954910398,148.07507954910398,0.41936971992254257,,,,,,,,,,,,,,,,,,,,,,,,,,,,,s005,001,2024-06-20_13h00.40.131,simplestop_skeleton,2022.2.2,60.169758069948145,
None,None,0,0,0,0,1,1,5,1,,,,,,,,,,,,,,,,,148.05515052750707,stop,circleblack.png,left,0.25,148.07507954910398,148.07507954910398,148.57097297534347,148.57097297534347,148.58756620809436,148.82103982195258,149.32199623063207,149.5703350789845,150.57316751405597,150.5896421149373,left,1,150.5896421149373,150.5896421149373,0.0018080100417137146,0.48966891318559647,0.7399010956287384,151.07452518492937,practice,1,151.09405060112476,151.09405060112476,0.5261471197009087,,,,,,,,,,,,,,,,,,,,,,,,,,,,,s005,001,2024-06-20_13h00.40.131,simplestop_skeleton,2022.2.2,60.169758069948145,
None,None,0,0,0,0,1,2,6,1,,,,,,,,,,,,,,,,,151.0749446079135,go,circleblack.png,left,0.2,151.09405060112476,151.09405060112476,151.5907069556415,151.5907069556415,151.6074501350522,151.79087828099728,152.2918640933931,152.5902716256678,153.5929307229817,153.60940114408731,left,1,153.60940114408731,153.60940114408731,0.001261293888092041,0.4898464307188988,0.6899698153138161,154.09452601894736,practice,1,,,0.5789808295667171,,,,,,,,,,,,,,,,,,,,,,,,,,,,,s005,001,2024-06-20_13h00.40.131,simplestop_skeleton,2022.2.2,60.169758069948145,
None,None,0,0,0,0,1,3,7,3,,,,,,,,,,,,,,,,,154.09497555345297,go,circleblack.png,left,0.2,154.1140025705099,154.1140025705099,154.6109857261181,154.6109857261181,154.62719729542732,154.81113550066948,155.31186866015196,155.61032617464662,156.612724237144,156.62951000779867,left,1,156.62951000779867,156.62951000779867,0.001354273408651352,0.48986799269914627,0.6901752427220345,157.11413503438234,practice,1,,,0.44947174191474915,,,,,,,,,,,,,,,,,,,,,,,,,,,,,s005,001,2024-06-20_13h00.40.131,simplestop_skeleton,2022.2.2,60.169758069948145,
None,None,0,0,0,0,2,0,8,1,,,,,,,,,,,,,,,,,157.1145699173212,go,squareblack.png,right,0.2,157.13397899642587,157.13397899642587,157.63059865310788,157.63059865310788,157.64731074869633,157.83075815811753,158.33195409551263,158.63031005486846,159.6328196451068,159.64946057647467,right,1,159.64946057647467,159.64946057647467,0.0017183758318424225,0.4905190132558346,0.6905466914176941,160.13437432795763,practice,1,160.15460665151477,160.15460665151477,0.48685272783041,,,,,,,,,,,,,,,,,,,,,,,,,,,,,s005,001,2024-06-20_13h00.40.131,simplestop_skeleton,2022.2.2,60.169758069948145,
None,None,0,0,0,0,2,1,9,1,,,,,,,,,,,,,,,,,160.1348073258996,go,circleblack.png,left,0.2,160.15460665151477,160.15460665151477,160.65085922926664,160.65085922926664,160.66741727665067,160.8509587571025,161.35005543753505,161.6503504216671,162.65287222340703,162.6696106866002,left,1,162.6696106866002,162.6696106866002,0.0018157735466957092,0.49007225036621094,0.6902507096529007,163.1544024758041,practice,1,163.17424485087395,163.17424485087395,0.3348506726324558,,,,,,,,,,,,,,,,,,,,,,,,,,,,,s005,001,2024-06-20_13h00.40.131,simplestop_skeleton,2022.2.2,60.169758069948145,
$currentCorrectResponse,$currentGoStim,0,0,0,0,2,2,10,0,,,,,,,,,,,,,,,,,163.15484570339322,stop,circleblack.png,left,0.2,163.17424485087395,163.17424485087395,163.67085378617048,163.67085378617048,163.68745339661837,163.8709528632462,164.37003937363625,164.6704159528017,165.67331305518746,165.68964648246765,right,0,165.68964648246765,165.68964648246765,0.0013209320604801178,0.4896731302142143,0.6900005973875523,166.1745834760368,practice,1,166.1943731866777,166.1943731866777,0.35623571276664734,,,,,,,,,,,,,,,,,,,,,,,,,,,,,s005,001,2024-06-20_13h00.40.131,simplestop_skeleton,2022.2.2,60.169758069948145,
None,None,0,0,0,0,2,3,11,3,,,,,,,,,,,,,,,,,166.17508540302515,go,squareblack.png,right,0.15,166.1943731866777,166.1943731866777,166.69090062752366,166.69090062752366,166.70772767812014,166.84110863134265,167.341922942549,167.69039028137922,168.69290009513497,168.70962297916412,right,1,168.70962297916412,168.70962297916412,0.0016998834908008575,0.49007827043533325,0.6401071175932884,169.19439646229148,practice,1,169.2144292742014,169.2144292742014,0.48501310124993324,,,,,,,,,,,,,,,,,,,,,,,,,,,,,s005,001,2024-06-20_13h00.40.131,simplestop_skeleton,2022.2.2,60.169758069948145,
None,None,0,0,0,0,3,0,12,3,,,,,,,,,,,,,,,,,169.19481628760695,stop,circleblack.png,left,0.15,169.2144292742014,169.2144292742014,169.71078246831894,169.71078246831894,169.7275660224259,169.8610332943499,170.36152195185423,170.71184239909053,171.71298694983125,171.72964575514197,None,0,171.72964575514197,171.72964575514197,0.0018429383635520935,0.4901019521057606,0.6402783095836639,172.21445813775063,practice,1,172.23407123610377,172.23407123610377,,,,,,,,,,,,,,,,,,,,,,,,,,,,,,s005,001,2024-06-20_13h00.40.131,simplestop_skeleton,2022.2.2,60.169758069948145,
None,None,0,0,0,0,3,1,13,1,,,,,,,,,,,,,,,,,172.21489410847425,stop,squareblack.png,right,0.2,172.23407123610377,172.23407123610377,172.7310903519392,172.7310903519392,172.7474000006914,172.93138871714473,173.44674231484532,173.7317384928465,174.73329723998904,174.7495414018631,right,1,174.7495414018631,174.7495414018631,0.0016378462314605713,0.4900606945157051,0.6903355568647385,175.2343586087227,practice,1,175.25378827005625,175.25378827005625,0.5666064694523811,,,,,,,,,,,,,,,,,,,,,,,,,,,,,s005,001,2024-06-20_13h00.40.131,simplestop_skeleton,2022.2.2,60.169758069948145,
$currentCorrectResponse,$currentGoStim,0,0,0,0,3,2,14,0,,,,,,,,,,,,,,,,,175.23480485752225,go,squareblack.png,right,0.15,175.25378827005625,175.25378827005625,175.7511934004724,175.7511934004724,175.76749832555652,175.90095399692655,176.40185848250985,176.7503387965262,177.7529048845172,177.7529048845172,right,1,177.7529048845172,177.7529048845172,0.0011910498142242432,0.4902603328227997,0.6402954459190369,178.23783646151423,practice,1,178.2575973905623,178.2575973905623,0.4813846983015537,,,,,,,,,,,,,,,,,,,,,,,,,,,,,s005,001,2024-06-20_13h00.40.131,simplestop_skeleton,2022.2.2,60.169758069948145,
$currentCorrectResponse,$currentGoStim,0,0,0,0,3,3,15,0,,,,,,,,,,,,,,,,,178.23825945705175,stop,squareblack.png,right,0.15,178.2575973905623,178.2575973905623,178.75416620075703,178.75416620075703,178.77107468247414,178.90427424013615,179.40481135621667,179.75512344762683,180.75607585534453,180.77272284775972,None,0,180.77272284775972,180.77272284775972,0.0012004561722278595,0.4897412471473217,0.6400662437081337,181.25750435888767,practice,1,,,,,,,,,,,,,,,,,,,,,,,,,,,,,,,,s005,001,2024-06-20_13h00.40.131,simplestop_skeleton,2022.2.2,60.169758069948145,
None,None,0,0,0,0,4,0,16,1,,,,,,,,,,,,,,,,,181.25793496519327,go,squareblack.png,right,0.2,181.27684953063726,181.27684953063726,181.77381931245327,181.77381931245327,181.79061233997345,181.97420025244355,182.47316017001867,182.77361894771457,183.77607749402523,183.77607749402523,right,1,183.77607749402523,183.77607749402523,0.0011894963681697845,0.49024859070777893,0.6901068575680256,184.2608561180532,practice,1,184.28084627911448,184.28084627911448,0.36893167719244957,,,,,,,,,,,,,,,,,,,,,,,,,,,,,s005,001,2024-06-20_13h00.40.131,simplestop_skeleton,2022.2.2,60.169758069948145,
None,None,0,0,0,0,4,1,17,2,,,,,,,,,,,,,,,,,184.2613049261272,go,circleblack.png,left,0.2,184.28084627911448,184.28084627911448,184.77733832970262,184.77733832970262,184.7939177751541,184.9773589298129,185.47852750867605,185.7769551575184,186.7796231545508,186.79643175005913,left,1,186.79643175005913,186.79643175005913,0.001902509480714798,0.4902947396039963,0.6905019730329514,187.28111726790667,practice,1,187.30081808939576,187.30081808939576,0.4916455112397671,,,,,,,,,,,,,,,,,,,,,,,,,,,,,s005,001,2024-06-20_13h00.40.131,simplestop_skeleton,2022.2.2,60.169758069948145,
None,None,0,0,0,0,4,2,18,2,,,,,,,,,,,,,,,,,187.2815356068313,go,circleblack.png,left,0.2,187.30081808939576,187.30081808939576,187.797604393214,187.797604393214,187.81422078609467,187.9974318407476,188.49659051001072,188.79696880280972,189.79971173405647,189.81639701873064,left,1,189.81639701873064,189.81639701873064,0.0012537948787212372,0.49013951048254967,0.6902416050434113,190.3010788075626,practice,1,190.32086059078574,190.32086059078574,0.4233264662325382,,,,,,,,,,,,,,,,,,,,,,,,,,,,,s005,001,2024-06-20_13h00.40.131,simplestop_skeleton,2022.2.2,60.169758069948145,
None,None,0,0,0,0,4,3,19,2,,,,,,,,,,,,,,,,,190.30152458697557,go,squareblack.png,right,0.2,190.32086059078574,190.32086059078574,190.8172661140561,190.8172661140561,190.83381474763155,191.01779996231198,191.5184546932578,191.81685412302613,192.81935592368245,192.83640912175179,right,1,192.83640912175179,192.83640912175179,0.0016321353614330292,0.49007532373070717,0.6902623809874058,193.32075770944357,practice,1,,,0.49634359776973724,,,,,,,,,,,,,,,,,,,,,,,,,,,,,s005,001,2024-06-20_13h00.40.131,simplestop_skeleton,2022.2.2,60.169758069948145,
$currentCorrectResponse,$currentGoStim,0,0,0,0,5,0,20,0,,,,,,,,,,,,,,,,,193.32118252664804,go,circleblack.png,left,0.2,193.3406107723713,193.3406107723713,193.8357680439949,193.8357680439949,193.85257636383176,194.036071639508,194.53732769191265,194.8383167795837,195.83958584815264,195.83958584815264,left,1,195.83958584815264,195.83958584815264,0.001738235354423523,0.489116620272398,0.6892504468560219,196.32293398305774,practice,1,196.34008250385523,196.34008250385523,0.2936645336449146,,,,,,,,,,,,,,,,,,,,,,,,,,,,,s005,001,2024-06-20_13h00.40.131,simplestop_skeleton,2022.2.2,60.169758069948145,
None,None,0,0,0,0,5,1,21,3,,,,,,,,,,,,,,,,,196.32338597998023,stop,circleblack.png,left,0.2,196.34008250385523,196.34008250385523,196.839479919523,196.839479919523,196.839479919523,197.0403917953372,197.5418087951839,197.84058088436723,198.84310075640678,198.84310075640678,None,0,198.84310075640678,198.84310075640678,0.0012313835322856903,0.4902634955942631,0.6911295354366302,199.32682960107923,practice,1,199.34518152847886,199.34518152847886,,,,,,,,,,,,,,,,,,,,,,,,,,,,,,s005,001,2024-06-20_13h00.40.131,simplestop_skeleton,2022.2.2,60.169758069948145,
$currentCorrectResponse,$currentGoStim,0,0,0,0,5,2,22,0,,,,,,,,,,,,,,,,,199.32727393507957,go,circleblack.png,left,0.25,199.34518152847886,199.34518152847886,199.84304804354906,199.84304804354906,199.8603127077222,200.0945247709751,200.59491900354624,200.84368332847953,201.84644229337573,201.84644229337573,left,1,201.84644229337573,201.84644229337573,0.0012559182941913605,0.4903097301721573,0.7408844493329525,202.33121063560247,practice,1,202.3508128747344,202.3508128747344,0.47367239370942116,,,,,,,,,,,,,,,,,,,,,,,,,,,,,s005,001,2024-06-20_13h00.40.131,simplestop_skeleton,2022.2.2,60.169758069948145,
None,None,0,0,0,0,5,3,23,3,,,,,,,,,,,,,,,,,202.33163574710488,go,squareblack.png,right,0.25,202.3508128747344,202.3508128747344,202.84738496690989,202.84738496690989,202.8638580031693,203.09807531535625,203.61335759982467,203.84697879850864,204.8496361337602,204.8663175739348,right,1,204.8663175739348,204.8663175739348,0.0016422010958194733,0.4899599738419056,0.7401920035481453,205.35116346552968,practice,1,205.3689519688487,205.3689519688487,0.3912275545299053,,,,,,,,,,,,,,,,,,,,,,,,,,,,,s005,001,2024-06-20_13h00.40.131,simplestop_skeleton,2022.2.2,60.169758069948145,
,,0,0,0,0,,,,,,,,,,,,,"[{'fileName': 'circleblack.png', 'correct_response': 'left', 'condition': 'stop'}, {'fileName': 'circleblack.png', 'correct_response': 'left', 'condition': 'go'}, {'fileName': 'squareblack.png', 'correct_response': 'right', 'condition': 'go'}, {'fileName': 'squareblack.png', 'correct_response': 'right', 'condition': 'stop'}, {'fileName': 'circleblack.png', 'correct_response': 'left', 'condition': 'go'}, {'fileName': 'squareblack.png', 'correct_response': 'right', 'condition': 'go'}, {'fileName': 'circleblack.png', 'correct_response': 'left', 'condition': 'stop'}, {'fileName': 'squareblack.png', 'correct_response': 'right', 'condition': 'stop'}, {'fileName': 'squareblack.png', 'correct_response': 'right', 'condition': 'go'}, {'fileName': 'squareblack.png', 'correct_response': 'right', 'condition': 'go'}, {'fileName': 'circleblack.png', 'correct_response': 'left', 'condition': 'go'}, {'fileName': 'circleblack.png', 'correct_response': 'left', 'condition': 'go'}, {'fileName': 'circleblack.png', 'correct_response': 'left', 'condition': 'stop'}, {'fileName': 'squareblack.png', 'correct_response': 'right', 'condition': 'go'}, {'fileName': 'circleblack.png', 'correct_response': 'left', 'condition': 'go'}, {'fileName': 'squareblack.png', 'correct_response': 'right', 'condition': 'go'}, {'fileName': 'squareblack.png', 'correct_response': 'right', 'condition': 'stop'}, {'fileName': 'circleblack.png', 'correct_response': 'left', 'condition': 'stop'}, {'fileName': 'squareblack.png', 'correct_response': 'right', 'condition': 'go'}, {'fileName': 'circleblack.png', 'correct_response': 'left', 'condition': 'go'}, {'fileName': 'squareblack.png', 'correct_response': 'right', 'condition': 'stop'}, {'fileName': 'squareblack.png', 'correct_response': 'right', 'condition': 'go'}, {'fileName': 'circleblack.png', 'correct_response': 'left', 'condition': 'go'}, {'fileName': 'circleblack.png', 'correct_response': 'left', 'condition': 'go'}]",,,,,,,,,,,,,,,,,,,,,,,,,,,,,,,,,,,,205.3689519688487,205.3689519688487,return,2.9239889346063137,,,,,,,,,,,,,,,,,,,,,,,,,s005,001,2024-06-20_13h00.40.131,simplestop_skeleton,2022.2.2,60.169758069948145,
$currentCorrectResponse,$currentGoStim,,,,,,,,,0,0,0,0,0,0,0,0,,,,,,,,,214.45210190489888,stop,squareblack.png,right,0.25,,,,,,,,,,,,,,,0.001963399350643158,0.4987492524087429,0.7491524741053581,216.9645756855607,test,1,,,,,,,,208.32015201076865,208.32015201076865,214.47127894312143,214.97767581418157,214.97767581418157,214.97767581418157,215.22761504352093,215.72829065099359,215.97833064943552,216.9836468398571,None,0,0.3,,,,,,,,,,,,s005,001,2024-06-20_13h00.40.131,simplestop_skeleton,2022.2.2,60.169758069948145,
None,None,,,,,,,,,0,0,0,0,0,1,1,1,,,,,,,,,216.96513306722045,go,squareblack.png,right,0.3,,,,,,,,,,,,,,,0.0013981834053993225,0.48903853446245193,,219.46725054457784,test,1,,,,,,,,,,216.9836468398571,217.49671619012952,217.48023758083582,217.48023758083582,217.7806398384273,218.29631980508566,218.4797067567706,219.4868131764233,right,1,0.3,0.4600839130580425,,,,,,,,,,,s005,001,2024-06-20_13h00.40.131,simplestop_skeleton,2022.2.2,60.169758069948145,
None,None,,,,,,,,,0,0,0,0,0,2,2,1,,,,,,,,,219.46770120039582,stop,circleblack.png,left,0.3,,,,,,,,,,,,,,,0.002679206430912018,0.48918502777814865,0.7896946668624878,221.9699937440455,test,1,,,,,,,,,,219.4868131764233,219.99975592270494,219.98315931484103,219.98315931484103,220.2830477282405,220.7822068594396,220.98248017206788,221.9890827909112,left,1,0.25,0.3883572816848755,,,,,,,,,,,s005,001,2024-06-20_13h00.40.131,simplestop_skeleton,2022.2.2,60.169758069948145,
$currentCorrectResponse,$currentGoStim,,,,,,,,,0,0,0,0,0,3,3,0,,,,,,,,,221.97044747695327,go,circleblack.png,left,0.25,,,,,,,,,,,,,,,0.0014825426042079926,0.4892677552998066,,224.4722951836884,test,1,,,,,,,,,,221.9890827909112,222.50243747234344,222.48547442257404,222.48547442257404,222.73587583750486,223.23528452590108,223.48520105332136,224.49114496260881,left,1,0.25,0.42239074036478996,,,,,,,,,,,s005,001,2024-06-20_13h00.40.131,simplestop_skeleton,2022.2.2,60.169758069948145,
None,None,,,,,,,,,0,0,0,0,1,0,4,2,,,,,,,,,224.47274332493544,go,circleblack.png,left,0.25,,,,,,,,,,,,,,,0.001421067863702774,0.49002792686223984,,226.97530464082956,test,1,,,,,,,,,,224.49114496260881,225.00508159399033,224.9883450642228,224.9883450642228,225.2386595979333,225.737836509943,225.98802303150296,226.99491916969419,left,1,0.25,0.386201873421669,,,,,,,,,,,s005,001,2024-06-20_13h00.40.131,simplestop_skeleton,2022.2.2,60.169758069948145,
None,None,,,,,,,,,0,0,0,0,1,1,5,2,,,,,,,,,226.97574669495225,go,squareblack.png,right,0.25,,,,,,,,,,,,,,,0.0019340552389621735,0.4892468713223934,,229.47776932641864,test,1,,,,,,,,,,226.99491916969419,227.50764733180404,227.49112383648753,227.49112383648753,227.74128586426377,228.24093951284885,228.490700956434,229.49676756560802,right,1,0.25,0.3810594193637371,,,,,,,,,,,s005,001,2024-06-20_13h00.40.131,simplestop_skeleton,2022.2.2,60.169758069948145,
None,None,,,,,,,,,0,0,0,0,1,2,6,2,,,,,,,,,229.47822327166796,go,squareblack.png,right,0.25,,,,,,,,,,,,,,,0.001316610723733902,0.48946544900536537,,231.9806423485279,test,1,,,,,,,,,,229.49676756560802,230.0109922364354,229.99390753358603,229.99390753358603,230.2441148646176,230.74325605109334,230.9935154914856,231.99958364665508,right,1,0.25,0.3678958788514137,,,,,,,,,,,s005,001,2024-06-20_13h00.40.131,simplestop_skeleton,2022.2.2,60.169758069948145,
None,None,,,,,,,,,0,0,0,0,1,3,7,1,,,,,,,,,231.98109517246485,stop,squareblack.png,right,0.25,,,,,,,,,,,,,,,0.001345764845609665,0.489632036536932,0.7400032691657543,234.4833709038794,test,1,,,,,,,,,,231.99958364665508,232.51339769363403,232.496875166893,232.496875166893,232.74696726724505,233.24622190371156,233.4963524080813,234.50275571644306,right,1,0.2,0.3457919992506504,,,,,,,,,,,s005,001,2024-06-20_13h00.40.131,simplestop_skeleton,2022.2.2,60.169758069948145,
None,None,,,,,,,,,0,0,0,0,2,0,8,3,,,,,,,,,234.48381091281772,go,circleblack.png,left,0.2,,,,,,,,,,,,,,,0.0018615052103996277,0.48990969359874725,,236.9864135608077,test,1,,,,,,,,,,234.50275571644306,235.0163333490491,234.9994928240776,234.9994928240776,235.19957295060158,235.6987718231976,235.99921808764338,237.0057341530919,left,1,0.2,0.4917219653725624,,,,,,,,,,,s005,001,2024-06-20_13h00.40.131,simplestop_skeleton,2022.2.2,60.169758069948145,
None,None,,,,,,,,,0,0,0,0,2,1,9,2,,,,,,,,,236.98686512187123,go,squareblack.png,right,0.2,,,,,,,,,,,,,,,0.0016899257898330688,0.4891347475349903,,239.48900892212987,test,1,,,,,,,,,,237.0057341530919,237.51883763074875,237.5022962987423,237.5022962987423,237.7023666575551,238.20338927954435,238.50182449817657,239.50876637920737,right,1,0.2,0.4862401857972145,,,,,,,,,,,s005,001,2024-06-20_13h00.40.131,simplestop_skeleton,2022.2.2,60.169758069948145,
None,None,,,,,,,,,0,0,0,0,2,2,10,3,,,,,,,,,239.48947452008724,go,circleblack.png,left,0.2,,,,,,,,,,,,,,,0.0025421269237995148,0.4892796091735363,,241.9916045628488,test,1,,,,,,,,,,239.50876637920737,240.02171172574162,240.00476215407252,240.00476215407252,240.2050741277635,240.70558651909232,241.0044795423746,242.0101533047855,left,1,0.2,0.41429421678185463,,,,,,,,,,,s005,001,2024-06-20_13h00.40.131,simplestop_skeleton,2022.2.2,60.169758069948145,
None,None,,,,,,,,,0,0,0,0,2,3,11,3,,,,,,,,,241.99204344674945,stop,circleblack.png,left,0.2,,,,,,,,,,,,,,,0.0012474916875362396,0.48983706906437874,0.6904681995511055,244.49419233947992,test,1,,,,,,,,,,242.0101533047855,242.52422328293324,242.50770234316587,242.50770234316587,242.71929042041302,243.2243508771062,243.5088067688048,244.513183131814,None,0,0.25,,,,,,,,,,,,s005,001,2024-06-20_13h00.40.131,simplestop_skeleton,2022.2.2,60.169758069948145,
$currentCorrectResponse,$currentGoStim,,,,,,,,,0,0,0,0,3,0,12,0,,,,,,,,,244.49464491009712,go,squareblack.png,right,0.25,,,,,,,,,,,,,,,0.0016681291162967682,0.48993342369794846,,246.99704442545772,test,1,,,,,,,,,,244.513183131814,245.02711451798677,245.01023251190782,245.01023251190782,245.26064779609442,245.75988322123885,246.00996738299727,247.01668015122414,right,1,0.25,0.35551780089735985,,,,,,,,,,,s005,001,2024-06-20_13h00.40.131,simplestop_skeleton,2022.2.2,60.169758069948145,
None,None,,,,,,,,,0,0,0,0,3,1,13,2,,,,,,,,,246.9974973089993,go,circleblack.png,left,0.25,,,,,,,,,,,,,,,0.001985698938369751,0.48947320133447647,,249.5001183860004,test,1,,,,,,,,,,247.01668015122414,247.52976178377867,247.51292018592358,247.51292018592358,247.7633448690176,248.26457585766912,248.5127706564963,249.51994575560093,left,1,0.25,0.48124000802636147,,,,,,,,,,,s005,001,2024-06-20_13h00.40.131,simplestop_skeleton,2022.2.2,60.169758069948145,
None,None,,,,,,,,,0,0,0,0,3,2,14,3,,,,,,,,,249.50055615976453,stop,circleblack.png,left,0.25,,,,,,,,,,,,,,,0.0015064813196659088,0.4889068603515625,0.7392082400619984,252.0025146380067,test,1,,,,,,,,,,249.51994575560093,250.03236723691225,250.01585732027888,250.01585732027888,250.26605535298586,250.7666441462934,251.01708492264152,252.01977058127522,None,0,0.3,,,,,,,,,,,,s005,001,2024-06-20_13h00.40.131,simplestop_skeleton,2022.2.2,60.169758069948145,
None,None,,,,,,,,,0,0,0,0,3,3,15,1,,,,,,,,,252.00295785814524,stop,squareblack.png,right,0.3,,,,,,,,,,,,,,,0.0016857609152793884,0.49008362740278244,0.7902863174676895,254.50536258146167,test,1,,,,,,,,,,252.01977058127522,252.5191280990839,252.5191280990839,252.5191280990839,252.81912450119853,253.3182482086122,253.51841233298182,254.52408792451024,right,1,0.25,0.3638384938240051,,,,,,,,,,,s005,001,2024-06-20_13h00.40.131,simplestop_skeleton,2022.2.2,60.169758069948145,
None,None,,,,,,,,,0,0,0,0,4,0,16,3,,,,,,,,,254.5058028884232,stop,squareblack.png,right,0.25,,,,,,,,,,,,,,,0.0013528205454349518,0.49004580080509186,0.7401868775486946,257.0082291699946,test,1,,,,,,,,,,254.52408792451024,255.03811547905207,255.0215230472386,255.0215230472386,255.27188933640718,255.77284251525998,256.02115055918694,257.02760184928775,None,0,0.3,,,,,,,,,,,,s005,001,2024-06-20_13h00.40.131,simplestop_skeleton,2022.2.2,60.169758069948145,
None,None,,,,,,,,,0,0,0,0,4,1,17,2,,,,,,,,,257.00867311656475,go,circleblack.png,left,0.3,,,,,,,,,,,,,,,0.002015288919210434,0.48967477679252625,,259.5109980031848,test,1,,,,,,,,,,257.02760184928775,257.54109793901443,257.52434504777193,257.52434504777193,257.824814978987,258.3403042964637,258.5239799208939,259.5299968011677,left,1,0.3,0.397618368268013,,,,,,,,,,,s005,001,2024-06-20_13h00.40.131,simplestop_skeleton,2022.2.2,60.169758069948145,
None,None,,,,,,,,,0,0,0,0,4,2,18,1,,,,,,,,,259.5114518664777,go,circleblack.png,left,0.3,,,,,,,,,,,,,,,0.0013911016285419464,0.48957395553588867,,262.01384035870433,test,1,,,,,,,,,,259.5299968011677,260.04374035820365,260.02718271687627,260.02718271687627,260.3272515386343,260.8264120593667,261.0266464613378,262.03292456269264,left,1,0.3,0.3388961963355541,,,,,,,,,,,s005,001,2024-06-20_13h00.40.131,simplestop_skeleton,2022.2.2,60.169758069948145,
None,None,,,,,,,,,0,0,0,0,4,3,19,3,,,,,,,,,262.01435977593064,stop,circleblack.png,left,0.3,,,,,,,,,,,,,,,0.0013974644243717194,0.48957692831754684,0.7901877425611019,264.5165257155895,test,1,,,,,,,,,,262.03292456269264,262.54648945853114,262.5296701565385,262.5296701565385,262.8302120529115,263.33102475479245,263.5310467965901,264.53591023385525,None,0,0.35,,,,,,,,,,,,s005,001,2024-06-20_13h00.40.131,simplestop_skeleton,2022.2.2,60.169758069948145,
None,None,,,,,,,,,0,0,0,0,5,0,20,3,,,,,,,,,264.5169616267085,go,squareblack.png,right,0.35,,,,,,,,,,,,,,,0.001721065491437912,0.48986389860510826,,267.0191655308008,test,1,,,,,,,,,,264.53591023385525,265.04913130030036,265.03258408233523,265.03258408233523,265.38312735781074,265.8823498375714,266.0326052233577,267.0383108779788,right,1,0.35,0.45698315277695656,,,,,,,,,,,s005,001,2024-06-20_13h00.40.131,simplestop_skeleton,2022.2.2,60.169758069948145,
$currentCorrectResponse,$currentGoStim,,,,,,,,,0,0,0,0,5,1,21,0,,,,,,,,,267.01961425691843,go,squareblack.png,right,0.35,,,,,,,,,,,,,,,0.0013179779052734375,0.4893650896847248,,269.52191587165,test,1,,,,,,,,,,267.0383108779788,267.5518608801067,267.53567162528634,267.53567162528634,267.8855335265398,268.38491932302713,268.5350724160671,269.54087521135807,right,1,0.35,0.550987109541893,,,,,,,,,,,s005,001,2024-06-20_13h00.40.131,simplestop_skeleton,2022.2.2,60.169758069948145,
None,None,,,,,,,,,0,0,0,0,5,2,22,3,,,,,,,,,269.52236558124423,go,squareblack.png,right,0.35,,,,,,,,,,,,,,,0.0012591034173965454,0.49032749980688095,,272.0246787145734,test,1,,,,,,,,,,269.54087521135807,270.05461314693093,270.03806510940194,270.03806510940194,270.3883391469717,270.8890929184854,271.0376773811877,272.0444761104882,right,1,0.35,0.5684996210038662,,,,,,,,,,,s005,001,2024-06-20_13h00.40.131,simplestop_skeleton,2022.2.2,60.169758069948145,
None,None,,,,,,,,,0,0,0,0,5,3,23,1,,,,,,,,,272.02512443065643,go,circleblack.png,left,0.35,,,,,,,,,,,,,,,0.0020513534545898438,0.4899122752249241,,274.5275430418551,test,1,,,,,,,,,,272.0444761104882,272.5575434714556,272.5408820807934,272.5408820807934,272.8914368748665,273.4069748558104,273.54054271802306,274.54701744765043,left,1,0.35,0.4642399586737156,,,,,,,,,,,s005,001,2024-06-20_13h00.40.131,simplestop_skeleton,2022.2.2,60.169758069948145,
None,None,,,,,,,,,0,0,0,0,6,0,24,3,,,,,,,,,274.52799139916897,go,squareblack.png,right,0.35,,,,,,,,,,,,,,,0.001814860850572586,0.4894271269440651,,277.03061443567276,test,1,,,,,,,,,,274.54701744765043,275.06045819073915,275.04372630640864,275.04372630640864,275.39415241777897,275.9097644649446,276.0431655459106,277.0487410314381,right,1,0.35,0.4572507403790951,,,,,,,,,,,s005,001,2024-06-20_13h00.40.131,simplestop_skeleton,2022.2.2,60.169758069948145,
None,None,,,,,,,,,0,0,0,0,6,1,25,1,,,,,,,,,277.0312603376806,go,squareblack.png,right,0.35,,,,,,,,,,,,,,,0.0019553713500499725,0.48744330555200577,,279.53289852291346,test,1,,,,,,,,,,277.0487410314381,277.56186624988914,277.5452274940908,277.5452274940908,277.8955292738974,278.3961703889072,278.54630974680185,279.55217082053423,right,1,0.35,0.45406772568821907,,,,,,,,,,,s005,001,2024-06-20_13h00.40.131,simplestop_skeleton,2022.2.2,60.169758069948145,
None,None,,,,,,,,,0,0,0,0,6,2,26,1,,,,,,,,,279.533349275589,go,circleblack.png,left,0.35,,,,,,,,,,,,,,,0.001844055950641632,0.4899517334997654,,282.03565737977624,test,1,,,,,,,,,,279.55217082053423,280.06582083553076,280.0492078475654,280.0492078475654,280.3995241485536,280.8986073471606,281.0487239435315,282.0543627515435,left,1,0.35,0.5144714117050171,,,,,,,,,,,s005,001,2024-06-20_13h00.40.131,simplestop_skeleton,2022.2.2,60.169758069948145,
None,None,,,,,,,,,0,0,0,0,6,3,27,3,,,,,,,,,282.03609052300453,go,circleblack.png,left,0.35,,,,,,,,,,,,,,,0.0013244673609733582,0.48980727419257164,,284.5383256264031,test,1,,,,,,,,,,282.0543627515435,282.5683667510748,282.5517738945782,282.5517738945782,282.9021909274161,283.4013158194721,283.55144514143467,284.5575957223773,left,1,0.35,0.3895992487668991,,,,,,,,,,,s005,001,2024-06-20_13h00.40.131,simplestop_skeleton,2022.2.2,60.169758069948145,
$currentCorrectResponse,$currentGoStim,,,,,,,,,0,0,0,0,7,0,28,0,,,,,,,,,284.53876227140427,stop,squareblack.png,right,0.35,,,,,,,,,,,,,,,0.0016811750829219818,0.48962830752134323,0.840164490044117,287.0417429730296,test,1,,,,,,,,,,284.5575957223773,285.0711771696806,285.05464489385486,285.05464489385486,285.40495118126273,285.90404872596264,286.05425160750747,287.06055434420705,right,1,0.3,0.42238568514585495,,,,,,,,,,,s005,001,2024-06-20_13h00.40.131,simplestop_skeleton,2022.2.2,60.169758069948145,
$currentCorrectResponse,$currentGoStim,,,,,,,,,0,0,0,0,7,1,29,0,,,,,,,,,287.04219687357545,go,squareblack.png,right,0.3,,,,,,,,,,,,,,,0.0013471730053424835,0.48953184112906456,,289.54419054463506,test,1,,,,,,,,,,287.06055434420705,287.5742445960641,287.55735706165433,287.55735706165433,287.8578259944916,288.3568174764514,288.55700732022524,289.5631546974182,right,1,0.3,0.46157706156373024,,,,,,,,,,,s005,001,2024-06-20_13h00.40.131,simplestop_skeleton,2022.2.2,60.169758069948145,
$currentCorrectResponse,$currentGoStim,,,,,,,,,0,0,0,0,7,2,30,0,,,,,,,,,289.54463424533606,go,squareblack.png,right,0.3,,,,,,,,,,,,,,,0.001324538141489029,0.48934635147452354,,292.04724864289165,test,1,,,,,,,,,,289.5631546974182,290.0768159739673,290.0603241585195,290.0603241585195,290.3603858537972,290.8596829511225,291.0597872212529,292.06675120815635,right,1,0.3,0.4482295699417591,,,,,,,,,,,s005,001,2024-06-20_13h00.40.131,simplestop_skeleton,2022.2.2,60.169758069948145,
None,None,,,,,,,,,0,0,0,0,7,3,31,2,,,,,,,,,292.04768466576934,go,circleblack.png,left,0.3,,,,,,,,,,,,,,,0.002191822975873947,0.48952561244368553,,294.5495999008417,test,1,,,,,,,,,,292.06675120815635,292.57985777407885,292.56335167214274,292.56335167214274,292.8619097210467,293.3656031899154,293.5634351372719,294.5686389580369,left,1,0.3,0.47290949150919914,,,,,,,,,,,s005,001,2024-06-20_13h00.40.131,simplestop_skeleton,2022.2.2,60.169758069948145,
None,None,,,,,,,,,0,0,0,0,8,0,32,3,,,,,,,,,294.55004086345434,stop,circleblack.png,left,0.3,,,,,,,,,,,,,,,0.0014156848192214966,0.48960575833916664,0.7902611903846264,297.0510057322681,test,1,,,,,,,,,,294.5686389580369,295.0827125348151,295.0657788813114,295.0657788813114,295.3659571260214,295.86663792282343,296.06660490110517,297.0676733106375,None,0,0.35,,,,,,,,,,,,s005,001,2024-06-20_13h00.40.131,simplestop_skeleton,2022.2.2,60.169758069948145,
None,None,,,,,,,,,0,0,0,0,8,1,33,2,,,,,,,,,297.05145655572414,stop,circleblack.png,left,0.35,,,,,,,,,,,,,,,0.0012459121644496918,0.4897472821176052,0.8399779051542282,299.55523462221026,test,1,,,,,,,,,,297.0676733106375,297.56694734096527,297.56694734096527,297.56694734096527,297.91729686781764,298.4192760847509,298.56942954286933,299.5745335742831,left,1,0.3,0.3746213875710964,,,,,,,,,,,s005,001,2024-06-20_13h00.40.131,simplestop_skeleton,2022.2.2,60.169758069948145,
None,None,,,,,,,,,0,0,0,0,8,2,34,2,,,,,,,,,299.55568512901664,stop,squareblack.png,right,0.3,,,,,,,,,,,,,,,0.0018239058554172516,0.48969288170337677,0.790018904954195,302.0582441352308,test,1,,,,,,,,,,299.5745335742831,300.08778274804354,300.0713678561151,300.0713678561151,300.37167228758335,300.87061181664467,301.07083785906434,302.0775516666472,right,1,0.25,0.44167598709464073,,,,,,,,,,,s005,001,2024-06-20_13h00.40.131,simplestop_skeleton,2022.2.2,60.169758069948145,
None,None,,,,,,,,,0,0,0,0,8,3,35,1,,,,,,,,,302.05869729816914,go,circleblack.png,left,0.25,,,,,,,,,,,,,,,0.00192168727517128,0.4892762750387192,,304.5607581026852,test,1,,,,,,,,,,302.0775516666472,302.5907466635108,302.57400376722217,302.57400376722217,302.8243302293122,303.32534005865455,303.57366786524653,304.5801365710795,left,1,0.25,0.5145546235144138,,,,,,,,,,,s005,001,2024-06-20_13h00.40.131,simplestop_skeleton,2022.2.2,60.169758069948145,
$currentCorrectResponse,$currentGoStim,,,,,,,,,0,0,0,0,9,0,36,0,,,,,,,,,304.56121265143156,stop,squareblack.png,right,0.25,,,,,,,,,,,,,,,0.0017207153141498566,0.48992208391427994,0.739788006991148,307.0635250620544,test,1,,,,,,,,,,304.5801365710795,305.09341729432344,305.07663774490356,305.07663774490356,305.327322691679,305.8274164944887,306.07818226516247,307.0831379927695,None,0,0.3,,,,,,,,,,,,s005,001,2024-06-20_13h00.40.131,simplestop_skeleton,2022.2.2,60.169758069948145,
None,None,,,,,,,,,0,0,0,0,9,1,37,2,,,,,,,,,307.0639778971672,go,circleblack.png,left,0.3,,,,,,,,,,,,,,,0.0019237585365772247,0.4894484207034111,,309.56618976965547,test,1,,,,,,,,,,307.0831379927695,307.5960414931178,307.57936491817236,307.57936491817236,307.8796758390963,308.3807628750801,308.57917242497206,309.5853085592389,left,1,0.3,0.557350367307663,,,,,,,,,,,s005,001,2024-06-20_13h00.40.131,simplestop_skeleton,2022.2.2,60.169758069948145,
$currentCorrectResponse,$currentGoStim,,,,,,,,,0,0,0,0,9,2,38,0,,,,,,,,,309.56663651019335,go,circleblack.png,left,0.3,,,,,,,,,,,,,,,0.0014409460127353668,0.4898150712251663,,312.06880129501224,test,1,,,,,,,,,,309.5853085592389,310.0990735515952,310.08234939724207,310.08234939724207,310.3826437816024,310.8834434747696,311.0817910283804,312.08758544176817,left,1,0.3,0.5440492071211338,,,,,,,,,,,s005,001,2024-06-20_13h00.40.131,simplestop_skeleton,2022.2.2,60.169758069948145,
None,None,,,,,,,,,0,0,0,0,9,3,39,2,,,,,,,,,312.0692390091717,go,circleblack.png,left,0.3,,,,,,,,,,,,,,,0.0012920238077640533,0.48986008763313293,,314.57181518152356,test,1,,,,,,,,,,312.08758544176817,312.60200564563274,312.5849921517074,312.5849921517074,312.88515589386225,313.38439309224486,313.5845700278878,314.59085228294134,left,1,0.3,0.3648434542119503,,,,,,,,,,,s005,001,2024-06-20_13h00.40.131,simplestop_skeleton,2022.2.2,60.169758069948145,
$currentCorrectResponse,$currentGoStim,,,,,,,,,0,0,0,0,10,0,40,0,,,,,,,,,314.57225915789604,go,squareblack.png,right,0.3,,,,,,,,,,,,,,,0.0016473755240440369,0.48950401693582535,,317.0745056644082,test,1,,,,,,,,,,314.59085228294134,315.10440495610237,315.0880083069205,315.0880083069205,315.38831279054284,315.8889668956399,316.0872948206961,317.0934599377215,right,1,0.3,0.6387507878243923,,,,,,,,,,,s005,001,2024-06-20_13h00.40.131,simplestop_skeleton,2022.2.2,60.169758069948145,
None,None,,,,,,,,,0,0,0,0,10,1,41,2,,,,,,,,,317.0749534331262,go,squareblack.png,right,0.3,,,,,,,,,,,,,,,0.0012525804340839386,0.48804499208927155,,319.5769533328712,test,1,,,,,,,,,,317.0934599377215,317.6056890487671,317.58901046589017,317.58901046589017,317.8893194794655,318.39121647551656,318.59136006608605,319.59641341492534,right,1,0.3,0.394686933606863,,,,,,,,,,,s005,001,2024-06-20_13h00.40.131,simplestop_skeleton,2022.2.2,60.169758069948145,
None,None,,,,,,,,,0,0,0,0,10,2,42,1,,,,,,,,,319.5773930065334,stop,circleblack.png,left,0.3,,,,,,,,,,,,,,,0.001858733594417572,0.4895681403577328,0.7901277467608452,322.0803175084293,test,1,,,,,,,,,,319.59641341492534,320.10991384088993,320.09328242763877,320.09328242763877,320.3934356197715,320.8926902413368,321.09283212944865,322.0991818495095,left,1,0.25,0.3503151312470436,,,,,,,,,,,s005,001,2024-06-20_13h00.40.131,simplestop_skeleton,2022.2.2,60.169758069948145,
None,None,,,,,,,,,0,0,0,0,10,3,43,1,,,,,,,,,322.08076233416796,go,circleblack.png,left,0.25,,,,,,,,,,,,,,,0.0015220269560813904,0.48973725363612175,,324.583114400506,test,1,,,,,,,,,,322.0991818495095,322.6130222417414,322.5959450080991,322.5959450080991,322.84620855003595,323.3455490395427,323.59564769268036,324.6018765345216,left,1,0.25,0.358071930706501,,,,,,,,,,,s005,001,2024-06-20_13h00.40.131,simplestop_skeleton,2022.2.2,60.169758069948145,
$currentCorrectResponse,$currentGoStim,,,,,,,,,0,0,0,0,11,0,44,0,,,,,,,,,324.5835662037134,stop,circleblack.png,left,0.25,,,,,,,,,,,,,,,0.001383364200592041,0.48948509991168976,0.7398259602487087,327.08563803881407,test,1,,,,,,,,,,324.6018765345216,325.1154319345951,325.0987713932991,325.0987713932991,325.3490986973047,325.8481537178159,326.0984810627997,327.1106429696083,left,1,0.2,0.41538915410637856,,,,,,,,,,,s005,001,2024-06-20_13h00.40.131,simplestop_skeleton,2022.2.2,60.169758069948145,
None,None,,,,,,,,,0,0,0,0,11,1,45,1,,,,,,,,,327.08612659946084,stop,squareblack.png,right,0.2,,,,,,,,,,,,,,,0.0074418820440769196,0.48924481123685837,0.6895691230893135,329.58855426311493,test,1,,,,,,,,,,327.1106429696083,327.61887519806623,327.6016635000706,327.6016635000706,327.80180280283093,328.30272502452135,328.60128128156066,329.6074030548334,right,1,0.15,0.4482930414378643,,,,,,,,,,,s005,001,2024-06-20_13h00.40.131,simplestop_skeleton,2022.2.2,60.169758069948145,
None,None,,,,,,,,,0,0,0,0,11,2,46,3,,,,,,,,,329.58898711949587,go,squareblack.png,right,0.15,,,,,,,,,,,,,,,0.0013260804116725922,0.48960237577557564,,332.09123750403523,test,1,,,,,,,,,,329.6074030548334,330.12107046693563,330.1043601408601,330.1043601408601,330.25425212830305,330.7559028379619,331.1039845086634,332.11012567579746,right,1,0.15,0.5470225661993027,,,,,,,,,,,s005,001,2024-06-20_13h00.40.131,simplestop_skeleton,2022.2.2,60.169758069948145,
$currentCorrectResponse,$currentGoStim,,,,,,,,,0,0,0,0,11,3,47,0,,,,,,,,,332.0916939340532,go,squareblack.png,right,0.15,,,,,,,,,,,,,,,0.0013552941381931305,0.4895857162773609,,334.59360518306494,test,1,,,,,,,,,,332.11012567579746,332.62402830272913,332.6071426868439,332.6071426868439,332.757371108979,333.2583023160696,333.6068000420928,334.61472960561514,right,1,0.15,0.4518909268081188,,,,,,,,,,,s005,001,2024-06-20_13h00.40.131,simplestop_skeleton,2022.2.2,60.169758069948145,
,,,,,,,,,,0,0,0,0,,,,,,"[{'fileName': 'squareblack.png', 'correct_response': 'right', 'condition': 'go'}, {'fileName': 'circleblack.png', 'correct_response': 'left', 'condition': 'stop'}, {'fileName': 'squareblack.png', 'correct_response': 'right', 'condition': 'stop'}, {'fileName': 'squareblack.png', 'correct_response': 'right', 'condition': 'go'}, {'fileName': 'squareblack.png', 'correct_response': 'right', 'condition': 'go'}, {'fileName': 'circleblack.png', 'correct_response': 'left', 'condition': 'stop'}, {'fileName': 'squareblack.png', 'correct_response': 'right', 'condition': 'stop'}, {'fileName': 'circleblack.png', 'correct_response': 'left', 'condition': 'go'}, {'fileName': 'circleblack.png', 'correct_response': 'left', 'condition': 'go'}, {'fileName': 'circleblack.png', 'correct_response': 'left', 'condition': 'go'}, {'fileName': 'squareblack.png', 'correct_response': 'right', 'condition': 'go'}, {'fileName': 'circleblack.png', 'correct_response': 'left', 'condition': 'go'}, {'fileName': 'circleblack.png', 'correct_response': 'left', 'condition': 'stop'}, {'fileName': 'circleblack.png', 'correct_response': 'left', 'condition': 'go'}, {'fileName': 'squareblack.png', 'correct_response': 'right', 'condition': 'go'}, {'fileName': 'circleblack.png', 'correct_response': 'left', 'condition': 'stop'}, {'fileName': 'circleblack.png', 'correct_response': 'left', 'condition': 'go'}, {'fileName': 'squareblack.png', 'correct_response': 'right', 'condition': 'go'}, {'fileName': 'circleblack.png', 'correct_response': 'left', 'condition': 'go'}, {'fileName': 'squareblack.png', 'correct_response': 'right', 'condition': 'go'}, {'fileName': 'circleblack.png', 'correct_response': 'left', 'condition': 'go'}, {'fileName': 'squareblack.png', 'correct_response': 'right', 'condition': 'stop'}, {'fileName': 'squareblack.png', 'correct_response': 'right', 'condition': 'stop'}, {'fileName': 'squareblack.png', 'correct_response': 'right', 'condition': 'go'}, {'fileName': 'circleblack.png', 'correct_response': 'left', 'condition': 'go'}, {'fileName': 'circleblack.png', 'correct_response': 'left', 'condition': 'go'}, {'fileName': 'circleblack.png', 'correct_response': 'left', 'condition': 'go'}, {'fileName': 'circleblack.png', 'correct_response': 'left', 'condition': 'go'}, {'fileName': 'squareblack.png', 'correct_response': 'right', 'condition': 'go'}, {'fileName': 'squareblack.png', 'correct_response': 'right', 'condition': 'go'}, {'fileName': 'circleblack.png', 'correct_response': 'left', 'condition': 'stop'}, {'fileName': 'circleblack.png', 'correct_response': 'left', 'condition': 'stop'}, {'fileName': 'squareblack.png', 'correct_response': 'right', 'condition': 'go'}, {'fileName': 'squareblack.png', 'correct_response': 'right', 'condition': 'stop'}, {'fileName': 'squareblack.png', 'correct_response': 'right', 'condition': 'go'}, {'fileName': 'squareblack.png', 'correct_response': 'right', 'condition': 'stop'}, {'fileName': 'squareblack.png', 'correct_response': 'right', 'condition': 'go'}, {'fileName': 'circleblack.png', 'correct_response': 'left', 'condition': 'go'}, {'fileName': 'squareblack.png', 'correct_response': 'right', 'condition': 'stop'}, {'fileName': 'squareblack.png', 'correct_response': 'right', 'condition': 'stop'}, {'fileName': 'circleblack.png', 'correct_response': 'left', 'condition': 'stop'}, {'fileName': 'circleblack.png', 'correct_response': 'left', 'condition': 'go'}, {'fileName': 'circleblack.png', 'correct_response': 'left', 'condition': 'go'}, {'fileName': 'circleblack.png', 'correct_response': 'left', 'condition': 'stop'}, {'fileName': 'circleblack.png', 'correct_response': 'left', 'condition': 'go'}, {'fileName': 'squareblack.png', 'correct_response': 'right', 'condition': 'go'}, {'fileName': 'squareblack.png', 'correct_response': 'right', 'condition': 'go'}, {'fileName': 'squareblack.png', 'correct_response': 'right', 'condition': 'go'}]",,,,,,,,,,,,,,,,,,,,,,,,,,,,,,,,,,,,,,,,,,,,,,,,,,,,,334.61472960561514,334.61472960561514,return,48.949178367853165,,,,,,,s005,001,2024-06-20_13h00.40.131,simplestop_skeleton,2022.2.2,60.169758069948145,
None,None,,,,,,,,,1,0,1,0,0,0,0,1,,,,,,,,,383.59717458859086,go,squareblack.png,right,0.15,,,,,,,,,,,,,,,0.001185636967420578,0.4905274584889412,,386.1008595377207,test,2,,,,,,,,,,383.6151155643165,384.1304375231266,384.11388489603996,384.11388489603996,384.26387160271406,384.764503326267,385.1148536428809,386.1256080940366,right,1,0.15,0.7447237372398376,,,,,,,,,,,s005,001,2024-06-20_13h00.40.131,simplestop_skeleton,2022.2.2,60.169758069948145,
None,None,,,,,,,,,1,0,1,0,0,1,1,1,,,,,,,,,386.10140793025494,stop,circleblack.png,left,0.15,,,,,,,,,,,,,,,0.007886439561843872,0.4893447905778885,0.6395361348986626,388.6036560460925,test,2,,,,,,,,,,386.1256080940366,386.63347735628486,386.616737999022,386.616737999022,386.76707711070776,387.26732483133674,387.61778797209263,388.6226679906249,None,0,0.2,,,,,,,,,,,,s005,001,2024-06-20_13h00.40.131,simplestop_skeleton,2022.2.2,60.169758069948145,
None,None,,,,,,,,,1,0,1,0,0,2,2,3,,,,,,,,,388.6040961779654,stop,squareblack.png,right,0.2,,,,,,,,,,,,,,,0.0016379356384277344,0.4895128421485424,0.6899703443050385,391.1050131171942,test,2,,,,,,,,,,388.6226679906249,389.13625621423125,389.1196203492582,389.1196203492582,389.319530043751,389.8205704540014,390.1206048615277,391.12388125807047,None,0,0.25,,,,,,,,,,,,s005,001,2024-06-20_13h00.40.131,simplestop_skeleton,2022.2.2,60.169758069948145,
$currentCorrectResponse,$currentGoStim,,,,,,,,,1,0,1,0,0,3,3,0,,,,,,,,,391.10567784681916,go,squareblack.png,right,0.25,,,,,,,,,,,,,,,0.0014436282217502594,0.48781050741672516,,393.6090221218765,test,2,,,,,,,,,,391.12388125807047,391.63785319402814,391.62093115597963,391.62093115597963,391.871948428452,392.3715738616884,392.62170216068625,393.62767239660025,right,1,0.25,0.4120800271630287,,,,,,,,,,,s005,001,2024-06-20_13h00.40.131,simplestop_skeleton,2022.2.2,60.169758069948145,
$currentCorrectResponse,$currentGoStim,,,,,,,,,1,0,1,0,1,0,4,0,,,,,,,,,393.60946967452765,go,squareblack.png,right,0.25,,,,,,,,,,,,,,,0.0012530498206615448,0.4895824119448662,,396.11166804656386,test,2,,,,,,,,,,393.62767239660025,394.14133498072624,394.1247820481658,394.1247820481658,394.3750406578183,394.87623327597976,395.1244631782174,396.13629330322146,right,1,0.25,0.51022107899189,,,,,,,,,,,s005,001,2024-06-20_13h00.40.131,simplestop_skeleton,2022.2.2,60.169758069948145,
None,None,,,,,,,,,1,0,1,0,1,1,5,3,,,,,,,,,396.11211186647415,stop,circleblack.png,left,0.25,,,,,,,,,,,,,,,0.007915984839200974,0.4881610758602619,0.7385123744606972,398.6142938584089,test,2,,,,,,,,,,396.13629330322146,396.64290948584676,396.62616359069943,396.62616359069943,396.8764680661261,397.3783789873123,397.62884445488453,398.63344805315137,None,0,0.3,,,,,,,,,,,,s005,001,2024-06-20_13h00.40.131,simplestop_skeleton,2022.2.2,60.169758069948145,
None,None,,,,,,,,,1,0,1,0,1,2,6,2,,,,,,,,,398.6147346943617,stop,squareblack.png,right,0.3,,,,,,,,,,,,,,,0.00172341987490654,0.48974335938692093,0.7906768694519997,401.11726980656385,test,2,,,,,,,,,,398.63344805315137,399.14703569188714,399.1301155127585,399.1301155127585,399.4312858507037,399.9464713037014,400.1309374012053,401.13641410693526,right,1,0.25,0.4630499482154846,,,,,,,,,,,s005,001,2024-06-20_13h00.40.131,simplestop_skeleton,2022.2.2,60.169758069948145,
None,None,,,,,,,,,1,0,1,0,1,3,7,1,,,,,,,,,401.11770125851035,go,circleblack.png,left,0.25,,,,,,,,,,,,,,,0.001838337630033493,0.4883064106106758,,403.6198944672942,test,2,,,,,,,,,,401.13641410693526,401.64845187589526,401.6317507363856,401.6317507363856,401.88204158097506,402.38433926180005,402.6343217790127,403.6391134224832,left,1,0.25,0.46827057376503944,,,,,,,,,,,s005,001,2024-06-20_13h00.40.131,simplestop_skeleton,2022.2.2,60.169758069948145,
None,None,,,,,,,,,1,0,1,0,2,0,8,1,,,,,,,,,403.6203361675143,go,circleblack.png,left,0.25,,,,,,,,,,,,,,,0.0013664178550243378,0.48983920738101006,,406.1232324466109,test,2,,,,,,,,,,403.6391134224832,404.1526336558163,404.13636526837945,404.13636526837945,404.3861128538847,404.8855164386332,405.1355945430696,406.1421074718237,left,1,0.25,0.44527076557278633,,,,,,,,,,,s005,001,2024-06-20_13h00.40.131,simplestop_skeleton,2022.2.2,60.169758069948145,
None,None,,,,,,,,,1,0,1,0,2,1,9,2,,,,,,,,,406.12367345020175,go,circleblack.png,left,0.25,,,,,,,,,,,,,,,0.0014534145593643188,0.489118367433548,,408.62550899386406,test,2,,,,,,,,,,406.1421074718237,406.6553312204778,406.6388705857098,406.6388705857098,406.88920817896724,407.388414517045,407.6383569352329,408.64445363357663,left,1,0.25,0.4336939677596092,,,,,,,,,,,s005,001,2024-06-20_13h00.40.131,simplestop_skeleton,2022.2.2,60.169758069948145,
$currentCorrectResponse,$currentGoStim,,,,,,,,,1,0,1,0,2,2,10,0,,,,,,,,,408.6259495578706,go,squareblack.png,right,0.25,,,,,,,,,,,,,,,0.0016448833048343658,0.4895840100944042,,411.1279452443123,test,2,,,,,,,,,,408.64445363357663,409.1581823565066,409.1415138542652,409.1415138542652,409.3916888423264,409.89086002111435,410.1411067843437,411.14760391414165,right,1,0.25,0.40731558203697205,,,,,,,,,,,s005,001,2024-06-20_13h00.40.131,simplestop_skeleton,2022.2.2,60.169758069948145,
$currentCorrectResponse,$currentGoStim,,,,,,,,,1,0,1,0,2,3,11,0,,,,,,,,,411.12839099019766,go,circleblack.png,left,0.25,,,,,,,,,,,,,,,0.0018786080181598663,0.48961957544088364,,413.6308981515467,test,2,,,,,,,,,,411.14760391414165,411.6609817817807,411.6443183645606,411.6443183645606,411.89424331113696,412.3954378217459,412.6438336893916,413.6499182023108,left,1,0.25,0.47693469375371933,,,,,,,,,,,s005,001,2024-06-20_13h00.40.131,simplestop_skeleton,2022.2.2,60.169758069948145,
$currentCorrectResponse,$currentGoStim,,,,,,,,,1,0,1,0,3,0,12,0,,,,,,,,,413.6313433237374,stop,circleblack.png,left,0.25,,,,,,,,,,,,,,,0.0014246627688407898,0.48955513909459114,0.7398527562618256,416.13392812013626,test,2,,,,,,,,,,413.6499182023108,414.16359005868435,414.1469334550202,414.1469334550202,414.3971720673144,414.8975925408304,415.1480416469276,416.1527374535799,None,0,0.3,,,,,,,,,,,,s005,001,2024-06-20_13h00.40.131,simplestop_skeleton,2022.2.2,60.169758069948145,
$currentCorrectResponse,$currentGoStim,,,,,,,,,1,0,1,0,3,1,13,0,,,,,,,,,416.1343701928854,go,circleblack.png,left,0.3,,,,,,,,,,,,,,,0.001370798796415329,0.4899349883198738,,418.6363595761359,test,2,,,,,,,,,,416.1527374535799,416.6663141287863,416.6497824303806,416.6497824303806,416.9500710107386,417.4513538889587,417.6494261585176,418.6556489430368,left,1,0.3,0.5507637709379196,,,,,,,,,,,s005,001,2024-06-20_13h00.40.131,simplestop_skeleton,2022.2.2,60.169758069948145,
None,None,,,,,,,,,1,0,1,0,3,2,14,3,,,,,,,,,418.6368027329445,go,squareblack.png,right,0.3,,,,,,,,,,,,,,,0.0017246343195438385,0.48971017450094223,,421.139277741313,test,2,,,,,,,,,,418.6556489430368,419.16950273886323,419.15286418423057,419.15286418423057,419.4529137723148,419.9538493528962,420.15212723985314,421.1583905145526,right,1,0.3,0.6141228899359703,,,,,,,,,,,s005,001,2024-06-20_13h00.40.131,simplestop_skeleton,2022.2.2,60.169758069948145,
None,None,,,,,,,,,1,0,1,0,3,3,15,1,,,,,,,,,421.13971852883697,stop,circleblack.png,left,0.3,,,,,,,,,,,,,,,0.0018497928977012634,0.4896044209599495,0.7899390757083893,423.6421211697161,test,2,,,,,,,,,,421.1583905145526,421.6719484291971,421.65534315258265,421.65534315258265,421.95564453303814,422.4548571407795,422.6548225171864,423.6610184647143,left,1,0.25,0.45098086073994637,,,,,,,,,,,s005,001,2024-06-20_13h00.40.131,simplestop_skeleton,2022.2.2,60.169758069948145,
None,None,,,,,,,,,1,0,1,0,4,0,16,1,,,,,,,,,423.64254880324006,go,circleblack.png,left,0.25,,,,,,,,,,,,,,,0.0013867095112800598,0.48953936249017715,,426.14469261839986,test,2,,,,,,,,,,423.6610184647143,424.1745043732226,424.15805581212044,424.15805581212044,424.40822011977434,424.9093826673925,425.1576198004186,426.1638837046921,left,1,0.25,0.48930564895272255,,,,,,,,,,,s005,001,2024-06-20_13h00.40.131,simplestop_skeleton,2022.2.2,60.169758069948145,
None,None,,,,,,,,,1,0,1,0,4,1,17,3,,,,,,,,,426.14513598382473,go,squareblack.png,right,0.25,,,,,,,,,,,,,,,0.0017033964395523071,0.48957210779190063,,428.64736694842577,test,2,,,,,,,,,,426.1638837046921,426.6772688962519,426.6606536284089,426.6606536284089,426.91094843298197,427.41186111420393,427.66039261221886,428.6666811108589,right,1,0.25,0.5073725543916225,,,,,,,,,,,s005,001,2024-06-20_13h00.40.131,simplestop_skeleton,2022.2.2,60.169758069948145,
$currentCorrectResponse,$currentGoStim,,,,,,,,,1,0,1,0,4,2,18,0,,,,,,,,,428.64781088754535,go,circleblack.png,left,0.25,,,,,,,,,,,,,,,0.0017986893653869629,0.48956533893942833,,431.150034442544,test,2,,,,,,,,,,428.6666811108589,429.1800593584776,429.16353914514184,429.16353914514184,429.4137895144522,429.9146958142519,430.16312642768025,431.16893330961466,left,1,0.25,0.5791672840714455,,,,,,,,,,,s005,001,2024-06-20_13h00.40.131,simplestop_skeleton,2022.2.2,60.169758069948145,
None,None,,,,,,,,,1,0,1,0,4,3,19,2,,,,,,,,,431.1504735648632,go,squareblack.png,right,0.25,,,,,,,,,,,,,,,0.0015989169478416443,0.4897155575454235,,433.6532195173204,test,2,,,,,,,,,,431.16893330961466,431.68304755166173,431.66641679406166,431.66641679406166,431.9164425060153,432.41761941462755,432.66589805856347,433.6726737394929,right,1,0.25,0.6787610799074173,,,,,,,,,,,s005,001,2024-06-20_13h00.40.131,simplestop_skeleton,2022.2.2,60.169758069948145,
$currentCorrectResponse,$currentGoStim,,,,,,,,,1,0,1,0,5,0,20,0,,,,,,,,,433.6536658667028,go,circleblack.png,left,0.25,,,,,,,,,,,,,,,0.001898065209388733,0.48965398594737053,,436.15561189875007,test,2,,,,,,,,,,433.6726737394929,434.1856668405235,434.1691228672862,434.1691228672862,434.41916232183576,434.92054145783186,435.1687637940049,436.1745049767196,left,1,0.25,0.6679599359631538,,,,,,,,,,,s005,001,2024-06-20_13h00.40.131,simplestop_skeleton,2022.2.2,60.169758069948145,
None,None,,,,,,,,,1,0,1,0,5,1,21,2,,,,,,,,,436.15605755895376,stop,squareblack.png,right,0.25,,,,,,,,,,,,,,,0.001661837100982666,0.489937424659729,0.7400734387338161,438.65847194194794,test,2,,,,,,,,,,436.1745049767196,436.68846705555916,436.6716418862343,436.6716418862343,436.9220335148275,437.4224620051682,437.6730157621205,438.6773700416088,None,0,0.3,,,,,,,,,,,,s005,001,2024-06-20_13h00.40.131,simplestop_skeleton,2022.2.2,60.169758069948145,
None,None,,,,,,,,,1,0,1,0,5,2,22,3,,,,,,,,,438.658913500607,stop,squareblack.png,right,0.3,,,,,,,,,,,,,,,0.0013088248670101166,0.489943265914917,0.7884487099945545,441.1612782366574,test,2,,,,,,,,,,438.6773700416088,439.19175604358315,439.1750187650323,439.1750187650323,439.47365683317184,439.9747657738626,440.17548290267587,441.1800287514925,None,0,0.35,,,,,,,,,,,,s005,001,2024-06-20_13h00.40.131,simplestop_skeleton,2022.2.2,60.169758069948145,
$currentCorrectResponse,$currentGoStim,,,,,,,,,1,0,1,0,5,3,23,0,,,,,,,,,441.16172075271606,go,squareblack.png,right,0.35,,,,,,,,,,,,,,,0.0013220682740211487,0.48947636783123016,,443.66386441513896,test,2,,,,,,,,,,441.1800287514925,441.6939127705991,441.67711117118597,441.67711117118597,442.0277268923819,442.52842292562127,442.6771632246673,443.68336429446936,right,1,0.35,0.684595912694931,,,,,,,,,,,s005,001,2024-06-20_13h00.40.131,simplestop_skeleton,2022.2.2,60.169758069948145,
None,None,,,,,,,,,1,0,1,0,6,0,24,1,,,,,,,,,443.66431234776974,go,circleblack.png,left,0.35,,,,,,,,,,,,,,,0.0019562505185604095,0.48960592597723007,,446.16682690009475,test,2,,,,,,,,,,443.68336429446936,444.1966420561075,444.1802556030452,444.1802556030452,444.5302187241614,445.03102285787463,445.18156984075904,446.1858238875866,left,1,0.35,0.7844796851277351,,,,,,,,,,,s005,001,2024-06-20_13h00.40.131,simplestop_skeleton,2022.2.2,60.169758069948145,
$currentCorrectResponse,$currentGoStim,,,,,,,,,1,0,1,0,6,1,25,0,,,,,,,,,446.1672725304961,go,circleblack.png,left,0.35,,,,,,,,,,,,,,,0.0013583898544311523,0.48954949900507927,,448.669406902045,test,2,,,,,,,,,,446.1858238875866,446.69953167811036,446.6828966252506,446.6828966252506,447.03321681916714,447.5344176515937,447.6843950115144,448.68805957213044,left,1,0.35,0.7269737124443054,,,,,,,,,,,s005,001,2024-06-20_13h00.40.131,simplestop_skeleton,2022.2.2,60.169758069948145,
None,None,,,,,,,,,1,0,1,0,6,2,26,3,,,,,,,,,448.6698456592858,go,circleblack.png,left,0.35,,,,,,,,,,,,,,,0.0012508891522884369,0.49016251042485237,,451.17260574921966,test,2,,,,,,,,,,448.68805957213044,449.2021374627948,449.1855636164546,449.1855636164546,449.53604559227824,450.0350340940058,450.18525593727827,451.1915106624365,left,1,0.35,0.49390290677547455,,,,,,,,,,,s005,001,2024-06-20_13h00.40.131,simplestop_skeleton,2022.2.2,60.169758069948145,
$currentCorrectResponse,$currentGoStim,,,,,,,,,1,0,1,0,6,3,27,0,,,,,,,,,451.1730417534709,go,circleblack.png,left,0.35,,,,,,,,,,,,,,,0.0014047250151634216,0.48925965279340744,,453.6752382963896,test,2,,,,,,,,,,451.1915106624365,451.70510675013065,451.68837429210544,451.68837429210544,452.0390095822513,452.53809241577983,452.6883502751589,453.70112381875515,left,1,0.35,0.518431443721056,,,,,,,,,,,s005,001,2024-06-20_13h00.40.131,simplestop_skeleton,2022.2.2,60.169758069948145,
None,None,,,,,,,,,1,0,1,0,7,0,28,1,,,,,,,,,453.675682798028,go,squareblack.png,right,0.35,,,,,,,,,,,,,,,0.007707182317972183,0.4883989728987217,,456.17799048498273,test,2,,,,,,,,,,453.70112381875515,454.2078422047198,454.191139832139,454.191139832139,454.54148855805397,455.0425997637212,455.1908391788602,456.1967855617404,right,1,0.35,0.6508801616728306,,,,,,,,,,,s005,001,2024-06-20_13h00.40.131,simplestop_skeleton,2022.2.2,60.169758069948145,
None,None,,,,,,,,,1,0,1,0,7,1,29,1,,,,,,,,,456.178427554667,go,squareblack.png,right,0.35,,,,,,,,,,,,,,,0.0013103261590003967,0.48960668221116066,,458.680752299726,test,2,,,,,,,,,,456.1967855617404,456.7105362005532,456.6939577907324,456.6939577907324,457.0442751534283,457.54516253992915,457.69355664402246,458.7002299167216,right,1,0.35,0.6449804380536079,,,,,,,,,,,s005,001,2024-06-20_13h00.40.131,simplestop_skeleton,2022.2.2,60.169758069948145,
None,None,,,,,,,,,1,0,1,0,7,2,30,3,,,,,,,,,458.6811869330704,stop,circleblack.png,left,0.35,,,,,,,,,,,,,,,0.0020035095512866974,0.48951252177357674,0.8383000940084457,461.1835195943713,test,2,,,,,,,,,,458.7002299167216,459.21374110504985,459.19723938405514,459.19723938405514,459.54553405195475,460.0471940487623,460.1971112303436,461.2024543210864,None,0,0.4,,,,,,,,,,,,s005,001,2024-06-20_13h00.40.131,simplestop_skeleton,2022.2.2,60.169758069948145,
None,None,,,,,,,,,1,0,1,0,7,3,31,3,,,,,,,,,461.1839586161077,stop,circleblack.png,left,0.4,,,,,,,,,,,,,,,0.001382429152727127,0.48952293023467064,0.8899505585432053,463.6860279664397,test,2,,,,,,,,,,461.2024543210864,461.71604677662253,461.6993126794696,461.6993126794696,462.09966237843037,462.59909088537097,462.6990227214992,463.7051623724401,left,1,0.35,0.5575912743806839,,,,,,,,,,,s005,001,2024-06-20_13h00.40.131,simplestop_skeleton,2022.2.2,60.169758069948145,
None,None,,,,,,,,,1,0,1,0,8,0,32,2,,,,,,,,,463.6864617280662,go,squareblack.png,right,0.35,,,,,,,,,,,,,,,0.0016005560755729675,0.4900543801486492,,466.1887545324862,test,2,,,,,,,,,,463.7051623724401,464.21878572925925,464.202135656029,464.202135656029,464.5525760091841,465.05180875211954,465.20186646282673,466.2088661529124,right,1,0.35,0.553435143083334,,,,,,,,,,,s005,001,2024-06-20_13h00.40.131,simplestop_skeleton,2022.2.2,60.169758069948145,
None,None,,,,,,,,,1,0,1,0,8,1,33,1,,,,,,,,,466.18919072672725,stop,squareblack.png,right,0.35,,,,,,,,,,,,,,,0.002543095499277115,0.4888803958892822,0.8393532186746597,468.69164430350065,test,2,,,,,,,,,,466.2088661529124,466.7215252444148,466.704965416342,466.704965416342,467.05519699677825,467.5559612810612,467.7059402652085,468.71050383523107,None,0,0.4,,,,,,,,,,,,s005,001,2024-06-20_13h00.40.131,simplestop_skeleton,2022.2.2,60.169758069948145,
None,None,,,,,,,,,1,0,1,0,8,2,34,1,,,,,,,,,468.6920774653554,go,squareblack.png,right,0.4,,,,,,,,,,,,,,,0.0013240687549114227,0.4895523525774479,,471.19453294202685,test,2,,,,,,,,,,468.71050383523107,469.22431848943233,469.2076010815799,469.2076010815799,469.6081625930965,470.10728285089135,470.2073324956,471.2130584381521,right,1,0.4,0.5982517004013062,,,,,,,,,,,s005,001,2024-06-20_13h00.40.131,simplestop_skeleton,2022.2.2,60.169758069948145,
None,None,,,,,,,,,1,0,1,0,8,3,35,3,,,,,,,,,471.19497971981764,stop,squareblack.png,right,0.4,,,,,,,,,,,,,,,0.0012600906193256378,0.48956482857465744,0.8900428377091885,473.6971071623266,test,2,,,,,,,,,,471.2130584381521,471.72698213905096,471.7104612402618,471.7104612402618,472.11090142279863,472.6115030646324,472.7114668227732,473.7155597768724,None,0,0.45,,,,,,,,,,,,s005,001,2024-06-20_13h00.40.131,simplestop_skeleton,2022.2.2,60.169758069948145,
None,None,,,,,,,,,1,0,1,0,9,0,36,3,,,,,,,,,473.69754895567894,go,squareblack.png,right,0.45,,,,,,,,,,,,,,,0.0011932440102100372,0.4898786209523678,,476.1997344121337,test,2,,,,,,,,,,473.7155597768724,474.22973074018955,474.21319933608174,474.21319933608174,474.66354324296117,475.16287083923817,475.21280070766807,476.22492131590843,right,1,0.45,0.5119158737361431,,,,,,,,,,,s005,001,2024-06-20_13h00.40.131,simplestop_skeleton,2022.2.2,60.169758069948145,
None,None,,,,,,,,,1,0,1,0,9,1,37,1,,,,,,,,,476.2002241425216,go,circleblack.png,left,0.45,,,,,,,,,,,,,,,0.008355747908353806,0.4895686097443104,,478.70249361917377,test,2,,,,,,,,,,476.22492131590843,476.73247991502285,476.71586702018976,476.71586702018976,477.16637538746,477.667443331331,477.71575291082263,478.72150656208396,left,1,0.45,0.6980470754206181,,,,,,,,,,,s005,001,2024-06-20_13h00.40.131,simplestop_skeleton,2022.2.2,60.169758069948145,
None,None,,,,,,,,,1,0,1,0,9,2,38,2,,,,,,,,,478.7029304690659,stop,squareblack.png,right,0.45,,,,,,,,,,,,,,,0.0017420612275600433,0.4900960698723793,0.9406846798956394,481.2045140862465,test,2,,,,,,,,,,478.72150656208396,479.23522298038006,479.21848057955503,479.21848057955503,479.66921029239893,480.1696708127856,480.21984419599175,481.22223164886236,None,0,0.5,,,,,,,,,,,,s005,001,2024-06-20_13h00.40.131,simplestop_skeleton,2022.2.2,60.169758069948145,
None,None,,,,,,,,,1,0,1,0,9,3,39,2,,,,,,,,,481.20502988249063,stop,squareblack.png,right,0.5,,,,,,,,,,,,,,,0.0012277588248252869,0.4904237724840641,0.9911840036511421,483.7081920616329,test,2,,,,,,,,,,481.22223164886236,481.72153614088893,481.72153614088893,481.72153614088893,482.22194822877645,482.7210983298719,482.7210983298719,483.7330466210842,right,1,0.45,0.5594379492104053,,,,,,,,,,,s005,001,2024-06-20_13h00.40.131,simplestop_skeleton,2022.2.2,60.169758069948145,
None,None,,,,,,,,,1,0,1,0,10,0,40,2,,,,,,,,,483.70864337682724,stop,circleblack.png,left,0.45,,,,,,,,,,,,,,,0.007876604795455933,0.489609956741333,0.9400216974318027,486.20992562174797,test,2,,,,,,,,,,483.7330466210842,484.24100183695555,484.2240481376648,484.2240481376648,484.67478869855404,485.1751746982336,485.2255657836795,486.2266377694905,None,0,0.5,,,,,,,,,,,,s005,001,2024-06-20_13h00.40.131,simplestop_skeleton,2022.2.2,60.169758069948145,
None,None,,,,,,,,,1,0,1,0,10,1,41,2,,,,,,,,,486.21036745607853,go,circleblack.png,left,0.5,,,,,,,,,,,,,,,0.001214679330587387,0.48936982825398445,,488.713750846684,test,2,,,,,,,,,,486.2266377694905,486.7261768244207,486.7261768244207,486.7261768244207,487.2261803969741,487.72759476676583,487.72759476676583,488.7338114082813,left,1,0.5,0.5130541324615479,,,,,,,,,,,s005,001,2024-06-20_13h00.40.131,simplestop_skeleton,2022.2.2,60.169758069948145,
None,None,,,,,,,,,1,0,1,0,10,2,42,2,,,,,,,,,488.7142794691026,go,circleblack.png,left,0.5,,,,,,,,,,,,,,,0.001558784395456314,0.4886312074959278,,491.21641312912107,test,2,,,,,,,,,,488.7338114082813,489.24604811891913,489.2291094996035,489.2291094996035,489.73054453358054,490.2460937835276,490.22942988201976,491.2351574450731,left,1,0.5,0.5757479444146156,,,,,,,,,,,s005,001,2024-06-20_13h00.40.131,simplestop_skeleton,2022.2.2,60.169758069948145,
None,None,,,,,,,,,1,0,1,0,10,3,43,3,,,,,,,,,491.21684820204973,stop,circleblack.png,left,0.5,,,,,,,,,,,,,,,0.0013695284724235535,0.489957544952631,0.990386363118887,493.7192661501467,test,2,,,,,,,,,,491.2351574450731,491.7492857091129,491.7324574328959,491.7324574328959,492.2330935448408,492.7338988855481,492.7338988855481,493.7382467202842,None,0,0.55,,,,,,,,,,,,s005,001,2024-06-20_13h00.40.131,simplestop_skeleton,2022.2.2,60.169758069948145,
$currentCorrectResponse,$currentGoStim,,,,,,,,,1,0,1,0,11,0,44,0,,,,,,,,,493.71970672160387,go,circleblack.png,left,0.55,,,,,,,,,,,,,,,0.0013402588665485382,0.48973626643419266,,496.22198736295104,test,2,,,,,,,,,,493.7382467202842,494.25211702659726,494.2351003289223,494.2351003289223,494.7858878970146,495.2851663976908,495.2368583381176,496.2474339529872,left,1,0.55,0.7257824018597603,,,,,,,,,,,s005,001,2024-06-20_13h00.40.131,simplestop_skeleton,2022.2.2,60.169758069948145,
None,None,,,,,,,,,1,0,1,0,11,1,45,3,,,,,,,,,496.2224294319749,go,squareblack.png,right,0.55,,,,,,,,,,,,,,,0.008114643394947052,0.48973362147808075,,498.72385478392243,test,2,,,,,,,,,,496.2474339529872,496.75519301742315,496.7388337813318,496.7388337813318,497.28781044483185,497.7884162925184,497.7381238974631,498.74113869667053,right,1,0.55,0.8114818967878819,,,,,,,,,,,s005,001,2024-06-20_13h00.40.131,simplestop_skeleton,2022.2.2,60.169758069948145,
None,None,,,,,,,,,1,0,1,0,11,2,46,2,,,,,,,,,498.72429175302386,go,squareblack.png,right,0.55,,,,,,,,,,,,,,,0.0012144185602664948,0.4914979562163353,,501.22738279774785,test,2,,,,,,,,,,498.74113869667053,499.2417458742857,499.2417458742857,499.2417458742857,499.7921555414796,500.3071571774781,500.2570328749716,501.24641789495945,right,1,0.55,0.41168244555592537,,,,,,,,,,,s005,001,2024-06-20_13h00.40.131,simplestop_skeleton,2022.2.2,60.169758069948145,
None,None,,,,,,,,,1,0,1,0,11,3,47,2,,,,,,,,,501.2278237193823,go,squareblack.png,right,0.55,,,,,,,,,,,,,,,0.0011921562254428864,0.4898514002561569,,503.7301791422069,test,2,,,,,,,,,,501.24641789495945,501.76019555330276,501.74343691393733,501.74343691393733,502.29396940022707,502.7932407222688,502.74339605495334,503.7501938790083,right,1,0.55,0.6892004497349262,,,,,,,,,,,s005,001,2024-06-20_13h00.40.131,simplestop_skeleton,2022.2.2,60.169758069948145,
,,,,,,,,,,1,0,1,0,,,,,,,,,,,,,,,,,,,,,,,,,,,,,,,,,,,,,,,,,,,,,,,,,,,,,,,,,,,503.7501938790083,503.7501938790083,return,8.477366287261248,"[{'fileName': 'squareblack.png', 'correct_response': 'right', 'condition': 'go'}, {'fileName': 'circleblack.png', 'correct_response': 'left', 'condition': 'go'}, {'fileName': 'squareblack.png', 'correct_response': 'right', 'condition': 'go'}, {'fileName': 'squareblack.png', 'correct_response': 'right', 'condition': 'stop'}, {'fileName': 'circleblack.png', 'correct_response': 'left', 'condition': 'stop'}, {'fileName': 'circleblack.png', 'correct_response': 'left', 'condition': 'go'}, {'fileName': 'squareblack.png', 'correct_response': 'right', 'condition': 'go'}, {'fileName': 'squareblack.png', 'correct_response': 'right', 'condition': 'go'}, {'fileName': 'circleblack.png', 'correct_response': 'left', 'condition': 'stop'}, {'fileName': 'circleblack.png', 'correct_response': 'left', 'condition': 'go'}, {'fileName': 'squareblack.png', 'correct_response': 'right', 'condition': 'stop'}, {'fileName': 'circleblack.png', 'correct_response': 'left', 'condition': 'go'}, {'fileName': 'circleblack.png', 'correct_response': 'left', 'condition': 'stop'}, {'fileName': 'squareblack.png', 'correct_response': 'right', 'condition': 'go'}, {'fileName': 'squareblack.png', 'correct_response': 'right', 'condition': 'stop'}, {'fileName': 'circleblack.png', 'correct_response': 'left', 'condition': 'go'}, {'fileName': 'squareblack.png', 'correct_response': 'right', 'condition': 'go'}, {'fileName': 'circleblack.png', 'correct_response': 'left', 'condition': 'go'}, {'fileName': 'circleblack.png', 'correct_response': 'left', 'condition': 'go'}, {'fileName': 'circleblack.png', 'correct_response': 'left', 'condition': 'go'}, {'fileName': 'circleblack.png', 'correct_response': 'left', 'condition': 'stop'}, {'fileName': 'squareblack.png', 'correct_response': 'right', 'condition': 'go'}, {'fileName': 'squareblack.png', 'correct_response': 'right', 'condition': 'stop'}, {'fileName': 'squareblack.png', 'correct_response': 'right', 'condition': 'go'}, {'fileName': 'squareblack.png', 'correct_response': 'right', 'condition': 'go'}, {'fileName': 'squareblack.png', 'correct_response': 'right', 'condition': 'stop'}, {'fileName': 'circleblack.png', 'correct_response': 'left', 'condition': 'go'}, {'fileName': 'squareblack.png', 'correct_response': 'right', 'condition': 'stop'}, {'fileName': 'squareblack.png', 'correct_response': 'right', 'condition': 'go'}, {'fileName': 'squareblack.png', 'correct_response': 'right', 'condition': 'go'}, {'fileName': 'circleblack.png', 'correct_response': 'left', 'condition': 'stop'}, {'fileName': 'squareblack.png', 'correct_response': 'right', 'condition': 'go'}, {'fileName': 'circleblack.png', 'correct_response': 'left', 'condition': 'go'}, {'fileName': 'circleblack.png', 'correct_response': 'left', 'condition': 'go'}, {'fileName': 'circleblack.png', 'correct_response': 'left', 'condition': 'stop'}, {'fileName': 'circleblack.png', 'correct_response': 'left', 'condition': 'go'}, {'fileName': 'squareblack.png', 'correct_response': 'right', 'condition': 'stop'}, {'fileName': 'squareblack.png', 'correct_response': 'right', 'condition': 'stop'}, {'fileName': 'circleblack.png', 'correct_response': 'left', 'condition': 'go'}, {'fileName': 'circleblack.png', 'correct_response': 'left', 'condition': 'stop'}, {'fileName': 'circleblack.png', 'correct_response': 'left', 'condition': 'stop'}, {'fileName': 'circleblack.png', 'correct_response': 'left', 'condition': 'go'}, {'fileName': 'circleblack.png', 'correct_response': 'left', 'condition': 'go'}, {'fileName': 'squareblack.png', 'correct_response': 'right', 'condition': 'go'}, {'fileName': 'squareblack.png', 'correct_response': 'right', 'condition': 'go'}, {'fileName': 'circleblack.png', 'correct_response': 'left', 'condition': 'go'}, {'fileName': 'squareblack.png', 'correct_response': 'right', 'condition': 'go'}, {'fileName': 'squareblack.png', 'correct_response': 'right', 'condition': 'go'}]",,,,,,s005,001,2024-06-20_13h00.40.131,simplestop_skeleton,2022.2.2,60.169758069948145,
None,None,,,,,,,,,2,0,2,0,0,0,0,1,,,,,,,,,512.2584048956633,go,squareblack.png,right,0.55,,,,,,,,,,,,,,,0.0012589804828166962,0.4861791357398033,,514.7595340795815,test,3,,,,,,,,,,512.276403453201,512.7877051755786,512.77103792876,512.77103792876,513.3227675892413,513.8237414099276,513.7736253812909,514.7843800038099,right,1,0.55,0.5012314282357693,,,,,,,,,,,s005,001,2024-06-20_13h00.40.131,simplestop_skeleton,2022.2.2,60.169758069948145,
$currentCorrectResponse,$currentGoStim,,,,,,,,,2,0,2,0,0,1,1,0,,,,,,,,,514.7601461969316,go,circleblack.png,left,0.55,,,,,,,,,,,,,,,0.007923372089862823,0.48913444578647614,,517.262078281492,test,3,,,,,,,,,,514.7843800038099,515.2919791154563,515.2752000465989,515.2752000465989,515.8261788599193,516.3415207490325,516.2749382406473,517.2811330221593,left,1,0.55,0.4179995767772198,,,,,,,,,,,s005,001,2024-06-20_13h00.40.131,simplestop_skeleton,2022.2.2,60.169758069948145,
None,None,,,,,,,,,2,0,2,0,0,2,2,1,,,,,,,,,517.2625176347792,go,squareblack.png,right,0.55,,,,,,,,,,,,,,,0.0017238855361938477,0.4898150563240051,,519.7649451829493,test,3,,,,,,,,,,517.2811330221593,517.7946916781366,517.7783329486847,517.7783329486847,518.3289544582367,518.8443159349263,518.7777360975742,519.7837859168649,right,1,0.55,0.3895995318889618,,,,,,,,,,,s005,001,2024-06-20_13h00.40.131,simplestop_skeleton,2022.2.2,60.169758069948145,
None,None,,,,,,,,,2,0,2,0,0,3,3,3,,,,,,,,,519.7653843201697,stop,squareblack.png,right,0.55,,,,,,,,,,,,,,,0.0013328716158866882,0.4895360395312309,1.0406837202608585,522.2669656798244,test,3,,,,,,,,,,519.7837859168649,520.2975868061185,520.2808562070131,520.2808562070131,520.8320921584964,521.347162745893,521.2811221070588,522.2904634065926,right,1,0.5,0.4320292994379997,,,,,,,,,,,s005,001,2024-06-20_13h00.40.131,simplestop_skeleton,2022.2.2,60.169758069948145,
None,None,,,,,,,,,2,0,2,0,1,0,4,1,,,,,,,,,522.2674117721617,stop,circleblack.png,left,0.5,,,,,,,,,,,,,,,0.00822703167796135,0.4889383614063263,0.988864079117775,524.7702897414565,test,3,,,,,,,,,,522.2904634065926,522.7990867085755,522.7823116630316,522.7823116630316,523.2825813554227,523.7841934524477,523.7841934524477,524.7893277555704,left,1,0.45,0.570758942514658,,,,,,,,,,,s005,001,2024-06-20_13h00.40.131,simplestop_skeleton,2022.2.2,60.169758069948145,
None,None,,,,,,,,,2,0,2,0,1,1,5,3,,,,,,,,,524.7707373127341,go,circleblack.png,left,0.45,,,,,,,,,,,,,,,0.0013825446367263794,0.4883122071623802,,527.2728447765112,test,3,,,,,,,,,,524.7893277555704,525.3014195561409,525.2847778126597,525.2847778126597,525.7354967705905,526.2359524741769,526.2859306447208,527.2920036390424,left,1,0.45,0.4980194717645645,,,,,,,,,,,s005,001,2024-06-20_13h00.40.131,simplestop_skeleton,2022.2.2,60.169758069948145,
$currentCorrectResponse,$currentGoStim,,,,,,,,,2,0,2,0,1,2,6,0,,,,,,,,,527.2733516134322,go,squareblack.png,right,0.45,,,,,,,,,,,,,,,0.0016134940087795258,0.4896889701485634,,529.7755814678967,test,3,,,,,,,,,,527.2920036390424,527.8054946810007,527.7889486886561,527.7889486886561,528.2398363798857,528.7552325688303,528.7887045666575,529.7947876863182,right,1,0.45,0.4310881979763508,,,,,,,,,,,s005,001,2024-06-20_13h00.40.131,simplestop_skeleton,2022.2.2,60.169758069948145,
None,None,,,,,,,,,2,0,2,0,1,3,7,2,,,,,,,,,529.7760099321604,go,squareblack.png,right,0.45,,,,,,,,,,,,,,,0.0012845322489738464,0.48969823494553566,,532.2784690447152,test,3,,,,,,,,,,529.7947876863182,530.3085465431213,530.2916984893382,530.2916984893382,530.7433050647378,531.2580023407936,531.2914137504995,532.297747336328,right,1,0.45,0.343915656208992,,,,,,,,,,,s005,001,2024-06-20_13h00.40.131,simplestop_skeleton,2022.2.2,60.169758069948145,
None,None,,,,,,,,,2,0,2,0,2,0,8,1,,,,,,,,,532.2789072357118,stop,circleblack.png,left,0.45,,,,,,,,,,,,,,,0.0019009672105312347,0.4902409799396992,0.9388032332062721,534.7810090705752,test,3,,,,,,,,,,532.297747336328,532.811551887542,532.7949705049396,532.7949705049396,533.2434945888817,533.7448968105018,533.795600399375,534.8001019470394,left,1,0.4,0.31445107609033585,,,,,,,,,,,s005,001,2024-06-20_13h00.40.131,simplestop_skeleton,2022.2.2,60.169758069948145,
None,None,,,,,,,,,2,0,2,0,2,1,9,1,,,,,,,,,534.7814429812133,go,circleblack.png,left,0.4,,,,,,,,,,,,,,,0.001240655779838562,0.48981715738773346,,537.2840902917087,test,3,,,,,,,,,,534.8001019470394,535.3138583935797,535.2975012771785,535.2975012771785,535.6976927518845,536.1969832368195,536.296940471977,537.3033020161092,left,1,0.4,0.4330573193728924,,,,,,,,,,,s005,001,2024-06-20_13h00.40.131,simplestop_skeleton,2022.2.2,60.169758069948145,
None,None,,,,,,,,,2,0,2,0,2,2,10,2,,,,,,,,,537.2845327630639,stop,squareblack.png,right,0.4,,,,,,,,,,,,,,,0.0016452446579933167,0.4900902919471264,0.8901873044669628,539.7869590744376,test,3,,,,,,,,,,537.3033020161092,537.8168435357511,537.8002826720476,537.8002826720476,538.2008952945471,538.7163015939295,538.7997789755464,539.806278757751,right,1,0.35,0.3975367769598961,,,,,,,,,,,s005,001,2024-06-20_13h00.40.131,simplestop_skeleton,2022.2.2,60.169758069948145,
None,None,,,,,,,,,2,0,2,0,2,3,11,3,,,,,,,,,539.7873906604946,go,circleblack.png,left,0.35,,,,,,,,,,,,,,,0.0019519813358783722,0.4895647466182709,,542.2894668318331,test,3,,,,,,,,,,539.806278757751,540.3195287808776,540.303089544177,540.303089544177,540.6531292721629,541.1522479876876,541.3024265989661,542.3086791038513,right,0,0.35,0.4147520735859871,,,,,,,,,,,s005,001,2024-06-20_13h00.40.131,simplestop_skeleton,2022.2.2,60.169758069948145,
None,None,,,,,,,,,2,0,2,0,3,0,12,3,,,,,,,,,542.2899167649448,stop,circleblack.png,left,0.35,,,,,,,,,,,,,,,0.0014557093381881714,0.48934898152947426,0.8403519205749035,544.7923133969307,test,3,,,,,,,,,,542.3086791038513,542.8222175911069,542.805673032999,542.805673032999,543.1558526717126,543.6549930721521,543.8051231056452,544.8126637376845,left,1,0.3,0.3039863035082817,,,,,,,,,,,s005,001,2024-06-20_13h00.40.131,simplestop_skeleton,2022.2.2,60.169758069948145,
None,None,,,,,,,,,2,0,2,0,3,1,13,3,,,,,,,,,544.7927625589073,go,squareblack.png,right,0.3,,,,,,,,,,,,,,,0.0024787597358226776,0.4890085756778717,,547.2950726151466,test,3,,,,,,,,,,544.8126637376845,545.324815493077,545.3082345724106,545.3082345724106,545.6086626909673,546.1077237725258,546.3078513406217,547.3140456750989,right,1,0.3,0.4963289462029934,,,,,,,,,,,s005,001,2024-06-20_13h00.40.131,simplestop_skeleton,2022.2.2,60.169758069948145,
None,None,,,,,,,,,2,0,2,0,3,2,14,2,,,,,,,,,547.2955125793815,stop,squareblack.png,right,0.3,,,,,,,,,,,,,,,0.001321062445640564,0.4895714819431305,0.7896586284041405,549.7978206239641,test,3,,,,,,,,,,547.3140456750989,547.8277015537024,547.8110884614289,547.8110884614289,548.1112263016403,548.6104453019798,548.8107310980558,549.817266266793,right,1,0.25,0.3936115950345993,,,,,,,,,,,s005,001,2024-06-20_13h00.40.131,simplestop_skeleton,2022.2.2,60.169758069948145,
None,None,,,,,,,,,2,0,2,0,3,3,15,3,,,,,,,,,549.7982716076076,go,circleblack.png,left,0.25,,,,,,,,,,,,,,,0.0018144585192203522,0.4895605109632015,,552.3006021976471,test,3,,,,,,,,,,549.817266266793,550.330257859081,550.3136313408613,550.3136313408613,550.563972491771,551.0633513964713,551.3133818879724,552.3200679048896,left,1,0.25,0.4253893233835697,,,,,,,,,,,s005,001,2024-06-20_13h00.40.131,simplestop_skeleton,2022.2.2,60.169758069948145,
None,None,,,,,,,,,2,0,2,0,4,0,16,2,,,,,,,,,552.301032628864,go,squareblack.png,right,0.25,,,,,,,,,,,,,,,0.0017165280878543854,0.4895729571580887,,554.8030970841646,test,3,,,,,,,,,,552.3200679048896,552.8332043215632,552.8164466246963,552.8164466246963,553.0668993890285,553.5673022344708,553.8180749975145,554.8225373104215,right,1,0.25,0.6615473479032516,,,,,,,,,,,s005,001,2024-06-20_13h00.40.131,simplestop_skeleton,2022.2.2,60.169758069948145,
None,None,,,,,,,,,2,0,2,0,4,1,17,2,,,,,,,,,554.8035472370684,go,circleblack.png,left,0.25,,,,,,,,,,,,,,,0.0017487108707427979,0.4897719696164131,,557.3063017018139,test,3,,,,,,,,,,554.8225373104215,555.3360188566148,555.3192999660969,555.3192999660969,555.5695453844965,556.0691540464759,556.3190547041595,557.3256413899362,left,1,0.25,0.4686232842504978,,,,,,,,,,,s005,001,2024-06-20_13h00.40.131,simplestop_skeleton,2022.2.2,60.169758069948145,
None,None,,,,,,,,,2,0,2,0,4,2,18,3,,,,,,,,,557.3067437969148,go,circleblack.png,left,0.25,,,,,,,,,,,,,,,0.0013980567455291748,0.4892248325049877,,559.8088237643242,test,3,,,,,,,,,,557.3256413899362,557.8388321176171,557.8221920579672,557.8221920579672,558.072325643152,558.5716754682362,558.82180775702,559.8279036693275,left,1,0.25,0.4248743765056133,,,,,,,,,,,s005,001,2024-06-20_13h00.40.131,simplestop_skeleton,2022.2.2,60.169758069948145,
None,None,,,,,,,,,2,0,2,0,4,3,19,3,,,,,,,,,559.8092619627714,go,circleblack.png,left,0.25,,,,,,,,,,,,,,,0.0014160089194774628,0.48970162123441696,,562.3116873726249,test,3,,,,,,,,,,559.8279036693275,560.341590385884,560.3251406848431,560.3251406848431,560.5751950070262,561.0759507380426,561.3245870359242,562.33070005849,left,1,0.25,0.6333178617060184,,,,,,,,,,,s005,001,2024-06-20_13h00.40.131,simplestop_skeleton,2022.2.2,60.169758069948145,
None,None,,,,,,,,,2,0,2,0,5,0,20,1,,,,,,,,,562.3121360689402,stop,circleblack.png,left,0.25,,,,,,,,,,,,,,,0.0014055371284484863,0.48978156223893166,0.7399051487445831,564.8146229274571,test,3,,,,,,,,,,562.33070005849,562.8447101637721,562.8277638480067,562.8277638480067,563.0778941437602,563.578532975167,563.828844435513,564.8393337577581,None,0,0.3,,,,,,,,,,,,s005,001,2024-06-20_13h00.40.131,simplestop_skeleton,2022.2.2,60.169758069948145,
None,None,,,,,,,,,2,0,2,0,5,1,21,3,,,,,,,,,564.8150917887688,go,squareblack.png,right,0.3,,,,,,,,,,,,,,,0.007678262889385223,0.4896244518458843,,567.3164236992598,test,3,,,,,,,,,,564.8393337577581,565.3474581353366,565.3306653350592,565.3306653350592,565.6306956857443,566.1298653110862,566.3300598859787,567.33291484043,right,1,0.3,0.3883862718939781,,,,,,,,,,,s005,001,2024-06-20_13h00.40.131,simplestop_skeleton,2022.2.2,60.169758069948145,
None,None,,,,,,,,,2,0,2,0,5,2,22,1,,,,,,,,,567.3168895877898,stop,squareblack.png,right,0.3,,,,,,,,,,,,,,,0.0012019909918308258,0.4901319704949856,0.7910306379199028,569.8204547539353,test,3,,,,,,,,,,567.33291484043,567.8330957591534,567.8330957591534,567.8330957591534,568.1336020492017,568.6327449046075,568.8328641019762,569.8393240310252,right,1,0.25,0.31657103076577187,,,,,,,,,,,s005,001,2024-06-20_13h00.40.131,simplestop_skeleton,2022.2.2,60.169758069948145,
$currentCorrectResponse,$currentGoStim,,,,,,,,,2,0,2,0,5,3,23,0,,,,,,,,,569.8208966590464,go,squareblack.png,right,0.25,,,,,,,,,,,,,,,0.0013624951243400574,0.4893003962934017,,572.322599388659,test,3,,,,,,,,,,569.8393240310252,570.3525935038924,570.336007758975,570.336007758975,570.5862872824073,571.0872120298445,571.3355828151107,572.3416179530323,right,1,0.25,0.46812156215310097,,,,,,,,,,,s005,001,2024-06-20_13h00.40.131,simplestop_skeleton,2022.2.2,60.169758069948145,
$currentCorrectResponse,$currentGoStim,,,,,,,,,2,0,2,0,6,0,24,0,,,,,,,,,572.3230399750173,go,squareblack.png,right,0.25,,,,,,,,,,,,,,,0.0012942217290401459,0.4897523447871208,,574.825262516737,test,3,,,,,,,,,,572.3416179530323,572.8554257079959,572.8388188891113,572.8388188891113,573.0889890603721,573.5898907855153,573.8383900411427,574.8440033271909,right,1,0.25,0.49305204302072525,,,,,,,,,,,s005,001,2024-06-20_13h00.40.131,simplestop_skeleton,2022.2.2,60.169758069948145,
None,None,,,,,,,,,2,0,2,0,6,1,25,2,,,,,,,,,574.8256941586733,stop,squareblack.png,right,0.25,,,,,,,,,,,,,,,0.0012759491801261902,0.4898756109178066,0.740039985626936,577.3285692371428,test,3,,,,,,,,,,574.8440033271909,575.3580590374768,575.3414418324828,575.3414418324828,575.5915925726295,576.0909674502909,576.341085664928,577.3538202382624,right,1,0.2,0.3978826217353344,,,,,,,,,,,s005,001,2024-06-20_13h00.40.131,simplestop_skeleton,2022.2.2,60.169758069948145,
$currentCorrectResponse,$currentGoStim,,,,,,,,,2,0,2,0,6,2,26,0,,,,,,,,,577.3290005140007,go,circleblack.png,left,0.2,,,,,,,,,,,,,,,0.008484460413455963,0.48959021270275116,,579.8307761140168,test,3,,,,,,,,,,577.3538202382624,577.8613091036677,577.8442450873554,577.8442450873554,578.0445315912366,578.5455744303763,578.8457460254431,579.8499856255949,left,1,0.2,0.693743109703064,,,,,,,,,,,s005,001,2024-06-20_13h00.40.131,simplestop_skeleton,2022.2.2,60.169758069948145,
$currentCorrectResponse,$currentGoStim,,,,,,,,,2,0,2,0,6,3,27,0,,,,,,,,,579.8312109336257,stop,squareblack.png,right,0.2,,,,,,,,,,,,,,,0.0016260482370853424,0.4896498844027519,0.6901811398565769,582.3346749320626,test,3,,,,,,,,,,579.8499856255949,580.3640369437635,580.3469353094697,580.3469353094697,580.5472778379917,581.0476795211434,581.3481728471816,582.3559437096119,None,0,0.25,,,,,,,,,,,,s005,001,2024-06-20_13h00.40.131,simplestop_skeleton,2022.2.2,60.169758069948145,
$currentCorrectResponse,$currentGoStim,,,,,,,,,2,0,2,0,7,0,28,0,,,,,,,,,582.3351990766823,go,squareblack.png,right,0.25,,,,,,,,,,,,,,,0.0015586353838443756,0.48484277352690697,,584.836396548897,test,3,,,,,,,,,,582.3559437096119,582.8648797348142,582.8482610546052,582.8482610546052,583.0985993295908,583.5991616621614,583.849471591413,584.8554851710796,right,1,0.25,0.49550289288163185,,,,,,,,,,,s005,001,2024-06-20_13h00.40.131,simplestop_skeleton,2022.2.2,60.169758069948145,
$currentCorrectResponse,$currentGoStim,,,,,,,,,2,0,2,0,7,1,29,0,,,,,,,,,584.8368560113013,go,squareblack.png,right,0.25,,,,,,,,,,,,,,,0.001353580504655838,0.48953602835536003,,587.3391945846379,test,3,,,,,,,,,,584.8554851710796,585.3691019117832,585.3525604195893,585.3525604195893,585.6027593873441,586.1036192029715,586.3522486127913,587.3638078644872,right,1,0.25,0.5812622532248497,,,,,,,,,,,s005,001,2024-06-20_13h00.40.131,simplestop_skeleton,2022.2.2,60.169758069948145,
None,None,,,,,,,,,2,0,2,0,7,2,30,1,,,,,,,,,587.3396605886519,stop,circleblack.png,left,0.25,,,,,,,,,,,,,,,0.007996182888746262,0.4898785129189491,0.7400944642722607,589.8423047699034,test,3,,,,,,,,,,587.3638078644872,587.8720287717879,587.8553107753396,587.8553107753396,588.1058034524322,588.606090977788,588.8564827255905,589.8615494892001,None,0,0.3,,,,,,,,,,,,s005,001,2024-06-20_13h00.40.131,simplestop_skeleton,2022.2.2,60.169758069948145,
None,None,,,,,,,,,2,0,2,0,7,3,31,1,,,,,,,,,589.8427490927279,go,squareblack.png,right,0.3,,,,,,,,,,,,,,,0.0017836764454841614,0.4896554686129093,,592.3448724858463,test,3,,,,,,,,,,589.8615494892001,590.3748776316643,590.3580817133188,590.3580817133188,590.6582905463874,591.1594042591751,591.3577639870346,592.3639176934958,right,1,0.3,0.5336991213262081,,,,,,,,,,,s005,001,2024-06-20_13h00.40.131,simplestop_skeleton,2022.2.2,60.169758069948145,
None,None,,,,,,,,,2,0,2,0,8,0,32,3,,,,,,,,,592.3453164584935,go,circleblack.png,left,0.3,,,,,,,,,,,,,,,0.0017374008893966675,0.48975809291005135,,594.8476540111005,test,3,,,,,,,,,,592.3639176934958,592.8774669840932,592.8607407584786,592.8607407584786,593.1611188687384,593.6619643345475,593.8604792058468,594.8666800111532,left,1,0.3,0.6335525773465633,,,,,,,,,,,s005,001,2024-06-20_13h00.40.131,simplestop_skeleton,2022.2.2,60.169758069948145,
None,None,,,,,,,,,2,0,2,0,8,1,33,2,,,,,,,,,594.8480930030346,go,circleblack.png,left,0.3,,,,,,,,,,,,,,,0.0014491304755210876,0.4894538037478924,,597.3503343649209,test,3,,,,,,,,,,594.8666800111532,595.3804051876068,595.3635793440044,595.3635793440044,595.6638389974833,596.1649545170367,596.3633032739162,597.3694880604744,left,1,0.3,0.5590540617704391,,,,,,,,,,,s005,001,2024-06-20_13h00.40.131,simplestop_skeleton,2022.2.2,60.169758069948145,
$currentCorrectResponse,$currentGoStim,,,,,,,,,2,0,2,0,8,2,34,0,,,,,,,,,597.3507884591818,stop,circleblack.png,left,0.3,,,,,,,,,,,,,,,0.0014108270406723022,0.4894189313054085,0.7898070551455021,599.8532079346478,test,3,,,,,,,,,,597.3694880604744,597.8829471543431,597.8665780946612,597.8665780946612,598.166880402714,598.667129829526,598.8674976415932,599.8719615824521,None,0,0.35,,,,,,,,,,,,s005,001,2024-06-20_13h00.40.131,simplestop_skeleton,2022.2.2,60.169758069948145,
None,None,,,,,,,,,2,0,2,0,8,3,35,2,,,,,,,,,599.8536652848125,go,circleblack.png,left,0.35,,,,,,,,,,,,,,,0.0013313591480255127,0.48949699848890305,,602.3561186008155,test,3,,,,,,,,,,599.8719615824521,600.385962639004,600.3693323545158,600.3693323545158,600.7192367240787,601.2185947373509,601.3686272911727,602.3774966001511,left,1,0.35,0.3906850628554821,,,,,,,,,,,s005,001,2024-06-20_13h00.40.131,simplestop_skeleton,2022.2.2,60.169758069948145,
None,None,,,,,,,,,2,0,2,0,9,0,36,2,,,,,,,,,602.356570828706,stop,squareblack.png,right,0.35,,,,,,,,,,,,,,,0.004591405391693115,0.489241398870945,0.8400734886527061,604.8583526909351,test,3,,,,,,,,,,602.3774966001511,602.8884549848735,602.8718568608165,602.8718568608165,603.2225530184805,603.7379834838212,603.8714612834156,604.8771558217704,None,0,0.4,,,,,,,,,,,,s005,001,2024-06-20_13h00.40.131,simplestop_skeleton,2022.2.2,60.169758069948145,
None,None,,,,,,,,,2,0,2,0,9,1,37,2,,,,,,,,,604.8587991222739,stop,squareblack.png,right,0.4,,,,,,,,,,,,,,,0.0011914148926734924,0.49000634625554085,0.8902603089809418,607.361441526562,test,3,,,,,,,,,,604.8771558217704,605.3911295235157,605.3744370415807,605.3744370415807,605.7747946679592,606.2740115225315,606.3741246983409,607.3808247707784,right,1,0.35,0.4932337775826454,,,,,,,,,,,s005,001,2024-06-20_13h00.40.131,simplestop_skeleton,2022.2.2,60.169758069948145,
$currentCorrectResponse,$currentGoStim,,,,,,,,,2,0,2,0,9,2,38,0,,,,,,,,,607.3618735857308,go,circleblack.png,left,0.35,,,,,,,,,,,,,,,0.002023298293352127,0.4894351698458195,,609.8641233034432,test,3,,,,,,,,,,607.3808247707784,607.8940041549504,607.8771208412945,607.8771208412945,608.2277112454176,608.7285983376205,608.8771623447537,609.8830258697271,left,1,0.35,0.6727535389363766,,,,,,,,,,,s005,001,2024-06-20_13h00.40.131,simplestop_skeleton,2022.2.2,60.169758069948145,
None,None,,,,,,,,,2,0,2,0,9,3,39,1,,,,,,,,,609.8645659796894,stop,circleblack.png,left,0.35,,,,,,,,,,,,,,,0.0013487152755260468,0.48967162147164345,0.8401160649955273,612.3676617406309,test,3,,,,,,,,,,609.8830258697271,610.3965961113572,610.3799134455621,610.3799134455621,610.730403997004,611.2314542271197,611.3799371421337,612.3875855952501,None,0,0.4,,,,,,,,,,,,s005,001,2024-06-20_13h00.40.131,simplestop_skeleton,2022.2.2,60.169758069948145,
None,None,,,,,,,,,2,0,2,0,10,0,40,1,,,,,,,,,612.3681294582784,stop,circleblack.png,left,0.4,,,,,,,,,,,,,,,0.002180587500333786,0.48705120384693146,0.8873561397194862,614.8697036765516,test,3,,,,,,,,,,612.3875855952501,612.8984099030495,612.8817053698003,612.8817053698003,613.2819491252303,613.7837579362094,613.8843709863722,614.8887131735682,left,1,0.35,0.4644850641489029,,,,,,,,,,,s005,001,2024-06-20_13h00.40.131,simplestop_skeleton,2022.2.2,60.169758069948145,
None,None,,,,,,,,,2,0,2,0,10,1,41,3,,,,,,,,,614.8701335415244,go,circleblack.png,left,0.35,,,,,,,,,,,,,,,0.0013883523643016815,0.4898642487823963,,617.3723518513143,test,3,,,,,,,,,,614.8887131735682,615.402280125767,615.3856016136706,615.3856016136706,615.7361737750471,616.2351807244122,616.385390330106,617.3914185911417,left,1,0.35,0.4795794188976288,,,,,,,,,,,s005,001,2024-06-20_13h00.40.131,simplestop_skeleton,2022.2.2,60.169758069948145,
$currentCorrectResponse,$currentGoStim,,,,,,,,,2,0,2,0,10,2,42,0,,,,,,,,,617.3728039599955,go,circleblack.png,left,0.35,,,,,,,,,,,,,,,0.001367613673210144,0.48968061432242393,,619.8749823458493,test,3,,,,,,,,,,617.3914185911417,617.9051718823612,617.8885985650122,617.8885985650122,618.2392412722111,618.7545720152557,618.8881281875074,619.8988574892282,left,1,0.35,0.3100397288799286,,,,,,,,,,,s005,001,2024-06-20_13h00.40.131,simplestop_skeleton,2022.2.2,60.169758069948145,
None,None,,,,,,,,,2,0,2,0,10,3,43,2,,,,,,,,,619.8754142448306,go,squareblack.png,right,0.35,,,,,,,,,,,,,,,0.007224749773740768,0.4898415729403496,,622.3778451681137,test,3,,,,,,,,,,619.8988574892282,620.4081264510751,620.3912623301148,620.3912623301148,620.7419588640332,621.2573456913233,621.3908503800631,622.3965931944549,right,1,0.35,0.43319134786725044,,,,,,,,,,,s005,001,2024-06-20_13h00.40.131,simplestop_skeleton,2022.2.2,60.169758069948145,
$currentCorrectResponse,$currentGoStim,,,,,,,,,2,0,2,0,11,0,44,0,,,,,,,,,622.3782794699073,go,squareblack.png,right,0.35,,,,,,,,,,,,,,,0.0012822039425373077,0.489749975502491,,624.8806896097958,test,3,,,,,,,,,,622.3965931944549,622.9107079654932,622.8938098475337,622.8938098475337,623.2442779503763,623.7433802969754,623.8935552500188,624.9002965502441,right,1,0.35,0.34387512877583504,,,,,,,,,,,s005,001,2024-06-20_13h00.40.131,simplestop_skeleton,2022.2.2,60.169758069948145,
None,None,,,,,,,,,2,0,2,0,11,1,45,2,,,,,,,,,624.8811305835843,go,circleblack.png,left,0.35,,,,,,,,,,,,,,,0.002009924501180649,0.48959213122725487,,627.3836837559938,test,3,,,,,,,,,,624.9002965502441,625.4133473038673,625.3969181478024,625.3969181478024,625.7469854429364,626.2480961084366,626.3965895026922,627.4028866067529,left,1,0.35,0.6428509391844273,,,,,,,,,,,s005,001,2024-06-20_13h00.40.131,simplestop_skeleton,2022.2.2,60.169758069948145,
None,None,,,,,,,,,2,0,2,0,11,2,46,3,,,,,,,,,627.3841179944575,go,squareblack.png,right,0.35,,,,,,,,,,,,,,,0.0017301328480243683,0.48950647935271263,,629.8864364624023,test,3,,,,,,,,,,627.4028866067529,627.9163455702364,627.8994102552533,627.8994102552533,628.2497787550092,628.7507453560829,628.9011180587113,629.9053238257766,right,1,0.35,0.719817753881216,,,,,,,,,,,s005,001,2024-06-20_13h00.40.131,simplestop_skeleton,2022.2.2,60.169758069948145,
None,None,,,,,,,,,2,0,2,0,11,3,47,1,,,,,,,,,629.8868835568428,go,squareblack.png,right,0.35,,,,,,,,,,,,,,,0.0013390891253948212,0.48934734240174294,,632.3888567313552,test,3,,,,,,,,,,629.9053238257766,630.4189838059247,630.4024475626647,630.4024475626647,630.7526185959578,631.2517038621008,631.401872523129,632.4064607284963,right,1,0.35,0.37537024170160294,,,,,,,,,,,s005,001,2024-06-20_13h00.40.131,simplestop_skeleton,2022.2.2,60.169758069948145,
