corrGoResp,shape,practiceBlocks.thisRepN,practiceBlocks.thisTrialN,practiceBlocks.thisN,practiceBlocks.thisIndex,practiceTrials.thisRepN,practiceTrials.thisTrialN,practiceTrials.thisN,practiceTrials.thisIndex,stopBlocks.thisRepN,stopBlocks.thisTrialN,stopBlocks.thisN,stopBlocks.thisIndex,testTrials.thisRepN,testTrials.thisTrialN,testTrials.thisN,testTrials.thisIndex,stopPracTrialList,Test Block: 0,welcome.started,start_exp.started,start_exp.keys,start_exp.rt,instrStopText.started,start_prac.started,StartTrialTimeStamp,trialType,goStim,correctResponse,ssd,fixation.started,rules.started,goStim.started,goResp.started,fixation.stopped,stopSignal.started,stopSignal.stopped,goStim.stopped,goResp.stopped,rules.stopped,goResp.keys,goResp.corr,text.started,rules_2.started,fixationOnset,goStimOnset,stopSignalOnset,EndTrialTimeStamp,text.stopped,rules_2.stopped,goResp.rt,text_5.started,key_resp_3.started,key_resp_3.keys,key_resp_3.rt,key_resp.started,testText.started,test_fixation.started,test_fixation.stopped,goStim_test.started,goResp_test.started,stopSignal_test.started,stopSignal_test.stopped,goStim_test.stopped,goResp_test.stopped,goResp_test.keys,goResp_test.corr,EndingSSD,goResp_test.rt,Test Block: 1,text_6.started,key_resp_4.started,key_resp_4.keys,key_resp_4.rt,Test Block: 2,Test Block: 3,ending_text.started,end_resp.started,end_resp.keys,end_resp.rt,participant,session,date,expName,psychopyVersion,frameRate,
,,,,,,,,,,,,,,,,,,"[{'fileName': 'squareblack.png', 'correct_response': 'm', 'condition': 'go'}, {'fileName': 'circleblack.png', 'correct_response': 'z', 'condition': 'go'}, {'fileName': 'circleblack.png', 'correct_response': 'z', 'condition': 'go'}, {'fileName': 'squareblack.png', 'correct_response': 'm', 'condition': 'stop'}, {'fileName': 'circleblack.png', 'correct_response': 'z', 'condition': 'go'}, {'fileName': 'squareblack.png', 'correct_response': 'm', 'condition': 'go'}, {'fileName': 'circleblack.png', 'correct_response': 'z', 'condition': 'stop'}, {'fileName': 'squareblack.png', 'correct_response': 'm', 'condition': 'go'}, {'fileName': 'squareblack.png', 'correct_response': 'm', 'condition': 'go'}, {'fileName': 'circleblack.png', 'correct_response': 'z', 'condition': 'go'}, {'fileName': 'circleblack.png', 'correct_response': 'z', 'condition': 'stop'}, {'fileName': 'squareblack.png', 'correct_response': 'm', 'condition': 'stop'}, {'fileName': 'circleblack.png', 'correct_response': 'z', 'condition': 'go'}, {'fileName': 'circleblack.png', 'correct_response': 'z', 'condition': 'go'}, {'fileName': 'circleblack.png', 'correct_response': 'z', 'condition': 'go'}, {'fileName': 'squareblack.png', 'correct_response': 'm', 'condition': 'stop'}, {'fileName': 'squareblack.png', 'correct_response': 'm', 'condition': 'go'}, {'fileName': 'circleblack.png', 'correct_response': 'z', 'condition': 'stop'}, {'fileName': 'squareblack.png', 'correct_response': 'm', 'condition': 'stop'}, {'fileName': 'squareblack.png', 'correct_response': 'm', 'condition': 'go'}, {'fileName': 'circleblack.png', 'correct_response': 'z', 'condition': 'go'}, {'fileName': 'squareblack.png', 'correct_response': 'm', 'condition': 'go'}, {'fileName': 'circleblack.png', 'correct_response': 'z', 'condition': 'stop'}, {'fileName': 'squareblack.png', 'correct_response': 'm', 'condition': 'go'}]","[{'fileName': 'squareblack.png', 'correct_response': 'm', 'condition': 'stop'}, {'fileName': 'squareblack.png', 'correct_response': 'm', 'condition': 'stop'}, {'fileName': 'squareblack.png', 'correct_response': 'm', 'condition': 'go'}, {'fileName': 'circleblack.png', 'correct_response': 'z', 'condition': 'go'}, {'fileName': 'circleblack.png', 'correct_response': 'z', 'condition': 'go'}, {'fileName': 'circleblack.png', 'correct_response': 'z', 'condition': 'go'}, {'fileName': 'squareblack.png', 'correct_response': 'm', 'condition': 'go'}, {'fileName': 'circleblack.png', 'correct_response': 'z', 'condition': 'stop'}, {'fileName': 'squareblack.png', 'correct_response': 'm', 'condition': 'go'}, {'fileName': 'squareblack.png', 'correct_response': 'm', 'condition': 'go'}, {'fileName': 'circleblack.png', 'correct_response': 'z', 'condition': 'go'}, {'fileName': 'circleblack.png', 'correct_response': 'z', 'condition': 'stop'}, {'fileName': 'circleblack.png', 'correct_response': 'z', 'condition': 'stop'}, {'fileName': 'squareblack.png', 'correct_response': 'm', 'condition': 'go'}, {'fileName': 'squareblack.png', 'correct_response': 'm', 'condition': 'go'}, {'fileName': 'squareblack.png', 'correct_response': 'm', 'condition': 'stop'}, {'fileName': 'circleblack.png', 'correct_response': 'z', 'condition': 'go'}, {'fileName': 'squareblack.png', 'correct_response': 'm', 'condition': 'stop'}, {'fileName': 'circleblack.png', 'correct_response': 'z', 'condition': 'go'}, {'fileName': 'circleblack.png', 'correct_response': 'z', 'condition': 'stop'}, {'fileName': 'squareblack.png', 'correct_response': 'm', 'condition': 'go'}, {'fileName': 'squareblack.png', 'correct_response': 'm', 'condition': 'go'}, {'fileName': 'circleblack.png', 'correct_response': 'z', 'condition': 'go'}, {'fileName': 'circleblack.png', 'correct_response': 'z', 'condition': 'go'}, {'fileName': 'circleblack.png', 'correct_response': 'z', 'condition': 'stop'}, {'fileName': 'squareblack.png', 'correct_response': 'm', 'condition': 'go'}, {'fileName': 'squareblack.png', 'correct_response': 'm', 'condition': 'stop'}, {'fileName': 'circleblack.png', 'correct_response': 'z', 'condition': 'go'}, {'fileName': 'circleblack.png', 'correct_response': 'z', 'condition': 'stop'}, {'fileName': 'squareblack.png', 'correct_response': 'm', 'condition': 'stop'}, {'fileName': 'circleblack.png', 'correct_response': 'z', 'condition': 'go'}, {'fileName': 'squareblack.png', 'correct_response': 'm', 'condition': 'go'}, {'fileName': 'circleblack.png', 'correct_response': 'z', 'condition': 'go'}, {'fileName': 'squareblack.png', 'correct_response': 'm', 'condition': 'go'}, {'fileName': 'circleblack.png', 'correct_response': 'z', 'condition': 'go'}, {'fileName': 'squareblack.png', 'correct_response': 'm', 'condition': 'go'}, {'fileName': 'squareblack.png', 'correct_response': 'm', 'condition': 'go'}, {'fileName': 'squareblack.png', 'correct_response': 'm', 'condition': 'go'}, {'fileName': 'squareblack.png', 'correct_response': 'm', 'condition': 'stop'}, {'fileName': 'circleblack.png', 'correct_response': 'z', 'condition': 'stop'}, {'fileName': 'squareblack.png', 'correct_response': 'm', 'condition': 'go'}, {'fileName': 'circleblack.png', 'correct_response': 'z', 'condition': 'go'}, {'fileName': 'circleblack.png', 'correct_response': 'z', 'condition': 'stop'}, {'fileName': 'circleblack.png', 'correct_response': 'z', 'condition': 'go'}, {'fileName': 'squareblack.png', 'correct_response': 'm', 'condition': 'stop'}, {'fileName': 'circleblack.png', 'correct_response': 'z', 'condition': 'go'}, {'fileName': 'squareblack.png', 'correct_response': 'm', 'condition': 'go'}, {'fileName': 'circleblack.png', 'correct_response': 'z', 'condition': 'go'}]",1675.867683108896,1675.867683108896,return,48.94975994899869,,,,,,,,,,,,,,,,,,,,,,,,,,,,,,,,,,,,,,,,,,,,,,,,,,,,,,,,,,s001,001,2024-04-10_11h54.28.698,simplestop_skeleton,2022.2.2,59.9271829092568,
$currentCorrectResponse,$currentGoStim,0,0,0,0,0,0,0,0,,,,,,,,,,,,,,,1724.8389267101884,1724.8389267101884,1802.1590700037777,go,squareblack.png,m,0.25,1802.1806938387454,1802.1806938387454,1802.6749379076064,1802.6749379076064,1802.6916573420167,1802.9251820631325,1803.4258637465537,1803.6761932596564,1804.6773342713714,1804.6963593177497,None,0,1804.6963593177497,1804.6963593177497,0.002405356615781784,0.4898262545466423,0.7403711080551147,1805.195110425353,,,,,,,,,,,,,,,,,,,,,,,,,,,,,,,,,s001,001,2024-04-10_11h54.28.698,simplestop_skeleton,2022.2.2,59.9271829092568,
None,None,0,0,0,0,0,1,1,3,,,,,,,,,,,,,,,,,1805.1954567879438,go,circleblack.png,z,0.25,1805.2150955833495,1805.2150955833495,1805.7117039188743,1805.7117039188743,1805.7284287661314,1805.9620344415307,1806.4625243023038,1806.7126735784113,1807.7139028012753,1807.7307844497263,None,1,1807.7307844497263,1807.7307844497263,0.001878354698419571,0.49022749066352844,0.7405292317271233,1808.2154296934605,,,,,,,,,,,,,,,,,,,,,,,,,,,,,,,,,s001,001,2024-04-10_11h54.28.698,simplestop_skeleton,2022.2.2,59.9271829092568,
None,None,0,0,0,0,0,2,2,1,,,,,,,,,,,,,,,,,1808.215746279806,go,circleblack.png,z,0.25,1808.2348595000803,1808.2348595000803,1808.7318131998181,1808.7318131998181,1808.7485235668719,1808.9819036498666,1809.482485346496,1809.7327810414135,1810.7342120558023,1810.7342120558023,None,1,1810.7342120558023,1810.7342120558023,0.0012717172503471375,0.49036774411797523,0.7403527684509754,1811.218809120357,1811.238433726132,1811.238433726132,,,,,,,,,,,,,,,,,,,,,,,,,,,,,,,s001,001,2024-04-10_11h54.28.698,simplestop_skeleton,2022.2.2,59.9271829092568,
None,None,0,0,0,0,0,3,3,1,,,,,,,,,,,,,,,,,1811.219128664583,stop,squareblack.png,m,0.25,1811.238433726132,1811.238433726132,1811.7351530902088,1811.7351530902088,1811.7517771571875,1811.9852121248841,1812.4857252128422,1812.7359043247998,1813.737145524472,1813.753814138472,None,1,1813.753814138472,1813.753814138472,0.001805085688829422,0.4903988391160965,0.7407231070101261,1814.238588526845,1814.2584297657013,1814.2584297657013,,,,,,,,,,,,,,,,,,,,,,,,,,,,,,,s001,001,2024-04-10_11h54.28.698,simplestop_skeleton,2022.2.2,59.9271829092568,
None,None,0,0,0,0,1,0,4,2,,,,,,,,,,,,,,,,,1814.2389056645334,go,circleblack.png,z,0.3,1814.2584297657013,1814.2584297657013,1814.754932191223,1814.754932191223,1814.7716462425888,1815.0553860887885,1815.5558594726026,1815.7553587593138,1816.7571425065398,1816.7739118859172,z,0,1816.7739118859172,1816.7739118859172,0.0018937215209007263,0.49036603048443794,0.7905027903616428,1817.2586963176727,1817.2785517200828,1817.2785517200828,0.5624055452644825,,,,,,,,,,,,,,,,,,,,,,,,,,,,,,s001,001,2024-04-10_11h54.28.698,simplestop_skeleton,2022.2.2,59.9271829092568,
None,None,0,0,0,0,1,1,5,2,,,,,,,,,,,,,,,,,1817.2590109445155,go,squareblack.png,m,0.3,1817.2785517200828,1817.2785517200828,1817.775085810572,1817.775085810572,1817.7918707691133,1818.075700391084,1818.5755012743175,1818.775647163391,1819.7772309333086,1819.7938886769116,None,1,1819.7938886769116,1819.7938886769116,0.0017364546656608582,0.49014366418123245,0.7904619723558426,1820.278643131256,1820.2982465736568,1820.2982465736568,,,,,,,,,,,,,,,,,,,,,,,,,,,,,,,s001,001,2024-04-10_11h54.28.698,simplestop_skeleton,2022.2.2,59.9271829092568,
None,None,0,0,0,0,1,2,6,3,,,,,,,,,,,,,,,,,1820.2789607532322,stop,circleblack.png,z,0.3,1820.2982465736568,1820.2982465736568,1820.7951176054776,1820.7951176054776,1820.8117300271988,1821.0952808335423,1821.5944805964828,1821.79590652138,1822.7970606423914,1822.8139494396746,z,0,1822.8139494396746,1822.8139494396746,0.0018688775599002838,0.49048715457320213,0.7907797731459141,1823.29848793149,,,0.46820442005991936,,,,,,,,,,,,,,,,,,,,,,,,,,,,,,s001,001,2024-04-10_11h54.28.698,simplestop_skeleton,2022.2.2,59.9271829092568,
$currentCorrectResponse,$currentGoStim,0,0,0,0,1,3,7,0,,,,,,,,,,,,,,,,,1823.298813674599,go,squareblack.png,m,0.25,1823.3181157112122,1823.3181157112122,1823.8149176053703,1823.8149176053703,1823.8317904546857,1824.065225686878,1824.5644702278078,1824.8154179118574,1825.8170226998627,1825.8170226998627,m,0,1825.8170226998627,1825.8170226998627,0.0015976130962371826,0.4903605207800865,0.7405583411455154,1826.3019666299224,1826.32104646042,1826.32104646042,0.30844155699014664,,,,,,,,,,,,,,,,,,,,,,,,,,,,,,s001,001,2024-04-10_11h54.28.698,simplestop_skeleton,2022.2.2,59.9271829092568,
$currentCorrectResponse,$currentGoStim,0,0,0,0,2,0,8,0,,,,,,,,,,,,,,,,,1826.3023009933531,go,squareblack.png,m,0.25,1826.32104646042,1826.32104646042,1826.8185482658446,1826.8185482658446,1826.8349162228405,1827.0687437392771,1827.5677526183426,1827.8189623840153,1828.8206159509718,1828.8206159509718,z,0,1828.8206159509718,1828.8206159509718,0.0011559724807739258,0.4903854727745056,0.7405470125377178,1829.3050231076777,1829.3247560560703,1829.3247560560703,0.37594063207507133,,,,,,,,,,,,,,,,,,,,,,,,,,,,,,s001,001,2024-04-10_11h54.28.698,simplestop_skeleton,2022.2.2,59.9271829092568,
None,None,0,0,0,0,2,1,9,3,,,,,,,,,,,,,,,,,1829.3053304553032,go,circleblack.png,z,0.25,1829.3247560560703,1829.3247560560703,1829.8217832259834,1829.8217832259834,1829.8383457064629,1830.0717989429832,1830.5717352293432,1830.8218721225858,1831.8236388154328,1831.8236388154328,z,0,1831.8236388154328,1831.8236388154328,0.0017808116972446442,0.4905419461429119,0.7407467998564243,1832.3086909204721,1832.3278477415442,1832.3278477415442,0.423161156475544,,,,,,,,,,,,,,,,,,,,,,,,,,,,,,s001,001,2024-04-10_11h54.28.698,simplestop_skeleton,2022.2.2,59.9271829092568,
None,None,0,0,0,0,2,2,10,2,,,,,,,,,,,,,,,,,1832.3090024590492,stop,circleblack.png,z,0.25,1832.3278477415442,1832.3278477415442,1832.8249882645905,1832.8249882645905,1832.8415892720222,1833.0751407071948,1833.5744484066963,1833.8254843205214,1834.8271038420498,1834.8271038420498,m,0,1834.8271038420498,1834.8271038420498,0.0012306757271289825,0.4900437220931053,0.7402896173298359,1835.3117968589067,1835.3316774182022,1835.3316774182022,0.33970674127340317,,,,,,,,,,,,,,,,,,,,,,,,,,,,,,s001,001,2024-04-10_11h54.28.698,simplestop_skeleton,2022.2.2,59.9271829092568,
None,None,0,0,0,0,2,3,11,3,,,,,,,,,,,,,,,,,1835.3121079653502,stop,squareblack.png,m,0.2,1835.3316774182022,1835.3316774182022,1835.8281569480896,1835.8281569480896,1835.8450220413506,1836.0283359996974,1836.5276636481285,1836.8284583278,1837.8306881152093,1837.8473303765059,m,0,1837.8473303765059,1837.8473303765059,0.0016360506415367126,0.4902666099369526,0.6905265152454376,1838.3322001770139,1838.3519236557186,1838.3519236557186,0.31748436763882637,,,,,,,,,,,,,,,,,,,,,,,,,,,,,,s001,001,2024-04-10_11h54.28.698,simplestop_skeleton,2022.2.2,59.9271829092568,
None,None,0,0,0,0,3,0,12,3,,,,,,,,,,,,,,,,,1838.3325305841863,go,circleblack.png,z,0.15,1838.3519236557186,1838.3519236557186,1838.8482296392322,1838.8482296392322,1838.8648490048945,1838.9984170645475,1839.498905081302,1839.849481124431,1840.8506435081363,1840.8670592941344,z,0,1840.8670592941344,1840.8670592941344,0.001753043383359909,0.4897447042167187,0.6403667256236076,1841.351752217859,1841.3708469420671,1841.3708469420671,0.4726128950715065,,,,,,,,,,,,,,,,,,,,,,,,,,,,,,s001,001,2024-04-10_11h54.28.698,simplestop_skeleton,2022.2.2,59.9271829092568,
None,None,0,0,0,0,3,1,13,1,,,,,,,,,,,,,,,,,1841.3520927838981,go,circleblack.png,z,0.15,1841.3708469420671,1841.3708469420671,1841.8682089038193,1841.8682089038193,1841.8848710544407,1842.0183375515044,1842.5182491913438,1842.8693863525987,1843.8702177256346,1843.8702177256346,z,0,1843.8702177256346,1843.8702177256346,0.0012865737080574036,0.4905221723020077,0.6406446434557438,1844.3551329784095,1844.3746799603105,1844.3746799603105,0.4623948335647583,,,,,,,,,,,,,,,,,,,,,,,,,,,,,,s001,001,2024-04-10_11h54.28.698,simplestop_skeleton,2022.2.2,59.9271829092568,
None,None,0,0,0,0,3,2,14,2,,,,,,,,,,,,,,,,,1844.3554515093565,go,circleblack.png,z,0.15,1844.3746799603105,1844.3746799603105,1844.8714388385415,1844.8714388385415,1844.8881596662104,1845.0216989517212,1845.5221532285213,1845.8720101900399,1846.8736631087959,1846.8736631087959,z,0,1846.8736631087959,1846.8736631087959,0.0013157203793525696,0.49077627807855606,0.6404459066689014,1847.3585139252245,1847.3783790655434,1847.3783790655434,0.4180086888372898,,,,,,,,,,,,,,,,,,,,,,,,,,,,,,s001,001,2024-04-10_11h54.28.698,simplestop_skeleton,2022.2.2,59.9271829092568,
$currentCorrectResponse,$currentGoStim,0,0,0,0,3,3,15,0,,,,,,,,,,,,,,,,,1847.3588459864259,stop,squareblack.png,m,0.15,1847.3783790655434,1847.3783790655434,1847.8747730478644,1847.8747730478644,1847.891491126269,1848.0249178223312,1848.5266626402736,1848.8753035105765,1849.877019830048,1849.8935911133885,m,0,1849.8935911133885,1849.8935911133885,0.0016829147934913635,0.4902683459222317,0.6402614526450634,1850.3785627745092,1850.3974544480443,1850.3974544480443,0.2947849929332733,,,,,,,,,,,,,,,,,,,,,,,,,,,,,,s001,001,2024-04-10_11h54.28.698,simplestop_skeleton,2022.2.2,59.9271829092568,
None,None,0,0,0,0,4,0,16,2,,,,,,,,,,,,,,,,,1850.3788779452443,go,squareblack.png,m,0.1,1850.3974544480443,1850.3974544480443,1850.8950806297362,1850.8950806297362,1850.9118921086192,1850.9950700365007,1851.495481286198,1851.8954694829881,1852.8967677094042,1852.8967677094042,m,0,1852.8967677094042,1852.8967677094042,0.0011699199676513672,0.49050604179501534,0.5903141163289547,1853.381703659892,,,0.3846612237393856,,,,,,,,,,,,,,,,,,,,,,,,,,,,,,s001,001,2024-04-10_11h54.28.698,simplestop_skeleton,2022.2.2,59.9271829092568,
$currentCorrectResponse,$currentGoStim,0,0,0,0,4,1,17,0,,,,,,,,,,,,,,,,,1853.3820587694645,stop,circleblack.png,z,0.1,1853.4013034515083,1853.4013034515083,1853.8980734497309,1853.8980734497309,1853.9149463884532,1853.9982367046177,1854.4987075477839,1854.8991361148655,1855.9000895917416,1855.916976671666,None,0,1855.916976671666,1855.916976671666,0.0017863288521766663,0.49028051644563675,0.5903183780610561,1856.4015928395092,,,,,,,,,,,,,,,,,,,,,,,,,,,,,,,,,s001,001,2024-04-10_11h54.28.698,simplestop_skeleton,2022.2.2,59.9271829092568,
$currentCorrectResponse,$currentGoStim,0,0,0,0,4,2,18,0,,,,,,,,,,,,,,,,,1856.4019331634045,stop,squareblack.png,m,0.15,1856.4212761744857,1856.4212761744857,1856.9184465818107,1856.9184465818107,1856.9346261397004,1857.0681794136763,1857.5704520121217,1857.9192238301039,1858.9205716513097,1858.937047753483,m,0,1858.937047753483,1858.937047753483,0.0016164332628250122,0.49047794938087463,0.6405163258314133,1859.4221441298723,1859.4411372765899,1859.4411372765899,0.277997400611639,,,,,,,,,,,,,,,,,,,,,,,,,,,,,,s001,001,2024-04-10_11h54.28.698,simplestop_skeleton,2022.2.2,59.9271829092568,
None,None,0,0,0,0,4,3,19,1,,,,,,,,,,,,,,,,,1859.4224513955414,go,squareblack.png,m,0.1,1859.4411372765899,1859.4411372765899,1859.9382813945413,1859.9382813945413,1859.9547374136746,1860.0384518578649,1860.5390384607017,1860.938786584884,1861.9408834688365,1861.9408834688365,m,0,1861.9408834688365,1861.9408834688365,0.001182805746793747,0.49024124816060066,0.590563677251339,1862.4251072704792,,,0.42778205499053,,,,,,,,,,,,,,,,,,,,,,,,,,,,,,s001,001,2024-04-10_11h54.28.698,simplestop_skeleton,2022.2.2,59.9271829092568,
None,None,0,0,0,0,5,0,20,2,,,,,,,,,,,,,,,,,1862.4254276901484,go,circleblack.png,z,0.1,1862.4449940174818,1862.4449940174818,1862.9415691532195,1862.9415691532195,1862.9580919854343,1863.0415795966983,1863.5419649258256,1863.9426231868565,1864.943709731102,1864.9606691412628,z,0,1864.9606691412628,1864.9606691412628,0.0019214488565921783,0.490510243922472,0.5906343422830105,1865.4451428465545,1865.4648998975754,1865.4648998975754,0.5479242205619812,,,,,,,,,,,,,,,,,,,,,,,,,,,,,,s001,001,2024-04-10_11h54.28.698,simplestop_skeleton,2022.2.2,59.9271829092568,
None,None,0,0,0,0,5,1,21,3,,,,,,,,,,,,,,,,,1865.445459857583,go,squareblack.png,m,0.1,1865.4648998975754,1865.4648998975754,1865.9616454169154,1865.9616454169154,1865.9783112816513,1866.06216256693,1866.5621207877994,1866.9620980247855,1867.96403696388,1867.980456404388,m,0,1867.980456404388,1867.980456404388,0.001605994999408722,0.490543007850647,0.590550422668457,1868.4651395529509,1868.485041860491,1868.485041860491,0.5162667743861675,,,,,,,,,,,,,,,,,,,,,,,,,,,,,,s001,001,2024-04-10_11h54.28.698,simplestop_skeleton,2022.2.2,59.9271829092568,
None,None,0,0,0,0,5,2,22,1,,,,,,,,,,,,,,,,,1868.465452607721,stop,circleblack.png,z,0.1,1868.485041860491,1868.485041860491,1868.9817641228437,1868.9817641228437,1868.9980932176113,1869.081697564572,1869.5819944776595,1869.9825983643532,1870.9835895374417,1871.0005597509444,None,1,1871.0005597509444,1871.0005597509444,0.0017356909811496735,0.4903928115963936,0.5907360203564167,1871.4850337989628,1871.5046262331307,1871.5046262331307,,,,,,,,,,,,,,,,,,,,,,,,,,,,,,,s001,001,2024-04-10_11h54.28.698,simplestop_skeleton,2022.2.2,59.9271829092568,
None,None,0,0,0,0,5,3,23,1,,,,,,,,,,,,,,,,,1871.4853439107537,go,squareblack.png,m,0.15,1871.5046262331307,1871.5046262331307,1872.00153311342,1872.00153311342,1872.0181539729238,1872.1518837064505,1872.6507510989904,1873.0023479647934,1874.0035286732018,1874.0202641449869,m,0,1874.0202641449869,1874.0202641449869,0.0015932545065879822,0.49041590839624405,0.6407410129904747,1874.5050367116928,1874.5229364186525,1874.5229364186525,0.2628774866461754,,,,,,,,,,,,,,,,,,,,,,,,,,,,,,s001,001,2024-04-10_11h54.28.698,simplestop_skeleton,2022.2.2,59.9271829092568,
,,0,0,0,0,,,,,,,,,,,,,"[{'fileName': 'circleblack.png', 'correct_response': 'z', 'condition': 'go'}, {'fileName': 'squareblack.png', 'correct_response': 'm', 'condition': 'stop'}, {'fileName': 'squareblack.png', 'correct_response': 'm', 'condition': 'go'}, {'fileName': 'circleblack.png', 'correct_response': 'z', 'condition': 'go'}, {'fileName': 'squareblack.png', 'correct_response': 'm', 'condition': 'go'}, {'fileName': 'squareblack.png', 'correct_response': 'm', 'condition': 'stop'}, {'fileName': 'circleblack.png', 'correct_response': 'z', 'condition': 'stop'}, {'fileName': 'circleblack.png', 'correct_response': 'z', 'condition': 'go'}, {'fileName': 'squareblack.png', 'correct_response': 'm', 'condition': 'go'}, {'fileName': 'circleblack.png', 'correct_response': 'z', 'condition': 'go'}, {'fileName': 'squareblack.png', 'correct_response': 'm', 'condition': 'go'}, {'fileName': 'circleblack.png', 'correct_response': 'z', 'condition': 'stop'}, {'fileName': 'squareblack.png', 'correct_response': 'm', 'condition': 'stop'}, {'fileName': 'circleblack.png', 'correct_response': 'z', 'condition': 'stop'}, {'fileName': 'circleblack.png', 'correct_response': 'z', 'condition': 'stop'}, {'fileName': 'squareblack.png', 'correct_response': 'm', 'condition': 'go'}, {'fileName': 'squareblack.png', 'correct_response': 'm', 'condition': 'stop'}, {'fileName': 'circleblack.png', 'correct_response': 'z', 'condition': 'go'}, {'fileName': 'circleblack.png', 'correct_response': 'z', 'condition': 'go'}, {'fileName': 'squareblack.png', 'correct_response': 'm', 'condition': 'go'}, {'fileName': 'squareblack.png', 'correct_response': 'm', 'condition': 'go'}, {'fileName': 'circleblack.png', 'correct_response': 'z', 'condition': 'go'}, {'fileName': 'circleblack.png', 'correct_response': 'z', 'condition': 'go'}, {'fileName': 'squareblack.png', 'correct_response': 'm', 'condition': 'go'}]",,,,,,,,,,,,,,,,,,,,,,,,,,,,,,,,,,1874.5229364186525,1874.5229364186525,return,4.5094486474990845,,,,,,,,,,,,,,,,,,,,,,,,,,s001,001,2024-04-10_11h54.28.698,simplestop_skeleton,2022.2.2,59.9271829092568,
None,None,,,,,,,,,0,0,0,0,0,0,0,3,,,,,,,,,1901.159579437226,stop,squareblack.png,m,0.15,,,,,,,,,,,,,,,0.00216076523065567,0.49825815856456757,0.6486378535628319,1903.6713882237673,,,,,,,,1879.0593875460327,1879.0593875460327,1901.1791585050523,1901.6845220401883,1901.6845220401883,1901.6845220401883,1901.8344623483717,1902.3344261832535,1902.6852439455688,1903.6899975799024,None,1,0.2,,,,,,,,,,,,,s001,001,2024-04-10_11h54.28.698,simplestop_skeleton,2022.2.2,59.9271829092568,
None,None,,,,,,,,,0,0,0,0,0,1,1,2,,,,,,,,,1903.6717193573713,stop,squareblack.png,m,0.2,,,,,,,,,,,,,,,0.0013250485062599182,0.4895406998693943,0.6897369623184204,1906.1740880832076,,,,,,,,,,1903.6899975799024,1904.2037013098598,1904.1869761943817,1904.1869761943817,1904.3873677626252,1904.8865061327815,1905.1873324103653,1906.1926337815821,m,0,0.15,0.31246360018849373,,,,,,,,,,,,s001,001,2024-04-10_11h54.28.698,simplestop_skeleton,2022.2.2,59.9271829092568,
$currentCorrectResponse,$currentGoStim,,,,,,,,,0,0,0,0,0,2,2,0,,,,,,,,,1906.1744063943624,go,squareblack.png,m,0.15,,,,,,,,,,,,,,,0.0012866295874118805,0.4899015426635742,0.6400083228945732,1908.6765470989048,,,,,,,,,,1906.1926337815821,1906.7063151299953,1906.6898398846388,1906.6898398846388,1906.8400044552982,1907.3404588773847,1907.6903379336,1908.695845272392,m,0,0.15,0.38952046632766724,,,,,,,,,,,,s001,001,2024-04-10_11h54.28.698,simplestop_skeleton,2022.2.2,59.9271829092568,
None,None,,,,,,,,,0,0,0,0,0,3,3,3,,,,,,,,,1908.6768671311438,go,circleblack.png,z,0.15,,,,,,,,,,,,,,,0.0018670856952667236,0.4897388741374016,0.6400339119136333,1911.1793339885771,,,,,,,,,,1908.695845272392,1909.2091341502964,1909.1927480846643,1909.1927480846643,1909.3426895663142,1909.8418483287096,1910.1930366158485,1911.1979971453547,z,0,0.15,0.3295765481889248,,,,,,,,,,,,s001,001,2024-04-10_11h54.28.698,simplestop_skeleton,2022.2.2,59.9271829092568,
None,None,,,,,,,,,0,0,0,0,1,0,4,1,,,,,,,,,1911.1796437837183,go,circleblack.png,z,0.15,,,,,,,,,,,,,,,0.0013622231781482697,0.48971856012940407,0.6400316134095192,1913.682143073529,,,,,,,,,,1911.1979971453547,1911.711920902133,1911.6954409070313,1911.6954409070313,1911.8455531075597,1912.346877913922,1912.6963067352772,1913.7005334757268,z,0,0.15,0.2845105603337288,,,,,,,,,,,,s001,001,2024-04-10_11h54.28.698,simplestop_skeleton,2022.2.2,59.9271829092568,
None,None,,,,,,,,,0,0,0,0,1,1,5,2,,,,,,,,,1913.6824746914208,go,circleblack.png,z,0.15,,,,,,,,,,,,,,,0.0012135803699493408,0.489797655493021,0.6400422602891922,1916.1850256696343,,,,,,,,,,1913.7005334757268,1914.2148581817746,1914.1979833431542,1914.1979833431542,1914.3481878973544,1914.8477541059256,1915.1985808685422,1916.2038065865636,z,0,0.15,0.3082546927034855,,,,,,,,,,,,s001,001,2024-04-10_11h54.28.698,simplestop_skeleton,2022.2.2,59.9271829092568,
$currentCorrectResponse,$currentGoStim,,,,,,,,,0,0,0,0,1,2,6,0,,,,,,,,,1916.1853401698172,go,squareblack.png,m,0.15,,,,,,,,,,,,,,,0.0015964843332767487,0.48976847156882286,0.6399012804031372,1918.6873635984957,,,,,,,,,,1916.2038065865636,1916.71743555367,1916.7009408324957,1916.7009408324957,1916.8512864522636,1917.3515754714608,1917.7014153786004,1918.706585355103,m,0,0.15,0.3840446397662163,,,,,,,,,,,,s001,001,2024-04-10_11h54.28.698,simplestop_skeleton,2022.2.2,59.9271829092568,
None,None,,,,,,,,,0,0,0,0,1,3,7,2,,,,,,,,,1918.6877431124449,stop,circleblack.png,z,0.15,,,,,,,,,,,,,,,0.0017918013036251068,0.4899790845811367,0.6399032846093178,1921.1902464404702,,,,,,,,,,1918.706585355103,1919.2202260755002,1919.2033559195697,1919.2033559195697,1919.3537025265396,1919.854162890464,1920.2044829651713,1921.2093955986202,None,1,0.2,,,,,,,,,,,,,s001,001,2024-04-10_11h54.28.698,simplestop_skeleton,2022.2.2,59.9271829092568,
None,None,,,,,,,,,0,0,0,0,2,0,8,3,,,,,,,,,1921.1905733793974,go,squareblack.png,m,0.2,,,,,,,,,,,,,,,0.0015975423157215118,0.48992689698934555,0.6899690441787243,1923.6930324733257,,,,,,,,,,1921.2093955986202,1921.7228990904987,1921.7061620391905,1921.7061620391905,1921.9064011387527,1922.4076954573393,1922.7068854495883,1923.7116595506668,m,0,0.2,0.3405202701687813,,,,,,,,,,,,s001,001,2024-04-10_11h54.28.698,simplestop_skeleton,2022.2.2,59.9271829092568,
None,None,,,,,,,,,0,0,0,0,2,1,9,3,,,,,,,,,1923.693344000727,go,squareblack.png,m,0.2,,,,,,,,,,,,,,,0.0011910907924175262,0.48989810794591904,0.6902328208088875,1926.1965199410915,,,,,,,,,,1923.7116595506668,1924.2259691916406,1924.209126330912,1924.209126330912,1924.4093646071851,1924.909708853811,1925.2095837332308,1926.216046538204,m,0,0.2,0.40921084210276604,,,,,,,,,,,,s001,001,2024-04-10_11h54.28.698,simplestop_skeleton,2022.2.2,59.9271829092568,
None,None,,,,,,,,,0,0,0,0,2,2,10,1,,,,,,,,,1926.1968523859978,go,circleblack.png,z,0.2,,,,,,,,,,,,,,,0.0026390887796878815,0.4888569749891758,0.6892971396446228,1928.698763217777,,,,,,,,,,1926.216046538204,1926.7285485714674,1926.7116911783814,1926.7116911783814,1926.9121090881526,1927.4113304801285,1927.7122474126518,1928.7183147780597,z,0,0.2,0.3938441388309002,,,,,,,,,,,,s001,001,2024-04-10_11h54.28.698,simplestop_skeleton,2022.2.2,59.9271829092568,
$currentCorrectResponse,$currentGoStim,,,,,,,,,0,0,0,0,2,3,11,0,,,,,,,,,1928.6990903951228,stop,circleblack.png,z,0.2,,,,,,,,,,,,,,,0.0015314482152462006,0.48893505707383156,0.6891896389424801,1931.2014819532633,,,,,,,,,,1928.7183147780597,1929.2306425087154,1929.2140249237418,1929.2140249237418,1929.4141905158758,1929.9153499752283,1930.2156490534544,1931.2205978818238,None,0,0.25,,,,,,,,,,,,,s001,001,2024-04-10_11h54.28.698,simplestop_skeleton,2022.2.2,59.9271829092568,
$currentCorrectResponse,$currentGoStim,,,,,,,,,0,0,0,0,3,0,12,0,,,,,,,,,1931.2017923146486,stop,circleblack.png,z,0.25,,,,,,,,,,,,,,,0.0013965778052806854,0.48959916457533836,0.7401611655950546,1933.70441718027,,,,,,,,,,1931.2205978818238,1931.733839135617,1931.7172811105847,1931.7172811105847,1931.9675599522889,1932.4680345319211,1932.7183620072901,1933.723646827042,None,0,0.3,,,,,,,,,,,,,s001,001,2024-04-10_11h54.28.698,simplestop_skeleton,2022.2.2,59.9271829092568,
None,None,,,,,,,,,0,0,0,0,3,1,13,2,,,,,,,,,1933.7047256603837,go,squareblack.png,m,0.3,,,,,,,,,,,,,,,0.0018150396645069122,0.4896969571709633,0.7900211811065674,1936.2068140245974,,,,,,,,,,1933.723646827042,1934.2368738874793,1934.220112580806,1934.220112580806,1934.5214592665434,1935.0370228365064,1935.2209385298193,1936.2259333319962,m,0,0.3,0.29826243221759796,,,,,,,,,,,,s001,001,2024-04-10_11h54.28.698,simplestop_skeleton,2022.2.2,59.9271829092568,
$currentCorrectResponse,$currentGoStim,,,,,,,,,0,0,0,0,3,2,14,0,,,,,,,,,1936.2071304768324,go,squareblack.png,m,0.3,,,,,,,,,,,,,,,0.001171652227640152,0.4899250939488411,0.7903364188969135,1938.7098543010652,,,,,,,,,,1936.2259333319962,1936.7395185865462,1936.7228209339082,1936.7228209339082,1937.0234475284815,1937.5225352421403,1937.7235213518143,1938.72842046991,m,0,0.3,0.3905578851699829,,,,,,,,,,,,s001,001,2024-04-10_11h54.28.698,simplestop_skeleton,2022.2.2,59.9271829092568,
None,None,,,,,,,,,0,0,0,0,3,3,15,3,,,,,,,,,1938.7101710475981,stop,squareblack.png,m,0.3,,,,,,,,,,,,,,,0.001276593655347824,0.4897877909243107,0.7899176813662052,1941.2124860398471,,,,,,,,,,1938.72842046991,1939.2421990595758,1939.2258088514209,1939.2258088514209,1939.5264257602394,1940.026071820408,1940.2261970639229,1941.2318252027035,m,0,0.25,0.2927319146692753,,,,,,,,,,,,s001,001,2024-04-10_11h54.28.698,simplestop_skeleton,2022.2.2,59.9271829092568,
None,None,,,,,,,,,0,0,0,0,4,0,16,1,,,,,,,,,1941.2128207795322,go,circleblack.png,z,0.25,,,,,,,,,,,,,,,0.001879572868347168,0.4897806867957115,0.7401889301836491,1943.7155489213765,,,,,,,,,,1941.2318252027035,1941.7451515644789,1941.7283138483763,1941.7283138483763,1941.9788777977228,1942.4778797887266,1942.729022514075,1943.7345644012094,z,0,0.25,0.3220902867615223,,,,,,,,,,,,s001,001,2024-04-10_11h54.28.698,simplestop_skeleton,2022.2.2,59.9271829092568,
None,None,,,,,,,,,0,0,0,0,4,1,17,1,,,,,,,,,1943.7158763036132,stop,squareblack.png,m,0.25,,,,,,,,,,,,,,,0.001723065972328186,0.48950493708252907,0.7387685924768448,1946.2181242443621,,,,,,,,,,1943.7345644012094,1944.2482316046953,1944.2312721014023,1944.2312721014023,1944.4807902425528,1944.9819555021822,1945.2309150919318,1946.2373115718365,m,0,0.2,0.6049500554800034,,,,,,,,,,,,s001,001,2024-04-10_11h54.28.698,simplestop_skeleton,2022.2.2,59.9271829092568,
None,None,,,,,,,,,0,0,0,0,4,2,18,1,,,,,,,,,1946.2184386774898,go,circleblack.png,z,0.2,,,,,,,,,,,,,,,0.0017725303769111633,0.4899809882044792,0.6900503858923912,1948.7207459658384,,,,,,,,,,1946.2373115718365,1946.750506028533,1946.7338444329798,1946.7338444329798,1946.9340628422797,1947.433209206909,1947.7345438934863,1948.7397982515395,z,0,0.2,0.36269646883010864,,,,,,,,,,,,s001,001,2024-04-10_11h54.28.698,simplestop_skeleton,2022.2.2,59.9271829092568,
$currentCorrectResponse,$currentGoStim,,,,,,,,,0,0,0,0,4,3,19,0,,,,,,,,,1948.7210570313036,stop,circleblack.png,z,0.2,,,,,,,,,,,,,,,0.0014657676219940186,0.48991480469703674,0.6899529732763767,1951.2235867008567,,,,,,,,,,1948.7397982515395,1949.253566224128,1949.2366386428475,1949.2366386428475,1949.4367969855666,1949.9360982589424,1950.2371052242815,1951.2424923628569,z,0,0.15,0.35739748552441597,,,,,,,,,,,,s001,001,2024-04-10_11h54.28.698,simplestop_skeleton,2022.2.2,59.9271829092568,
None,None,,,,,,,,,0,0,0,0,5,0,20,2,,,,,,,,,1951.2239059768617,go,squareblack.png,m,0.15,,,,,,,,,,,,,,,0.0016635581851005554,0.4898579753935337,0.6402268595993519,1953.7263048961759,,,,,,,,,,1951.2424923628569,1951.7560209408402,1951.7394504398108,1951.7394504398108,1951.8895613662899,1952.390143852681,1952.7396407797933,1953.7447989881039,m,0,0.15,0.46515416726469994,,,,,,,,,,,,s001,001,2024-04-10_11h54.28.698,simplestop_skeleton,2022.2.2,59.9271829092568,
None,None,,,,,,,,,0,0,0,0,5,1,21,2,,,,,,,,,1953.7266157902777,go,squareblack.png,m,0.15,,,,,,,,,,,,,,,0.001172039657831192,0.48957860842347145,0.6401422470808029,1956.2289585359395,,,,,,,,,,1953.7447989881039,1954.2589745111763,1954.2421417608857,1954.2421417608857,1954.3923127315938,1954.8928492479026,1955.2424556016922,1956.2478584386408,m,0,0.15,0.35955285280942917,,,,,,,,,,,,s001,001,2024-04-10_11h54.28.698,simplestop_skeleton,2022.2.2,59.9271829092568,
None,None,,,,,,,,,0,0,0,0,5,2,22,3,,,,,,,,,1956.2292779125273,go,circleblack.png,z,0.15,,,,,,,,,,,,,,,0.0018094293773174286,0.4899248592555523,0.6399299949407578,1958.7316508032382,,,,,,,,,,1956.2478584386408,1956.7618325464427,1956.7449668869376,1956.7449668869376,1956.895614951849,1957.3956802301109,1957.7455151379108,1958.7503318563104,z,0,0.15,0.5351851359009743,,,,,,,,,,,,s001,001,2024-04-10_11h54.28.698,simplestop_skeleton,2022.2.2,59.9271829092568,
$currentCorrectResponse,$currentGoStim,,,,,,,,,0,0,0,0,5,3,23,0,,,,,,,,,1958.731972221285,go,circleblack.png,z,0.15,,,,,,,,,,,,,,,0.0012390576303005219,0.48990587145090103,0.639831006526947,1961.2345117293298,,,,,,,,,,1958.7503318563104,1959.2643062248826,1959.247630648315,1959.247630648315,1959.397678002715,1959.8983105048537,1960.2482928149402,1961.253161367029,z,0,0.15,0.41732877120375633,,,,,,,,,,,,s001,001,2024-04-10_11h54.28.698,simplestop_skeleton,2022.2.2,59.9271829092568,
None,None,,,,,,,,,0,0,0,0,6,0,24,1,,,,,,,,,1961.2348324283957,stop,circleblack.png,z,0.15,,,,,,,,,,,,,,,0.0012256167829036713,0.4898917078971863,0.6398003362119198,1963.7370399571955,,,,,,,,,,1961.253161367029,1961.7671278454363,1961.750435732305,1961.750435732305,1961.9005291759968,1962.4011383391917,1962.7514180764556,1963.7562285587192,None,1,0.2,,,,,,,,,,,,,s001,001,2024-04-10_11h54.28.698,simplestop_skeleton,2022.2.2,59.9271829092568,
$currentCorrectResponse,$currentGoStim,,,,,,,,,0,0,0,0,6,1,25,0,,,,,,,,,1963.7373546622694,go,squareblack.png,m,0.2,,,,,,,,,,,,,,,0.0016467198729515076,0.4899221770465374,0.6904646046459675,1966.2399739660323,,,,,,,,,,1963.7562285587192,1964.2697758302093,1964.253114309162,1964.253114309162,1964.4533483497798,1964.9537997543812,1965.2535233311355,1966.258485097438,m,0,0.2,0.46830037981271744,,,,,,,,,,,,s001,001,2024-04-10_11h54.28.698,simplestop_skeleton,2022.2.2,59.9271829092568,
None,None,,,,,,,,,0,0,0,0,6,2,26,2,,,,,,,,,1966.2402848675847,stop,squareblack.png,m,0.2,,,,,,,,,,,,,,,0.0011625587940216064,0.4896339140832424,0.6901635117828846,1968.7428168654442,,,,,,,,,,1966.258485097438,1966.7726574726403,1966.755901310593,1966.755901310593,1966.9562302008271,1967.4567367993295,1967.7571201100945,1968.7623772621155,None,1,0.25,,,,,,,,,,,,,s001,001,2024-04-10_11h54.28.698,simplestop_skeleton,2022.2.2,59.9271829092568,
None,None,,,,,,,,,0,0,0,0,6,3,27,1,,,,,,,,,1968.7431329526007,go,circleblack.png,z,0.25,,,,,,,,,,,,,,,0.001913599669933319,0.48964524269104004,0.7399092242121696,1971.2455955669284,,,,,,,,,,1968.7623772621155,1969.275371313095,1969.258629001677,1969.258629001677,1969.5088607743382,1970.009388718754,1970.2592564076185,1971.2640931606293,z,0,0.25,0.4790207967162132,,,,,,,,,,,,s001,001,2024-04-10_11h54.28.698,simplestop_skeleton,2022.2.2,59.9271829092568,
None,None,,,,,,,,,0,0,0,0,7,0,28,2,,,,,,,,,1971.2459211796522,stop,circleblack.png,z,0.25,,,,,,,,,,,,,,,0.0012634992599487305,0.48988115042448044,0.739965308457613,1973.7481508888304,,,,,,,,,,1971.2640931606293,1971.7780571952462,1971.7613922804594,1971.7613922804594,1972.0116785019636,1972.5123829767108,1972.76279457286,1973.7666877992451,None,1,0.3,,,,,,,,,,,,,s001,001,2024-04-10_11h54.28.698,simplestop_skeleton,2022.2.2,59.9271829092568,
None,None,,,,,,,,,0,0,0,0,7,1,29,3,,,,,,,,,1973.7484647408128,stop,squareblack.png,m,0.3,,,,,,,,,,,,,,,0.0016709528863430023,0.4900175780057907,0.7902166284620762,1976.2510657459497,,,,,,,,,,1973.7666877992451,1974.2807907238603,1974.2641579024494,1974.2641579024494,1974.5646679401398,1975.0651030018926,1975.2641143724322,1976.270000923425,m,0,0.25,0.5803170427680016,,,,,,,,,,,,s001,001,2024-04-10_11h54.28.698,simplestop_skeleton,2022.2.2,59.9271829092568,
None,None,,,,,,,,,0,0,0,0,7,2,30,3,,,,,,,,,1976.2513887695968,go,circleblack.png,z,0.25,,,,,,,,,,,,,,,0.0016946718096733093,0.4901244714856148,0.7404842004179955,1978.7538335062563,,,,,,,,,,1976.270000923425,1976.78383141011,1976.7670631557703,1976.7670631557703,1977.017460398376,1977.5330254659057,1977.7673105932772,1978.7727588750422,z,0,0.25,0.41435180604457855,,,,,,,,,,,,s001,001,2024-04-10_11h54.28.698,simplestop_skeleton,2022.2.2,59.9271829092568,
$currentCorrectResponse,$currentGoStim,,,,,,,,,0,0,0,0,7,3,31,0,,,,,,,,,1978.7541636116803,go,squareblack.png,m,0.25,,,,,,,,,,,,,,,0.0016097724437713623,0.4897925816476345,0.738727405667305,1981.2566799372435,,,,,,,,,,1978.7727588750422,1979.2863962128758,1979.2696540094912,1979.2696540094912,1979.5186328329146,1980.0192082934082,1980.270197659731,1981.2755308188498,m,0,0.25,0.4760560281574726,,,,,,,,,,,,s001,001,2024-04-10_11h54.28.698,simplestop_skeleton,2022.2.2,59.9271829092568,
$currentCorrectResponse,$currentGoStim,,,,,,,,,0,0,0,0,8,0,32,0,,,,,,,,,1981.2570106200874,go,circleblack.png,z,0.25,,,,,,,,,,,,,,,0.0017346292734146118,0.48980553448200226,0.7401352114975452,1983.7595188319683,,,,,,,,,,1981.2755308188498,1981.7891964800656,1981.7727789282799,1981.7727789282799,1982.022978398949,1982.5221432633698,1982.7728867828846,1983.7786840163171,z,0,0.25,0.4549877792596817,,,,,,,,,,,,s001,001,2024-04-10_11h54.28.698,simplestop_skeleton,2022.2.2,59.9271829092568,
None,None,,,,,,,,,0,0,0,0,8,1,33,1,,,,,,,,,1983.7598429322243,go,squareblack.png,m,0.25,,,,,,,,,,,,,,,0.0016464665532112122,0.4897129386663437,0.7396158874034882,1986.2620452605188,,,,,,,,,,1983.7786840163171,1984.2922584712505,1984.275454327464,1984.275454327464,1984.5256196409464,1985.0247922986746,1985.2760335877538,1986.2810626588762,m,0,0.25,0.3959958888590336,,,,,,,,,,,,s001,001,2024-04-10_11h54.28.698,simplestop_skeleton,2022.2.2,59.9271829092568,
None,None,,,,,,,,,0,0,0,0,8,2,34,1,,,,,,,,,1986.2623522132635,go,circleblack.png,z,0.25,,,,,,,,,,,,,,,0.001696210354566574,0.4899413324892521,0.7403394915163517,1988.7654162235558,,,,,,,,,,1986.2810626588762,1986.7947992384434,1986.778283007443,1986.778283007443,1987.0287851952016,1987.5288415774703,1987.7788513153791,1988.7844730652869,z,0,0.25,0.5413070283830166,,,,,,,,,,,,s001,001,2024-04-10_11h54.28.698,simplestop_skeleton,2022.2.2,59.9271829092568,
$currentCorrectResponse,$currentGoStim,,,,,,,,,0,0,0,0,8,3,35,0,,,,,,,,,1988.7657454162836,go,squareblack.png,m,0.25,,,,,,,,,,,,,,,0.0018208548426628113,0.4892571456730366,0.739719282835722,1991.2675515972078,,,,,,,,,,1988.7844730652869,1989.2976859807968,1989.2806915789843,1989.2806915789843,1989.5310847237706,1990.0316115170717,1990.2815329283476,1991.2860458157957,m,0,0.25,0.48047811537981033,,,,,,,,,,,,s001,001,2024-04-10_11h54.28.698,simplestop_skeleton,2022.2.2,59.9271829092568,
None,None,,,,,,,,,0,0,0,0,9,0,36,3,,,,,,,,,1991.2678693123162,go,squareblack.png,m,0.25,,,,,,,,,,,,,,,0.0011711232364177704,0.4899906516075134,0.7402879521250725,1993.7705149576068,,,,,,,,,,1991.2860458157957,1991.8003943152726,1991.7835663743317,1991.7835663743317,1992.0337750948966,1992.5329577885568,1992.7841030694544,1993.7889014668763,m,0,0.25,0.4139188230037689,,,,,,,,,,,,s001,001,2024-04-10_11h54.28.698,simplestop_skeleton,2022.2.2,59.9271829092568,
None,None,,,,,,,,,0,0,0,0,9,1,37,1,,,,,,,,,1993.7708302401006,go,squareblack.png,m,0.25,,,,,,,,,,,,,,,0.0012396164238452911,0.4899618923664093,0.7401473745703697,1996.2729770727456,,,,,,,,,,1993.7889014668763,1994.303180705756,1994.2865199930966,1994.2865199930966,1994.5368267334998,1995.035766530782,1995.2869462706149,1996.2914603613317,m,0,0.25,0.43842633813619614,,,,,,,,,,,,s001,001,2024-04-10_11h54.28.698,simplestop_skeleton,2022.2.2,59.9271829092568,
None,None,,,,,,,,,0,0,0,0,9,2,38,3,,,,,,,,,1996.273285921663,stop,squareblack.png,m,0.25,,,,,,,,,,,,,,,0.001194581389427185,0.4900967702269554,0.7406156659126282,1998.7757971175015,,,,,,,,,,1996.2914603613317,1996.8058122582734,1996.7895580381155,1996.7895580381155,1997.0395580381155,1997.5399667210877,1997.7905552759767,1998.7949247732759,None,1,0.3,,,,,,,,,,,,,s001,001,2024-04-10_11h54.28.698,simplestop_skeleton,2022.2.2,59.9271829092568,
None,None,,,,,,,,,0,0,0,0,9,3,39,2,,,,,,,,,1998.7761278003454,stop,circleblack.png,z,0.3,,,,,,,,,,,,,,,0.001819804310798645,0.4899072162806988,0.7903557308018208,2001.2785150706768,,,,,,,,,,1998.7949247732759,1999.3084679432213,1999.291827403009,1999.291827403009,1999.5921931751072,2000.0926880016923,2000.29293326661,2001.297462310642,None,1,0.35,,,,,,,,,,,,,s001,001,2024-04-10_11h54.28.698,simplestop_skeleton,2022.2.2,59.9271829092568,
None,None,,,,,,,,,0,0,0,0,10,0,40,1,,,,,,,,,2001.2788293249905,go,squareblack.png,m,0.35,,,,,,,,,,,,,,,0.0016929954290390015,0.4899907782673836,0.8404000252485275,2003.7815144397318,,,,,,,,,,2001.297462310642,2001.8113848119974,2001.7948893159628,2001.7948893159628,2002.1450004130602,2002.6442178748548,2002.7951356880367,2003.8005268834531,m,0,0.35,0.423439335078001,,,,,,,,,,,,s001,001,2024-04-10_11h54.28.698,simplestop_skeleton,2022.2.2,59.9271829092568,
None,None,,,,,,,,,0,0,0,0,10,1,41,3,,,,,,,,,2003.7818380706012,go,circleblack.png,z,0.35,,,,,,,,,,,,,,,0.0017473362386226654,0.4898138754069805,0.8401985540986061,2006.2841605246067,,,,,,,,,,2003.8005268834531,2004.3142136521637,2004.2976756989956,2004.2976756989956,2004.6478123813868,2005.1642026789486,2005.297955494374,2006.3027684651315,z,0,0.35,0.48479439318180084,,,,,,,,,,,,s001,001,2024-04-10_11h54.28.698,simplestop_skeleton,2022.2.2,59.9271829092568,
None,None,,,,,,,,,0,0,0,0,10,2,42,1,,,,,,,,,2006.2844748087227,stop,circleblack.png,z,0.35,,,,,,,,,,,,,,,0.00128878653049469,0.48996079713106155,0.8401491604745388,2008.7870445474982,,,,,,,,,,2006.3027684651315,2006.8169154115021,2006.800060685724,2006.800060685724,2007.1509262658656,2007.6668728329241,2007.8007201850414,2008.8055157363415,z,0,0.3,0.501645814627409,,,,,,,,,,,,s001,001,2024-04-10_11h54.28.698,simplestop_skeleton,2022.2.2,59.9271829092568,
None,None,,,,,,,,,0,0,0,0,10,3,43,2,,,,,,,,,2008.7873664163053,go,circleblack.png,z,0.3,,,,,,,,,,,,,,,0.0012324042618274689,0.49010613188147545,0.7903681993484497,2011.289708647877,,,,,,,,,,2008.8055157363415,2009.3197155296803,2009.303056385368,2009.303056385368,2009.603467989713,2010.1038802862167,2010.3034076206386,2011.3086544685066,z,0,0.3,0.5178205408155918,,,,,,,,,,,,s001,001,2024-04-10_11h54.28.698,simplestop_skeleton,2022.2.2,59.9271829092568,
None,None,,,,,,,,,0,0,0,0,11,0,44,3,,,,,,,,,2011.2900420352817,stop,squareblack.png,m,0.3,,,,,,,,,,,,,,,0.001673821359872818,0.4900771714746952,0.790166474878788,2013.7925103865564,,,,,,,,,,2011.3086544685066,2011.8223041854799,2011.8058279566467,2011.8058279566467,2012.1062695793808,2012.605470892042,2012.805289234966,2013.8117100559175,m,0,0.25,0.39188196510076523,,,,,,,,,,,,s001,001,2024-04-10_11h54.28.698,simplestop_skeleton,2022.2.2,59.9271829092568,
$currentCorrectResponse,$currentGoStim,,,,,,,,,0,0,0,0,11,1,45,0,,,,,,,,,2013.7928198203444,go,circleblack.png,z,0.25,,,,,,,,,,,,,,,0.0018055364489555359,0.4896142818033695,0.7399516962468624,2016.2950927764177,,,,,,,,,,2013.8117100559175,2014.3252818323672,2014.3084895424545,2014.3084895424545,2014.5588229447603,2015.0596818327904,2015.308176305145,2016.3139010034502,z,0,0.25,0.5676218084990978,,,,,,,,,,,,s001,001,2024-04-10_11h54.28.698,simplestop_skeleton,2022.2.2,59.9271829092568,
None,None,,,,,,,,,0,0,0,0,11,2,46,2,,,,,,,,,2016.295406833291,go,squareblack.png,m,0.25,,,,,,,,,,,,,,,0.0017092414200305939,0.4900289811193943,0.7403688877820969,2018.7980217151344,,,,,,,,,,2016.3139010034502,2016.8281659595668,2016.8111993409693,2016.8111993409693,2017.061540786177,2017.5619656033814,2017.8118091709912,2018.8171978220344,m,0,0.25,0.5150789991021156,,,,,,,,,,,,s001,001,2024-04-10_11h54.28.698,simplestop_skeleton,2022.2.2,59.9271829092568,
None,None,,,,,,,,,0,0,0,0,11,3,47,2,,,,,,,,,2018.7983487285674,go,circleblack.png,z,0.25,,,,,,,,,,,,,,,0.0017930008471012115,0.48983103036880493,0.7401249259710312,2021.3006547428668,,,,,,,,,,2018.8171978220344,2019.33074195683,2019.3138245865703,2019.3138245865703,2019.5642697401345,2020.064960718155,2020.3144094608724,2021.3282636329532,z,0,0.25,0.5180573277175426,,,,,,,,,,,,s001,001,2024-04-10_11h54.28.698,simplestop_skeleton,2022.2.2,59.9271829092568,
,,,,,,,,,,0,0,0,0,,,,,,,,,,,,,,,,,,,,,,,,,,,,,,,,,,,,,,,,,,,,,,,,,,,,,,,,,"[{'fileName': 'squareblack.png', 'correct_response': 'm', 'condition': 'go'}, {'fileName': 'squareblack.png', 'correct_response': 'm', 'condition': 'go'}, {'fileName': 'squareblack.png', 'correct_response': 'm', 'condition': 'go'}, {'fileName': 'circleblack.png', 'correct_response': 'z', 'condition': 'stop'}, {'fileName': 'squareblack.png', 'correct_response': 'm', 'condition': 'stop'}, {'fileName': 'circleblack.png', 'correct_response': 'z', 'condition': 'stop'}, {'fileName': 'squareblack.png', 'correct_response': 'm', 'condition': 'go'}, {'fileName': 'circleblack.png', 'correct_response': 'z', 'condition': 'go'}, {'fileName': 'squareblack.png', 'correct_response': 'm', 'condition': 'stop'}, {'fileName': 'circleblack.png', 'correct_response': 'z', 'condition': 'go'}, {'fileName': 'circleblack.png', 'correct_response': 'z', 'condition': 'go'}, {'fileName': 'circleblack.png', 'correct_response': 'z', 'condition': 'go'}, {'fileName': 'squareblack.png', 'correct_response': 'm', 'condition': 'stop'}, {'fileName': 'squareblack.png', 'correct_response': 'm', 'condition': 'go'}, {'fileName': 'squareblack.png', 'correct_response': 'm', 'condition': 'go'}, {'fileName': 'circleblack.png', 'correct_response': 'z', 'condition': 'go'}, {'fileName': 'circleblack.png', 'correct_response': 'z', 'condition': 'go'}, {'fileName': 'circleblack.png', 'correct_response': 'z', 'condition': 'go'}, {'fileName': 'circleblack.png', 'correct_response': 'z', 'condition': 'stop'}, {'fileName': 'squareblack.png', 'correct_response': 'm', 'condition': 'go'}, {'fileName': 'squareblack.png', 'correct_response': 'm', 'condition': 'stop'}, {'fileName': 'circleblack.png', 'correct_response': 'z', 'condition': 'stop'}, {'fileName': 'squareblack.png', 'correct_response': 'm', 'condition': 'go'}, {'fileName': 'circleblack.png', 'correct_response': 'z', 'condition': 'go'}, {'fileName': 'squareblack.png', 'correct_response': 'm', 'condition': 'go'}, {'fileName': 'circleblack.png', 'correct_response': 'z', 'condition': 'go'}, {'fileName': 'circleblack.png', 'correct_response': 'z', 'condition': 'stop'}, {'fileName': 'circleblack.png', 'correct_response': 'z', 'condition': 'go'}, {'fileName': 'squareblack.png', 'correct_response': 'm', 'condition': 'go'}, {'fileName': 'squareblack.png', 'correct_response': 'm', 'condition': 'go'}, {'fileName': 'squareblack.png', 'correct_response': 'm', 'condition': 'stop'}, {'fileName': 'circleblack.png', 'correct_response': 'z', 'condition': 'go'}, {'fileName': 'circleblack.png', 'correct_response': 'z', 'condition': 'stop'}, {'fileName': 'squareblack.png', 'correct_response': 'm', 'condition': 'stop'}, {'fileName': 'squareblack.png', 'correct_response': 'm', 'condition': 'go'}, {'fileName': 'circleblack.png', 'correct_response': 'z', 'condition': 'go'}, {'fileName': 'squareblack.png', 'correct_response': 'm', 'condition': 'go'}, {'fileName': 'squareblack.png', 'correct_response': 'm', 'condition': 'go'}, {'fileName': 'circleblack.png', 'correct_response': 'z', 'condition': 'go'}, {'fileName': 'circleblack.png', 'correct_response': 'z', 'condition': 'go'}, {'fileName': 'circleblack.png', 'correct_response': 'z', 'condition': 'go'}, {'fileName': 'circleblack.png', 'correct_response': 'z', 'condition': 'go'}, {'fileName': 'squareblack.png', 'correct_response': 'm', 'condition': 'stop'}, {'fileName': 'squareblack.png', 'correct_response': 'm', 'condition': 'go'}, {'fileName': 'circleblack.png', 'correct_response': 'z', 'condition': 'stop'}, {'fileName': 'squareblack.png', 'correct_response': 'm', 'condition': 'stop'}, {'fileName': 'squareblack.png', 'correct_response': 'm', 'condition': 'go'}, {'fileName': 'circleblack.png', 'correct_response': 'z', 'condition': 'stop'}]",2021.3282636329532,2021.3282636329532,return,6.779169425368309,,,,,,,s001,001,2024-04-10_11h54.28.698,simplestop_skeleton,2022.2.2,59.9271829092568,
None,None,,,,,,,,,1,0,1,0,0,0,0,2,,,,,,,,,2028.1171687692404,go,squareblack.png,m,0.25,,,,,,,,,,,,,,,0.0017526373267173767,0.49635881930589676,0.7470686137676239,2030.6281575970352,,,,,,,,,,2028.1365926265717,2028.640269573778,2028.640269573778,2028.640269573778,2028.8913796767592,2029.3919247202575,2029.6422415412962,2030.646924559027,m,0,0.25,0.5690356977283955,,,,,,,,,,,,s001,001,2024-04-10_11h54.28.698,simplestop_skeleton,2022.2.2,59.9271829092568,
None,None,,,,,,,,,1,0,1,0,0,1,1,3,,,,,,,,,2030.628487918526,go,squareblack.png,m,0.25,,,,,,,,,,,,,,,0.0012991838157176971,0.4894525483250618,0.739671528339386,2033.1303491815925,,,,,,,,,,2030.646924559027,2031.1603022515774,2031.1436226330698,2031.1436226330698,2031.3940320909023,2031.8930452167988,2032.1444754749537,2033.1486304476857,m,0,0.25,0.32300902903079987,,,,,,,,,,,,s001,001,2024-04-10_11h54.28.698,simplestop_skeleton,2022.2.2,59.9271829092568,
$currentCorrectResponse,$currentGoStim,,,,,,,,,1,0,1,0,0,2,2,0,,,,,,,,,2033.1306681670249,go,squareblack.png,m,0.25,,,,,,,,,,,,,,,0.0011783726513385773,0.48982706293463707,0.7400591783225536,2035.6333274058998,,,,,,,,,,2033.1486304476857,2033.6628789231181,2033.6465695127845,2033.6465695127845,2033.8966658972204,2034.3978207707405,2034.6465317048132,2035.6523185111582,m,0,0.25,0.3509434908628464,,,,,,,,,,,,s001,001,2024-04-10_11h54.28.698,simplestop_skeleton,2022.2.2,59.9271829092568,
None,None,,,,,,,,,1,0,1,0,0,3,3,2,,,,,,,,,2035.6336359120905,stop,circleblack.png,z,0.25,,,,,,,,,,,,,,,0.0018196851015090942,0.4897884279489517,0.7401384264230728,2038.1360688358545,,,,,,,,,,2035.6523185111582,2036.1656915284693,2036.1490456685424,2036.1490456685424,2036.3993433192372,2036.8999309204519,2037.1501783877611,2038.154757551849,None,1,0.3,,,,,,,,,,,,,s001,001,2024-04-10_11h54.28.698,simplestop_skeleton,2022.2.2,59.9271829092568,
None,None,,,,,,,,,1,0,1,0,1,0,4,1,,,,,,,,,2038.136389248073,stop,squareblack.png,m,0.3,,,,,,,,,,,,,,,0.0016748793423175812,0.4899113029241562,0.790370762348175,2040.6390796154737,,,,,,,,,,2038.154757551849,2038.6687302216887,2038.652015760541,2038.652015760541,2038.9524566046894,2039.471084780991,2039.6523720361292,2040.6580153107643,m,0,0.25,0.4229120761156082,,,,,,,,,,,,s001,001,2024-04-10_11h54.28.698,simplestop_skeleton,2022.2.2,59.9271829092568,
None,None,,,,,,,,,1,0,1,0,1,1,5,3,,,,,,,,,2040.6393985897303,stop,circleblack.png,z,0.25,,,,,,,,,,,,,,,0.0017160214483737946,0.4897891655564308,0.7401353344321251,2043.1418851315975,,,,,,,,,,2040.6580153107643,2041.1713171899319,2041.1546875275671,2041.1546875275671,2041.40497790277,2041.905075993389,2042.1553556397557,2043.1608003079891,z,0,0.2,0.37661387771368027,,,,,,,,,,,,s001,001,2024-04-10_11h54.28.698,simplestop_skeleton,2022.2.2,59.9271829092568,
None,None,,,,,,,,,1,0,1,0,1,2,6,2,,,,,,,,,2043.1422238498926,go,squareblack.png,m,0.2,,,,,,,,,,,,,,,0.0016547106206417084,0.48940203338861465,0.6895549967885017,2045.6441043801606,,,,,,,,,,2043.1608003079891,2043.6744983680546,2043.6576000154018,2043.6576000154018,2043.8578481338918,2044.3582905754447,2044.6583242230117,2045.6630602441728,m,0,0.2,0.5293866917490959,,,,,,,,,,,,s001,001,2024-04-10_11h54.28.698,simplestop_skeleton,2022.2.2,59.9271829092568,
$currentCorrectResponse,$currentGoStim,,,,,,,,,1,0,1,0,1,3,7,0,,,,,,,,,2045.6444165110588,go,circleblack.png,z,0.2,,,,,,,,,,,,,,,0.0017634592950344086,0.490265391767025,0.690611444413662,2048.146877884865,,,,,,,,,,2045.6630602441728,2046.177016183734,2046.1602840460837,2046.1602840460837,2046.3605774827302,2046.859570313245,2047.1611300595105,2048.166097369045,z,0,0.2,0.32532579079270363,,,,,,,,,,,,s001,001,2024-04-10_11h54.28.698,simplestop_skeleton,2022.2.2,59.9271829092568,
None,None,,,,,,,,,1,0,1,0,2,0,8,3,,,,,,,,,2048.1472058854997,stop,squareblack.png,m,0.2,,,,,,,,,,,,,,,0.0018458925187587738,0.4901205748319626,0.6902873627841473,2050.650081500411,,,,,,,,,,2048.166097369045,2048.679874997586,2048.6629090867937,2048.6629090867937,2048.8631567955017,2049.363007325679,2049.664149746299,2050.669154394418,None,1,0.25,,,,,,,,,,,,,s001,001,2024-04-10_11h54.28.698,simplestop_skeleton,2022.2.2,59.9271829092568,
None,None,,,,,,,,,1,0,1,0,2,1,9,1,,,,,,,,,2050.6504062376916,go,circleblack.png,z,0.25,,,,,,,,,,,,,,,0.0018852688372135162,0.4892965108156204,0.7398473247885704,2053.1525558903813,,,,,,,,,,2050.669154394418,2051.1823452450335,2051.1655768193305,2051.1655768193305,2051.415975239128,2051.9164427518845,2052.1654375605285,2053.1710041202605,z,0,0.25,0.5928401872515678,,,,,,,,,,,,s001,001,2024-04-10_11h54.28.698,simplestop_skeleton,2022.2.2,59.9271829092568,
None,None,,,,,,,,,1,0,1,0,2,2,10,3,,,,,,,,,2053.1528798751533,go,circleblack.png,z,0.25,,,,,,,,,,,,,,,0.001238364726305008,0.48968762159347534,0.7399711608886719,2055.6551142297685,,,,,,,,,,2053.1710041202605,2053.6851790621877,2053.668383847922,2053.668383847922,2053.9185572639108,2054.418932043016,2054.669534418732,2055.6725726909935,z,0,0.25,0.5099167861044407,,,,,,,,,,,,s001,001,2024-04-10_11h54.28.698,simplestop_skeleton,2022.2.2,59.9271829092568,
None,None,,,,,,,,,1,0,1,0,2,3,11,1,,,,,,,,,2055.655423179269,go,circleblack.png,z,0.25,,,,,,,,,,,,,,,0.0012319870293140411,0.48999572172760963,0.7403288930654526,2058.1583923585713,,,,,,,,,,2055.6725726909935,2056.187756933272,2056.171151112765,2056.171151112765,2056.421332448721,2056.9219300746918,2057.172290749848,2058.177076410502,z,0,0.25,0.7533493004739285,,,,,,,,,,,,s001,001,2024-04-10_11h54.28.698,simplestop_skeleton,2022.2.2,59.9271829092568,
None,None,,,,,,,,,1,0,1,0,3,0,12,1,,,,,,,,,2058.1586999595165,stop,squareblack.png,m,0.25,,,,,,,,,,,,,,,0.0016395598649978638,0.4897434487938881,0.7400618232786655,2060.6606760658324,,,,,,,,,,2058.177076410502,2058.6910035014153,2058.673948753625,2058.673948753625,2058.924338981509,2059.4249958470464,2059.675371263176,2060.67913396284,None,1,0.3,,,,,,,,,,,,,s001,001,2024-04-10_11h54.28.698,simplestop_skeleton,2022.2.2,59.9271829092568,
None,None,,,,,,,,,1,0,1,0,3,1,13,1,,,,,,,,,2060.660993874073,go,squareblack.png,m,0.3,,,,,,,,,,,,,,,0.0011757351458072662,0.4901038184762001,0.790598277002573,2063.1636421084404,,,,,,,,,,2060.67913396284,2061.193607840687,2061.1770709753036,2061.1770709753036,2061.477513987571,2061.993138000369,2062.1774782948196,2063.1821455433965,m,0,0.3,0.4741339348256588,,,,,,,,,,,,s001,001,2024-04-10_11h54.28.698,simplestop_skeleton,2022.2.2,59.9271829092568,
None,None,,,,,,,,,1,0,1,0,3,2,14,1,,,,,,,,,2063.163961146027,go,squareblack.png,m,0.3,,,,,,,,,,,,,,,0.0011767745018005371,0.4898189827799797,0.7901664637029171,2065.6662388406694,,,,,,,,,,2063.1821455433965,2063.6965526640415,2063.6796674206853,2063.6796674206853,2063.979902520776,2064.479013171047,2064.680171210319,2065.6855010800064,m,0,0.3,0.4678283669054508,,,,,,,,,,,,s001,001,2024-04-10_11h54.28.698,simplestop_skeleton,2022.2.2,59.9271829092568,
None,None,,,,,,,,,1,0,1,0,3,3,15,3,,,,,,,,,2065.6665588393807,go,circleblack.png,z,0.3,,,,,,,,,,,,,,,0.0018199458718299866,0.4899386987090111,0.7902496084570885,2068.168951228261,,,,,,,,,,2065.6855010800064,2066.1990775316954,2066.1825289726257,2066.1825289726257,2066.4827831983566,2066.998440723866,2067.1826235055923,2068.187921434641,z,0,0.3,0.4549155868589878,,,,,,,,,,,,s001,001,2024-04-10_11h54.28.698,simplestop_skeleton,2022.2.2,59.9271829092568,
None,None,,,,,,,,,1,0,1,0,4,0,16,2,,,,,,,,,2068.169265806675,go,circleblack.png,z,0.3,,,,,,,,,,,,,,,0.0013316534459590912,0.49002470448613167,0.7903577052056789,2070.6716860234737,,,,,,,,,,2068.187921434641,2068.70173009485,2068.6849498152733,2068.6849498152733,2068.98540642485,2069.485890686512,2069.686120737344,2070.690440900624,z,0,0.3,0.7283742241561413,,,,,,,,,,,,s001,001,2024-04-10_11h54.28.698,simplestop_skeleton,2022.2.2,59.9271829092568,
None,None,,,,,,,,,1,0,1,0,4,1,17,2,,,,,,,,,2070.672000195831,go,circleblack.png,z,0.3,,,,,,,,,,,,,,,0.0012219175696372986,0.4900093115866184,0.7904217354953289,2073.1747099496424,,,,,,,,,,2070.690440900624,2071.2045112922788,2071.1877943985164,2071.1877943985164,2071.488185491413,2071.988645605743,2072.18735729903,2073.1933785378933,z,0,0.3,0.5618427842855453,,,,,,,,,,,,s001,001,2024-04-10_11h54.28.698,simplestop_skeleton,2022.2.2,59.9271829092568,
None,None,,,,,,,,,1,0,1,0,4,2,18,3,,,,,,,,,2073.175025846809,stop,circleblack.png,z,0.3,,,,,,,,,,,,,,,0.001346241682767868,0.4896812327206135,0.7900928817689419,2075.6775454729795,,,,,,,,,,2073.1933785378933,2073.7073340453207,2073.6907236538827,2073.6907236538827,2073.990905292332,2074.4922373481095,2074.6910580918193,2075.6962264217436,z,0,0.25,0.40575872361660004,,,,,,,,,,,,s001,001,2024-04-10_11h54.28.698,simplestop_skeleton,2022.2.2,59.9271829092568,
None,None,,,,,,,,,1,0,1,0,4,3,19,3,,,,,,,,,2075.6778573468328,go,squareblack.png,m,0.25,,,,,,,,,,,,,,,0.0016651302576065063,0.4897063709795475,0.7399303838610649,2078.1809870041907,,,,,,,,,,2075.6962264217436,2076.209970705211,2076.1933474093676,2076.1933474093676,2076.443520631641,2076.942910693586,2077.1936977244914,2078.1995786577463,m,0,0.25,0.28435513004660606,,,,,,,,,,,,s001,001,2024-04-10_11h54.28.698,simplestop_skeleton,2022.2.2,59.9271829092568,
None,None,,,,,,,,,1,0,1,0,5,0,20,2,,,,,,,,,2078.181520011276,stop,squareblack.png,m,0.25,,,,,,,,,,,,,,,0.0015252269804477692,0.48888272047042847,0.7389845810830593,2080.6827676035464,,,,,,,,,,2078.1995786577463,2078.7127316221595,2078.6962388828397,2078.6962388828397,2078.9463574178517,2079.4455701224506,2079.6963798478246,2080.7016108632088,m,0,0.2,0.3093144819140434,,,,,,,,,,,,s001,001,2024-04-10_11h54.28.698,simplestop_skeleton,2022.2.2,59.9271829092568,
$currentCorrectResponse,$currentGoStim,,,,,,,,,1,0,1,0,5,1,21,0,,,,,,,,,2080.6830931156874,stop,circleblack.png,z,0.2,,,,,,,,,,,,,,,0.001808125525712967,0.48982642963528633,0.6902473419904709,2083.185599900782,,,,,,,,,,2080.7016108632088,2081.215808570385,2081.1990507505834,2081.1990507505834,2081.3991574309766,2081.8993953056633,2082.199881900102,2083.2044903822243,None,0,0.25,,,,,,,,,,,,,s001,001,2024-04-10_11h54.28.698,simplestop_skeleton,2022.2.2,59.9271829092568,
None,None,,,,,,,,,1,0,1,0,5,2,22,1,,,,,,,,,2083.185918107629,go,squareblack.png,m,0.25,,,,,,,,,,,,,,,0.0016942471265792847,0.48993606120347977,0.7400815337896347,2085.6884040907025,,,,,,,,,,2083.2044903822243,2083.7184459790587,2083.7018478810787,2083.7018478810787,2083.9522012136877,2084.4676865190268,2084.702290907502,2085.7072897404432,m,0,0.25,0.4685883894562721,,,,,,,,,,,,s001,001,2024-04-10_11h54.28.698,simplestop_skeleton,2022.2.2,59.9271829092568,
$currentCorrectResponse,$currentGoStim,,,,,,,,,1,0,1,0,5,3,23,0,,,,,,,,,2085.6887268424034,go,circleblack.png,z,0.25,,,,,,,,,,,,,,,0.0017329007387161255,0.49023672565817833,0.7404594495892525,2088.1911787092686,,,,,,,,,,2085.7072897404432,2086.2211057692766,2086.2044696062803,2086.2044696062803,2086.454705171287,2086.953929003328,2087.204763263464,2088.2099650129676,m,0,0.25,0.2958909720182419,,,,,,,,,,,,s001,001,2024-04-10_11h54.28.698,simplestop_skeleton,2022.2.2,59.9271829092568,
None,None,,,,,,,,,1,0,1,0,6,0,24,1,,,,,,,,,2088.191496718675,go,squareblack.png,m,0.25,,,,,,,,,,,,,,,0.0016615092754364014,0.4898853562772274,0.7401585206389427,2090.694029249251,,,,,,,,,,2088.2099650129676,2088.723789706826,2088.7072739601135,2088.7072739601135,2088.957506928593,2089.456509269774,2089.7081973031163,2090.7129081487656,m,0,0.25,0.42644916474819183,,,,,,,,,,,,s001,001,2024-04-10_11h54.28.698,simplestop_skeleton,2022.2.2,59.9271829092568,
None,None,,,,,,,,,1,0,1,0,6,1,25,2,,,,,,,,,2090.6943367496133,go,circleblack.png,z,0.25,,,,,,,,,,,,,,,0.0017103105783462524,0.48987193778157234,0.740097664296627,2093.1969971582294,,,,,,,,,,2090.7129081487656,2091.226904798299,2091.2098991647363,2091.2098991647363,2091.460285924375,2091.960020907223,2092.210612487048,2093.215237237513,z,0,0.25,0.3678934574127197,,,,,,,,,,,,s001,001,2024-04-10_11h54.28.698,simplestop_skeleton,2022.2.2,59.9271829092568,
None,None,,,,,,,,,1,0,1,0,6,2,26,1,,,,,,,,,2093.1973078027368,stop,circleblack.png,z,0.25,,,,,,,,,,,,,,,0.0012285411357879639,0.4892552010715008,0.7401174046099186,2095.6997691355646,,,,,,,,,,2093.215237237513,2093.7289638854563,2093.7122508734465,2093.7122508734465,2093.963106740266,2094.4787418097258,2094.712963797152,2095.718263603747,z,0,0.2,0.3986842855811119,,,,,,,,,,,,s001,001,2024-04-10_11h54.28.698,simplestop_skeleton,2022.2.2,59.9271829092568,
$currentCorrectResponse,$currentGoStim,,,,,,,,,1,0,1,0,6,3,27,0,,,,,,,,,2095.700076919049,go,circleblack.png,z,0.2,,,,,,,,,,,,,,,0.0013664327561855316,0.4896245039999485,0.6897075213491917,2098.20224481076,,,,,,,,,,2095.718263603747,2096.2322251945734,2096.215412668884,2096.215412668884,2096.4158272966743,2096.916288487613,2097.2161240428686,2098.221175201237,z,0,0.2,0.4738490842282772,,,,,,,,,,,,s001,001,2024-04-10_11h54.28.698,simplestop_skeleton,2022.2.2,59.9271829092568,
None,None,,,,,,,,,1,0,1,0,7,0,28,2,,,,,,,,,2098.20257204026,go,squareblack.png,m,0.2,,,,,,,,,,,,,,,0.0016431435942649841,0.49001337587833405,0.6902740001678467,2100.704812772572,,,,,,,,,,2098.221175201237,2098.7347865477204,2098.7182060666382,2098.7182060666382,2098.9182226471603,2099.417518660426,2099.7186614982784,2100.723290655762,m,0,0.2,0.36879516392946243,,,,,,,,,,,,s001,001,2024-04-10_11h54.28.698,simplestop_skeleton,2022.2.2,59.9271829092568,
None,None,,,,,,,,,1,0,1,0,7,1,29,2,,,,,,,,,2100.7051204927266,go,squareblack.png,m,0.2,,,,,,,,,,,,,,,0.001180063933134079,0.49047375470399857,0.6902788244187832,2103.2078657485545,,,,,,,,,,2100.723290655762,2101.23758995533,2101.221172209829,2101.221172209829,2101.4211382567883,2101.92027823627,2102.2217536084354,2103.2264561727643,m,0,0.2,0.3402871750295162,,,,,,,,,,,,s001,001,2024-04-10_11h54.28.698,simplestop_skeleton,2022.2.2,59.9271829092568,
$currentCorrectResponse,$currentGoStim,,,,,,,,,1,0,1,0,7,2,30,0,,,,,,,,,2103.208178643137,stop,squareblack.png,m,0.2,,,,,,,,,,,,,,,0.001165870577096939,0.4899389147758484,0.6900855824351311,2105.710525881499,,,,,,,,,,2103.2264561727643,2103.740420062095,2103.723883472383,2103.723883472383,2103.923935160041,2104.4246612638235,2104.7248014882207,2105.729712896049,None,0,0.25,,,,,,,,,,,,,s001,001,2024-04-10_11h54.28.698,simplestop_skeleton,2022.2.2,59.9271829092568,
None,None,,,,,,,,,1,0,1,0,7,3,31,3,,,,,,,,,2105.7108361050487,go,circleblack.png,z,0.25,,,,,,,,,,,,,,,0.001898452639579773,0.48989902064204216,0.7400666177272797,2108.213092904538,,,,,,,,,,2105.729712896049,2106.243222594261,2106.226537387818,2106.226537387818,2106.4770296104252,2106.9774531126022,2107.227258078754,2108.231365300715,z,0,0.25,0.5220816396176815,,,,,,,,,,,,s001,001,2024-04-10_11h54.28.698,simplestop_skeleton,2022.2.2,59.9271829092568,
None,None,,,,,,,,,1,0,1,0,8,0,32,1,,,,,,,,,2108.213413156569,stop,circleblack.png,z,0.25,,,,,,,,,,,,,,,0.0013033635914325714,0.49006614834070206,0.7402779757976532,2110.7158256284893,,,,,,,,,,2108.231365300715,2108.7460744567215,2108.729025069624,2108.729025069624,2108.9795159362257,2109.4799917787313,2109.7302921153605,2110.7347857430577,None,1,0.3,,,,,,,,,,,,,s001,001,2024-04-10_11h54.28.698,simplestop_skeleton,2022.2.2,59.9271829092568,
None,None,,,,,,,,,1,0,1,0,8,1,33,2,,,,,,,,,2110.716135609895,stop,squareblack.png,m,0.3,,,,,,,,,,,,,,,0.0016815774142742157,0.4900089018046856,0.7902316190302372,2113.2188318818808,,,,,,,,,,2110.7347857430577,2111.248615562916,2111.231923855841,2111.231923855841,2111.5322092473507,2112.031417660415,2112.2326812297106,2113.237229641527,m,0,0.25,0.4501632824540138,,,,,,,,,,,,s001,001,2024-04-10_11h54.28.698,simplestop_skeleton,2022.2.2,59.9271829092568,
None,None,,,,,,,,,1,0,1,0,8,2,34,2,,,,,,,,,2113.2191399745643,go,squareblack.png,m,0.25,,,,,,,,,,,,,,,0.0011829547584056854,0.4897449463605881,0.7401157841086388,2115.721423573792,,,,,,,,,,2113.237229641527,2113.751627035439,2113.734810695052,2113.734810695052,2113.985060315579,2114.48559647426,2114.7353288419545,2115.7404442317784,m,0,0.25,0.4884294122457504,,,,,,,,,,,,s001,001,2024-04-10_11h54.28.698,simplestop_skeleton,2022.2.2,59.9271829092568,
None,None,,,,,,,,,1,0,1,0,8,3,35,2,,,,,,,,,2115.7217346169055,go,circleblack.png,z,0.25,,,,,,,,,,,,,,,0.0017733052372932434,0.48999154195189476,0.7404945604503155,2118.2243339680135,,,,,,,,,,2115.7404442317784,2116.2541726753116,2116.2376235350966,2116.2376235350966,2116.4878378920257,2116.988368421793,2117.2376061826944,2118.243453554809,z,0,0.25,0.6016785800457001,,,,,,,,,,,,s001,001,2024-04-10_11h54.28.698,simplestop_skeleton,2022.2.2,59.9271829092568,
None,None,,,,,,,,,1,0,1,0,9,0,36,3,,,,,,,,,2118.2246585302055,go,squareblack.png,m,0.25,,,,,,,,,,,,,,,0.00170077383518219,0.4899577796459198,0.7402974516153336,2120.7270465530455,,,,,,,,,,2118.243453554809,2118.7569604963064,2118.740203216672,2118.740203216672,2118.990860480815,2119.4911525398493,2119.742228154093,2120.74602298066,m,0,0.25,0.5953690148890018,,,,,,,,,,,,s001,001,2024-04-10_11h54.28.698,simplestop_skeleton,2022.2.2,59.9271829092568,
None,None,,,,,,,,,1,0,1,0,9,1,37,3,,,,,,,,,2120.727351974696,go,squareblack.png,m,0.25,,,,,,,,,,,,,,,0.0012726224958896637,0.48959510400891304,0.7402917966246605,2123.2299950383604,,,,,,,,,,2120.74602298066,2121.2597925029695,2121.2432410568,2121.2432410568,2121.4936607778072,2121.9939060285687,2122.243506886065,2123.249269463122,m,0,0.25,0.5517093613743782,,,,,,,,,,,,s001,001,2024-04-10_11h54.28.698,simplestop_skeleton,2022.2.2,59.9271829092568,
None,None,,,,,,,,,1,0,1,0,9,2,38,3,,,,,,,,,2123.230318002403,go,circleblack.png,z,0.25,,,,,,,,,,,,,,,0.0019060373306274414,0.4895251840353012,0.7398060895502567,2125.7326285913587,,,,,,,,,,2123.249269463122,2123.7626436538994,2123.7456965632737,2123.7456965632737,2123.9960647560656,2124.495080769062,2124.7461318187416,2125.75143102929,z,0,0.25,0.40872373804450035,,,,,,,,,,,,s001,001,2024-04-10_11h54.28.698,simplestop_skeleton,2022.2.2,59.9271829092568,
$currentCorrectResponse,$currentGoStim,,,,,,,,,1,0,1,0,9,3,39,0,,,,,,,,,2125.732943277806,go,circleblack.png,z,0.25,,,,,,,,,,,,,,,0.0014188773930072784,0.48981816321611404,0.7400495484471321,2128.2353418283165,,,,,,,,,,2125.75143102929,2126.265238504857,2126.248426936567,2126.248426936567,2126.498931221664,2126.9995680972934,2127.2483279928565,2128.254091937095,z,0,0.25,0.5620935335755348,,,,,,,,,,,,s001,001,2024-04-10_11h54.28.698,simplestop_skeleton,2022.2.2,59.9271829092568,
$currentCorrectResponse,$currentGoStim,,,,,,,,,1,0,1,0,10,0,40,0,,,,,,,,,2128.2356616817415,go,circleblack.png,z,0.25,,,,,,,,,,,,,,,0.0013665296137332916,0.4899635761976242,0.7400046177208424,2130.7381260208786,,,,,,,,,,2128.254091937095,2128.768056947738,2128.7511641271412,2128.7511641271412,2129.0014151334763,2129.5019859410822,2129.7529331073165,2130.7566657476127,z,0,0.25,0.5483111776411533,,,,,,,,,,,,s001,001,2024-04-10_11h54.28.698,simplestop_skeleton,2022.2.2,59.9271829092568,
None,None,,,,,,,,,1,0,1,0,10,1,41,1,,,,,,,,,2130.738456297666,go,circleblack.png,z,0.25,,,,,,,,,,,,,,,0.001229904592037201,0.4897973835468292,0.7401650212705135,2133.241138804704,,,,,,,,,,2130.7566657476127,2131.2707714550197,2131.2538942061365,2131.2538942061365,2131.5042188726366,2132.004762109369,2132.2551292032003,2133.2597617954016,z,0,0.25,0.6556259244680405,,,,,,,,,,,,s001,001,2024-04-10_11h54.28.698,simplestop_skeleton,2022.2.2,59.9271829092568,
$currentCorrectResponse,$currentGoStim,,,,,,,,,1,0,1,0,10,2,42,0,,,,,,,,,2133.241467051208,stop,squareblack.png,m,0.25,,,,,,,,,,,,,,,0.0016314387321472168,0.48983050137758255,0.7400428391993046,2135.744022745639,,,,,,,,,,2133.2597617954016,2133.7736320123076,2133.756843917072,2133.756843917072,2134.0072991363704,2134.50784175843,2134.758172031492,2135.7627166584134,None,0,0.3,,,,,,,,,,,,,s001,001,2024-04-10_11h54.28.698,simplestop_skeleton,2022.2.2,59.9271829092568,
$currentCorrectResponse,$currentGoStim,,,,,,,,,1,0,1,0,10,3,43,0,,,,,,,,,2135.744341522455,go,squareblack.png,m,0.3,,,,,,,,,,,,,,,0.0013277605175971985,0.48969791457057,0.7897042594850063,2138.246964674443,,,,,,,,,,2135.7627166584134,2136.2764201648533,2136.2597118765116,2136.2597118765116,2136.5597810447216,2137.0591022744775,2137.2600971758366,2138.2662170939147,m,0,0.3,0.4838191568851471,,,,,,,,,,,,s001,001,2024-04-10_11h54.28.698,simplestop_skeleton,2022.2.2,59.9271829092568,
$currentCorrectResponse,$currentGoStim,,,,,,,,,1,0,1,0,11,0,44,0,,,,,,,,,2138.2472925558686,stop,circleblack.png,z,0.3,,,,,,,,,,,,,,,0.001965075731277466,0.4891841188073158,0.7896660976111889,2140.748934984207,,,,,,,,,,2138.2662170939147,2138.778938226402,2138.7623126506805,2138.7623126506805,2139.0626984238625,2139.5617369413376,2139.7625482343137,2140.7679684497416,z,0,0.25,0.40872593596577644,,,,,,,,,,,,s001,001,2024-04-10_11h54.28.698,simplestop_skeleton,2022.2.2,59.9271829092568,
None,None,,,,,,,,,1,0,1,0,11,1,45,1,,,,,,,,,2140.74924185127,stop,squareblack.png,m,0.25,,,,,,,,,,,,,,,0.0016695968806743622,0.48985452950000763,0.7401338368654251,2143.251961879432,,,,,,,,,,2140.7679684497416,2141.281683254987,2141.2649614214897,2141.2649614214897,2141.5154118277133,2142.0158564038575,2142.2647277489305,2143.2703605256975,None,1,0.3,,,,,,,,,,,,,s001,001,2024-04-10_11h54.28.698,simplestop_skeleton,2022.2.2,59.9271829092568,
$currentCorrectResponse,$currentGoStim,,,,,,,,,1,0,1,0,11,2,46,0,,,,,,,,,2143.2522799894214,go,squareblack.png,m,0.3,,,,,,,,,,,,,,,0.0011826977133750916,0.4898521713912487,0.7903385013341904,2145.755128800869,,,,,,,,,,2143.2703605256975,2143.7844843119383,2143.767879985273,2143.767879985273,2144.068218331784,2144.5673038698733,2144.768248256296,2145.7741252854466,m,0,0.3,0.6611085720360279,,,,,,,,,,,,s001,001,2024-04-10_11h54.28.698,simplestop_skeleton,2022.2.2,59.9271829092568,
None,None,,,,,,,,,1,0,1,0,11,3,47,3,,,,,,,,,2145.755454380065,stop,circleblack.png,z,0.3,,,,,,,,,,,,,,,0.0019234158098697662,0.48971088975667953,0.7899322062730789,2148.25740281865,,,,,,,,,,2145.7741252854466,2146.287306457758,2146.270616967231,2146.270616967231,2146.570898782462,2147.070167463273,2147.2710520923138,2148.2744228094816,z,0,0.25,0.48244912549853325,,,,,,,,,,,,s001,001,2024-04-10_11h54.28.698,simplestop_skeleton,2022.2.2,59.9271829092568,
,,,,,,,,,,1,0,1,0,,,,,,,,,,,,,,,,,,,,,,,,,,,,,,,,,,,,,,,,,,,,,,,,,,,,,,,,,,2148.2744228094816,2148.2744228094816,return,4.437158405780792,"[{'fileName': 'squareblack.png', 'correct_response': 'm', 'condition': 'go'}, {'fileName': 'circleblack.png', 'correct_response': 'z', 'condition': 'stop'}, {'fileName': 'circleblack.png', 'correct_response': 'z', 'condition': 'go'}, {'fileName': 'squareblack.png', 'correct_response': 'm', 'condition': 'stop'}, {'fileName': 'circleblack.png', 'correct_response': 'z', 'condition': 'go'}, {'fileName': 'squareblack.png', 'correct_response': 'm', 'condition': 'go'}, {'fileName': 'circleblack.png', 'correct_response': 'z', 'condition': 'stop'}, {'fileName': 'squareblack.png', 'correct_response': 'm', 'condition': 'go'}, {'fileName': 'squareblack.png', 'correct_response': 'm', 'condition': 'go'}, {'fileName': 'squareblack.png', 'correct_response': 'm', 'condition': 'stop'}, {'fileName': 'circleblack.png', 'correct_response': 'z', 'condition': 'go'}, {'fileName': 'circleblack.png', 'correct_response': 'z', 'condition': 'go'}, {'fileName': 'squareblack.png', 'correct_response': 'm', 'condition': 'stop'}, {'fileName': 'circleblack.png', 'correct_response': 'z', 'condition': 'stop'}, {'fileName': 'squareblack.png', 'correct_response': 'm', 'condition': 'stop'}, {'fileName': 'circleblack.png', 'correct_response': 'z', 'condition': 'go'}, {'fileName': 'squareblack.png', 'correct_response': 'm', 'condition': 'go'}, {'fileName': 'squareblack.png', 'correct_response': 'm', 'condition': 'go'}, {'fileName': 'circleblack.png', 'correct_response': 'z', 'condition': 'go'}, {'fileName': 'squareblack.png', 'correct_response': 'm', 'condition': 'go'}, {'fileName': 'circleblack.png', 'correct_response': 'z', 'condition': 'go'}, {'fileName': 'circleblack.png', 'correct_response': 'z', 'condition': 'stop'}, {'fileName': 'circleblack.png', 'correct_response': 'z', 'condition': 'go'}, {'fileName': 'squareblack.png', 'correct_response': 'm', 'condition': 'go'}, {'fileName': 'squareblack.png', 'correct_response': 'm', 'condition': 'go'}, {'fileName': 'circleblack.png', 'correct_response': 'z', 'condition': 'stop'}, {'fileName': 'circleblack.png', 'correct_response': 'z', 'condition': 'go'}, {'fileName': 'circleblack.png', 'correct_response': 'z', 'condition': 'go'}, {'fileName': 'squareblack.png', 'correct_response': 'm', 'condition': 'stop'}, {'fileName': 'circleblack.png', 'correct_response': 'z', 'condition': 'go'}, {'fileName': 'circleblack.png', 'correct_response': 'z', 'condition': 'go'}, {'fileName': 'squareblack.png', 'correct_response': 'm', 'condition': 'stop'}, {'fileName': 'squareblack.png', 'correct_response': 'm', 'condition': 'go'}, {'fileName': 'squareblack.png', 'correct_response': 'm', 'condition': 'go'}, {'fileName': 'squareblack.png', 'correct_response': 'm', 'condition': 'go'}, {'fileName': 'circleblack.png', 'correct_response': 'z', 'condition': 'stop'}, {'fileName': 'circleblack.png', 'correct_response': 'z', 'condition': 'go'}, {'fileName': 'squareblack.png', 'correct_response': 'm', 'condition': 'go'}, {'fileName': 'squareblack.png', 'correct_response': 'm', 'condition': 'stop'}, {'fileName': 'circleblack.png', 'correct_response': 'z', 'condition': 'go'}, {'fileName': 'squareblack.png', 'correct_response': 'm', 'condition': 'go'}, {'fileName': 'squareblack.png', 'correct_response': 'm', 'condition': 'go'}, {'fileName': 'circleblack.png', 'correct_response': 'z', 'condition': 'stop'}, {'fileName': 'circleblack.png', 'correct_response': 'z', 'condition': 'stop'}, {'fileName': 'circleblack.png', 'correct_response': 'z', 'condition': 'go'}, {'fileName': 'squareblack.png', 'correct_response': 'm', 'condition': 'go'}, {'fileName': 'squareblack.png', 'correct_response': 'm', 'condition': 'stop'}, {'fileName': 'circleblack.png', 'correct_response': 'z', 'condition': 'go'}]",,,,,,s001,001,2024-04-10_11h54.28.698,simplestop_skeleton,2022.2.2,59.9271829092568,
None,None,,,,,,,,,2,0,2,0,0,0,0,3,,,,,,,,,2152.737116932869,go,squareblack.png,m,0.25,,,,,,,,,,,,,,,0.001970577985048294,0.4970359802246094,0.747650858014822,2155.24871019274,,,,,,,,,,2152.7571003735065,2153.260940372944,2153.260940372944,2153.260940372944,2153.51185176149,2154.012462940067,2154.262688089162,2155.2677147462964,m,0,0.25,0.33519982174038887,,,,,,,,,,,,s001,001,2024-04-10_11h54.28.698,simplestop_skeleton,2022.2.2,59.9271829092568,
None,None,,,,,,,,,2,0,2,0,0,1,1,3,,,,,,,,,2155.249043405056,stop,circleblack.png,z,0.25,,,,,,,,,,,,,,,0.0018588751554489136,0.48968128859996796,0.7400043904781342,2157.751363091171,,,,,,,,,,2155.2677147462964,2155.781028676778,2155.764392938465,2155.764392938465,2156.0147207193077,2156.5153180621564,2156.76566696167,2157.7700461558998,None,1,0.3,,,,,,,,,,,,,s001,001,2024-04-10_11h54.28.698,simplestop_skeleton,2022.2.2,59.9271829092568,
$currentCorrectResponse,$currentGoStim,,,,,,,,,2,0,2,0,0,2,2,0,,,,,,,,,2157.75167600438,go,circleblack.png,z,0.3,,,,,,,,,,,,,,,0.0013735927641391754,0.48969994485378265,0.7899729013442993,2160.2538452595472,,,,,,,,,,2157.7700461558998,2158.2836904861033,2158.2669787593186,2158.2669787593186,2158.5674217119813,2159.0681197680533,2159.2667059637606,2160.272900674492,z,0,0.3,0.5258305855095387,,,,,,,,,,,,s001,001,2024-04-10_11h54.28.698,simplestop_skeleton,2022.2.2,59.9271829092568,
None,None,,,,,,,,,2,0,2,0,0,3,3,1,,,,,,,,,2160.2541564255953,stop,squareblack.png,m,0.3,,,,,,,,,,,,,,,0.0016627050936222076,0.49003446847200394,0.790224552154541,2162.7565379440784,,,,,,,,,,2160.272900674492,2160.7866635993123,2160.7698099836707,2160.7698099836707,2161.0703779533505,2161.570882797241,2161.771048180759,2162.7755268141627,None,1,0.35,,,,,,,,,,,,,s001,001,2024-04-10_11h54.28.698,simplestop_skeleton,2022.2.2,59.9271829092568,
None,None,,,,,,,,,2,0,2,0,1,0,4,3,,,,,,,,,2162.756846446544,go,circleblack.png,z,0.35,,,,,,,,,,,,,,,0.0017575137317180634,0.4904254302382469,0.8408037908375263,2165.259827081114,,,,,,,,,,2162.7755268141627,2163.2893498688936,2163.272844992578,2163.272844992578,2163.6232882663608,2164.122444845736,2164.2731760032475,2165.278555482626,z,0,0.35,0.36265086382627487,,,,,,,,,,,,s001,001,2024-04-10_11h54.28.698,simplestop_skeleton,2022.2.2,59.9271829092568,
None,None,,,,,,,,,2,0,2,0,1,1,5,3,,,,,,,,,2165.26014367491,go,squareblack.png,m,0.35,,,,,,,,,,,,,,,0.0016146637499332428,0.4894697479903698,0.840196818113327,2167.7620880119503,,,,,,,,,,2165.278555482626,2165.792363755405,2165.7757445164025,2165.7757445164025,2166.1263037770987,2166.6263238303363,2166.7761117629707,2167.7812752611935,m,0,0.35,0.3501635305583477,,,,,,,,,,,,s001,001,2024-04-10_11h54.28.698,simplestop_skeleton,2022.2.2,59.9271829092568,
None,None,,,,,,,,,2,0,2,0,1,2,6,1,,,,,,,,,2167.7623947411776,stop,circleblack.png,z,0.35,,,,,,,,,,,,,,,0.0018356069922447205,0.4900163933634758,0.8406236097216606,2170.265164807439,,,,,,,,,,2167.7812752611935,2168.2950295880437,2168.278119917959,2168.278119917959,2168.628456968814,2169.127959571779,2169.279029842466,2170.2840795964003,z,0,0.3,0.40279725939035416,,,,,,,,,,,,s001,001,2024-04-10_11h54.28.698,simplestop_skeleton,2022.2.2,59.9271829092568,
$currentCorrectResponse,$currentGoStim,,,,,,,,,2,0,2,0,1,3,7,0,,,,,,,,,2170.265483338386,go,squareblack.png,m,0.3,,,,,,,,,,,,,,,0.0017252452671527863,0.4896698445081711,0.7905837558209896,2172.7679293118417,,,,,,,,,,2170.2840795964003,2170.797622125596,2170.7810294665396,2170.7810294665396,2171.081380493939,2171.5803989693522,2171.781697690487,2172.786234162748,m,0,0.3,0.42745066806674004,,,,,,,,,,,,s001,001,2024-04-10_11h54.28.698,simplestop_skeleton,2022.2.2,59.9271829092568,
None,None,,,,,,,,,2,0,2,0,2,0,8,2,,,,,,,,,2172.76824965328,go,squareblack.png,m,0.3,,,,,,,,,,,,,,,0.0011674277484416962,0.4901752397418022,0.7903399728238583,2175.2704279609025,,,,,,,,,,2172.786234162748,2173.3004312589765,2173.283897291869,2173.283897291869,2173.584098149091,2174.085883155465,2174.284227449447,2175.288704637438,m,0,0.3,0.36814916133880615,,,,,,,,,,,,s001,001,2024-04-10_11h54.28.698,simplestop_skeleton,2022.2.2,59.9271829092568,
None,None,,,,,,,,,2,0,2,0,2,1,9,2,,,,,,,,,2175.2707426585257,stop,squareblack.png,m,0.3,,,,,,,,,,,,,,,0.001184072345495224,0.4901430644094944,0.7905676178634167,2177.7731952629983,,,,,,,,,,2175.288704637438,2175.8033123128116,2175.786654010415,2175.786654010415,2176.086832292378,2176.5860516801476,2176.7869959287345,2177.792332123965,m,0,0.25,0.45109848305583,,,,,,,,,,,,s001,001,2024-04-10_11h54.28.698,simplestop_skeleton,2022.2.2,59.9271829092568,
None,None,,,,,,,,,2,0,2,0,2,2,10,3,,,,,,,,,2177.7735021971166,go,circleblack.png,z,0.25,,,,,,,,,,,,,,,0.001780342310667038,0.49004000052809715,0.7402677461504936,2180.2758217938244,,,,,,,,,,2177.792332123965,2178.3057230971754,2178.2891885861754,2178.2891885861754,2178.539430744946,2179.040039423853,2179.2901227213442,2180.294305179268,z,0,0.25,0.534751296043396,,,,,,,,,,,,s001,001,2024-04-10_11h54.28.698,simplestop_skeleton,2022.2.2,59.9271829092568,
None,None,,,,,,,,,2,0,2,0,2,3,11,1,,,,,,,,,2180.2761400714517,go,circleblack.png,z,0.25,,,,,,,,,,,,,,,0.0012486279010772705,0.48994622752070427,0.7402150481939316,2182.7787505686283,,,,,,,,,,2180.294305179268,2180.8085682168603,2180.791926704347,2180.791926704347,2181.0422796308994,2181.541504550725,2181.7927350848913,2182.797569617629,z,0,0.25,0.3017433024942875,,,,,,,,,,,,s001,001,2024-04-10_11h54.28.698,simplestop_skeleton,2022.2.2,59.9271829092568,
None,None,,,,,,,,,2,0,2,0,3,0,12,2,,,,,,,,,2182.7790598385036,stop,squareblack.png,m,0.25,,,,,,,,,,,,,,,0.0016883760690689087,0.4904143586754799,0.7404433377087116,2185.2820446603,,,,,,,,,,2182.797569617629,2183.3120166882873,2183.294924300164,2183.294924300164,2183.545119110495,2184.0457097142935,2184.29545141384,2185.3019842617214,m,0,0.2,0.4553091637790203,,,,,,,,,,,,s001,001,2024-04-10_11h54.28.698,simplestop_skeleton,2022.2.2,59.9271829092568,
None,None,,,,,,,,,2,0,2,0,3,1,13,2,,,,,,,,,2185.282362561673,stop,circleblack.png,z,0.2,,,,,,,,,,,,,,,0.0026129111647605896,0.4883897379040718,0.6893596313893795,2187.784291345626,,,,,,,,,,2185.3019842617214,2185.8135263212025,2185.7972274124622,2185.7972274124622,2185.9978679157794,2186.496984053403,2186.7983202822506,2187.8029512427747,z,0,0.15,0.37231533229351044,,,,,,,,,,,,s001,001,2024-04-10_11h54.28.698,simplestop_skeleton,2022.2.2,59.9271829092568,
$currentCorrectResponse,$currentGoStim,,,,,,,,,2,0,2,0,3,2,14,0,,,,,,,,,2187.784598700702,stop,squareblack.png,m,0.15,,,,,,,,,,,,,,,0.0017618536949157715,0.4900851286947727,0.6403321735560894,2190.28707902506,,,,,,,,,,2187.8029512427747,2188.3171883672476,2188.30020993948,2188.30020993948,2188.450401633978,2188.951048307121,2189.3014469109476,2190.3062329627573,None,0,0.2,,,,,,,,,,,,,s001,001,2024-04-10_11h54.28.698,simplestop_skeleton,2022.2.2,59.9271829092568,
None,None,,,,,,,,,2,0,2,0,3,3,15,1,,,,,,,,,2190.2873988822103,go,circleblack.png,z,0.2,,,,,,,,,,,,,,,0.0017156600952148438,0.49015601724386215,0.6900299340486526,2192.789964709431,,,,,,,,,,2190.3062329627573,2190.819744281471,2190.803045220673,2190.803045220673,2191.003492936492,2191.503934621811,2191.8035716190934,2192.8089981004596,z,0,0.2,0.45830490440130234,,,,,,,,,,,,s001,001,2024-04-10_11h54.28.698,simplestop_skeleton,2022.2.2,59.9271829092568,
$currentCorrectResponse,$currentGoStim,,,,,,,,,2,0,2,0,4,0,16,0,,,,,,,,,2192.79027389735,go,squareblack.png,m,0.2,,,,,,,,,,,,,,,0.001634787768125534,0.48953208699822426,0.6897461228072643,2195.2925733067095,,,,,,,,,,2192.8089981004596,2193.32260876894,2193.3058458156884,2193.3058458156884,2193.506115734577,2194.006554968655,2194.3063744604588,2195.3110461831093,m,0,0.2,0.4271761327981949,,,,,,,,,,,,s001,001,2024-04-10_11h54.28.698,simplestop_skeleton,2022.2.2,59.9271829092568,
None,None,,,,,,,,,2,0,2,0,4,1,17,1,,,,,,,,,2195.2928862161934,go,squareblack.png,m,0.2,,,,,,,,,,,,,,,0.0011733919382095337,0.49006010964512825,0.6902508214116096,2197.7953130044043,,,,,,,,,,2195.3110461831093,2195.8253343999386,2195.808678213507,2195.808678213507,2196.008800931275,2196.5094008482993,2196.8094718791544,2197.8144531808794,m,0,0.2,0.602003775537014,,,,,,,,,,,,s001,001,2024-04-10_11h54.28.698,simplestop_skeleton,2022.2.2,59.9271829092568,
None,None,,,,,,,,,2,0,2,0,4,2,18,2,,,,,,,,,2197.7956249937415,go,circleblack.png,z,0.2,,,,,,,,,,,,,,,0.0018547512590885162,0.49005888402462006,0.6901122480630875,2200.2981005348265,,,,,,,,,,2197.8144531808794,2198.3279273062944,2198.3120869621634,2198.3120869621634,2198.511476699263,2199.012090805918,2199.311181809753,2200.316889218986,z,0,0.2,0.5657303668558598,,,,,,,,,,,,s001,001,2024-04-10_11h54.28.698,simplestop_skeleton,2022.2.2,59.9271829092568,
None,None,,,,,,,,,2,0,2,0,4,3,19,1,,,,,,,,,2200.2984078116715,go,squareblack.png,m,0.2,,,,,,,,,,,,,,,0.001628931611776352,0.4897298403084278,0.6901054158806801,2202.8009145744145,,,,,,,,,,2200.316889218986,2200.8308218717575,2200.8143786229193,2200.8143786229193,2201.0143537558615,2201.5148460380733,2201.813705779612,2202.8199741467834,m,0,0.2,0.6122142821550369,,,,,,,,,,,,s001,001,2024-04-10_11h54.28.698,simplestop_skeleton,2022.2.2,59.9271829092568,
$currentCorrectResponse,$currentGoStim,,,,,,,,,2,0,2,0,5,0,20,0,,,,,,,,,2202.8012327067554,go,circleblack.png,z,0.2,,,,,,,,,,,,,,,0.001705896109342575,0.48993511870503426,0.690076757222414,2205.3036392703652,,,,,,,,,,2202.8199741467834,2203.333646096289,2203.3168070726097,2203.3168070726097,2203.5170021019876,2204.017600040883,2204.3176224268973,2205.322273325175,z,0,0.2,0.5079149827361107,,,,,,,,,,,,s001,001,2024-04-10_11h54.28.698,simplestop_skeleton,2022.2.2,59.9271829092568,
$currentCorrectResponse,$currentGoStim,,,,,,,,,2,0,2,0,5,1,21,0,,,,,,,,,2205.3039523996413,stop,circleblack.png,z,0.2,,,,,,,,,,,,,,,0.0013115331530570984,0.48972151055932045,0.6900688037276268,2207.8062791526318,,,,,,,,,,2205.322273325175,2205.8364567644894,2205.8196925520897,2205.8196925520897,2206.0198298431933,2206.5203924775124,2206.8208404406905,2207.8248142562807,None,0,0.25,,,,,,,,,,,,,s001,001,2024-04-10_11h54.28.698,simplestop_skeleton,2022.2.2,59.9271829092568,
None,None,,,,,,,,,2,0,2,0,5,2,22,3,,,,,,,,,2207.8065874800086,go,circleblack.png,z,0.25,,,,,,,,,,,,,,,0.0012596435844898224,0.4903041273355484,0.7402589358389378,2210.3089884631336,,,,,,,,,,2207.8248142562807,2208.3390081189573,2208.322476223111,2208.322476223111,2208.5727821439505,2209.073179010302,2209.3228854835033,2210.328032553196,z,0,0.25,0.4931742809712887,,,,,,,,,,,,s001,001,2024-04-10_11h54.28.698,simplestop_skeleton,2022.2.2,59.9271829092568,
$currentCorrectResponse,$currentGoStim,,,,,,,,,2,0,2,0,5,3,23,0,,,,,,,,,2210.309298940003,go,squareblack.png,m,0.25,,,,,,,,,,,,,,,0.0017574243247509003,0.49007977545261383,0.7402784936130047,2212.812018111348,,,,,,,,,,2210.328032553196,2210.8418233916163,2210.8250706903636,2210.8250706903636,2211.07545651868,2211.575958300382,2211.8248183578253,2212.830159470439,m,0,0.25,0.6086412183940411,,,,,,,,,,,,s001,001,2024-04-10_11h54.28.698,simplestop_skeleton,2022.2.2,59.9271829092568,
None,None,,,,,,,,,2,0,2,0,6,0,24,3,,,,,,,,,2212.8123354390264,go,squareblack.png,m,0.25,,,,,,,,,,,,,,,0.0011759884655475616,0.48984793201088905,0.7403028719127178,2215.3148111589253,,,,,,,,,,2212.830159470439,2213.344623643905,2213.328593287617,2213.328593287617,2213.5783015824854,2214.077595807612,2214.3285258859396,2215.334056455642,m,0,0.25,0.43393613770604134,,,,,,,,,,,,s001,001,2024-04-10_11h54.28.698,simplestop_skeleton,2022.2.2,59.9271829092568,
None,None,,,,,,,,,2,0,2,0,6,1,25,2,,,,,,,,,2215.3151316307485,stop,circleblack.png,z,0.25,,,,,,,,,,,,,,,0.0018143393099308014,0.4897399954497814,0.740133211016655,2217.81733680889,,,,,,,,,,2215.334056455642,2215.8477993942797,2215.8309529982507,2215.8309529982507,2216.0810566991568,2216.581611622125,2216.8321916796267,2217.836019061506,None,1,0.3,,,,,,,,,,,,,s001,001,2024-04-10_11h54.28.698,simplestop_skeleton,2022.2.2,59.9271829092568,
None,None,,,,,,,,,2,0,2,0,6,2,26,3,,,,,,,,,2217.8176580928266,go,circleblack.png,z,0.3,,,,,,,,,,,,,,,0.0012434907257556915,0.4899960421025753,0.7906056717038155,2220.320409435779,,,,,,,,,,2217.836019061506,2218.35006262362,2218.333572357893,2218.333572357893,2218.634083006531,2219.134576231241,2219.335675973445,2220.3393052369356,z,0,0.3,0.5350171960890293,,,,,,,,,,,,s001,001,2024-04-10_11h54.28.698,simplestop_skeleton,2022.2.2,59.9271829092568,
None,None,,,,,,,,,2,0,2,0,6,3,27,3,,,,,,,,,2220.320720538497,go,circleblack.png,z,0.3,,,,,,,,,,,,,,,0.001469101756811142,0.48946133255958557,0.7898959144949913,2222.822925787419,,,,,,,,,,2220.3393052369356,2220.8531164601445,2220.836400449276,2220.836400449276,2221.1367273665965,2221.6526260115206,2221.837128393352,2222.842214446515,z,0,0.3,0.40099844709038734,,,,,,,,,,,,s001,001,2024-04-10_11h54.28.698,simplestop_skeleton,2022.2.2,59.9271829092568,
$currentCorrectResponse,$currentGoStim,,,,,,,,,2,0,2,0,7,0,28,0,,,,,,,,,2222.823245063424,stop,squareblack.png,m,0.3,,,,,,,,,,,,,,,0.0015928708016872406,0.490287184715271,0.79027483984828,2225.325647994876,,,,,,,,,,2222.842214446515,2223.3556831777096,2223.3390673212707,2223.3390673212707,2223.639462508261,2224.139902293682,2224.3400738164783,2225.3449386432767,None,0,0.35,,,,,,,,,,,,,s001,001,2024-04-10_11h54.28.698,simplestop_skeleton,2022.2.2,59.9271829092568,
None,None,,,,,,,,,2,0,2,0,7,1,29,1,,,,,,,,,2225.3259625658393,go,circleblack.png,z,0.35,,,,,,,,,,,,,,,0.001679934561252594,0.48973657563328743,0.8401309736073017,2227.8285475075245,,,,,,,,,,2225.3449386432767,2225.858780667186,2225.841753862798,2225.841753862798,2226.1922694072127,2226.693612769246,2226.8423321172595,2227.8474873267114,z,0,0.35,0.418473519384861,,,,,,,,,,,,s001,001,2024-04-10_11h54.28.698,simplestop_skeleton,2022.2.2,59.9271829092568,
None,None,,,,,,,,,2,0,2,0,7,2,30,2,,,,,,,,,2227.828859012574,go,circleblack.png,z,0.35,,,,,,,,,,,,,,,0.0013805851340293884,0.48948487266898155,0.8397925831377506,2230.331382624805,,,,,,,,,,2227.8474873267114,2228.361089028418,2228.3445182442665,2228.3445182442665,2228.695208825171,2229.2111403793097,2229.3451151140034,2230.3505902327597,z,0,0.35,0.4421018064022064,,,,,,,,,,,,s001,001,2024-04-10_11h54.28.698,simplestop_skeleton,2022.2.2,59.9271829092568,
$currentCorrectResponse,$currentGoStim,,,,,,,,,2,0,2,0,7,3,31,0,,,,,,,,,2230.3317108266056,stop,squareblack.png,m,0.35,,,,,,,,,,,,,,,0.0016505271196365356,0.4897410422563553,0.8398639671504498,2232.8342261090875,,,,,,,,,,2230.3505902327597,2230.8640122897923,2230.847176734358,2230.847176734358,2231.197903186083,2231.6994092576206,2231.847519569099,2232.8530790172517,m,0,0.3,0.39756061881780624,,,,,,,,,,,,s001,001,2024-04-10_11h54.28.698,simplestop_skeleton,2022.2.2,59.9271829092568,
None,None,,,,,,,,,2,0,2,0,8,0,32,3,,,,,,,,,2232.834554478526,go,squareblack.png,m,0.3,,,,,,,,,,,,,,,0.0012898817658424377,0.4896996170282364,0.7901698164641857,2235.3370528556406,,,,,,,,,,2232.8530790172517,2233.3668762408197,2233.350090485066,2233.350090485066,2233.6505593135953,2234.1500849686563,2234.350467737764,2235.3556411899626,m,0,0.3,0.46557917445898056,,,,,,,,,,,,s001,001,2024-04-10_11h54.28.698,simplestop_skeleton,2022.2.2,59.9271829092568,
$currentCorrectResponse,$currentGoStim,,,,,,,,,2,0,2,0,8,1,33,0,,,,,,,,,2235.337385367602,go,squareblack.png,m,0.3,,,,,,,,,,,,,,,0.0013160333037376404,0.489849042147398,0.7897513173520565,2237.8395928628743,,,,,,,,,,2235.3556411899626,2235.869535431266,2235.8527131155133,2235.8527131155133,2236.15326737985,2236.669011797756,2236.853571996093,2237.8583263605833,m,0,0.3,0.458898700773716,,,,,,,,,,,,s001,001,2024-04-10_11h54.28.698,simplestop_skeleton,2022.2.2,59.9271829092568,
None,None,,,,,,,,,2,0,2,0,8,2,34,2,,,,,,,,,2237.8399337008595,go,squareblack.png,m,0.3,,,,,,,,,,,,,,,0.0012024641036987305,0.48983386904001236,0.7898708656430244,2240.3422298394144,,,,,,,,,,2237.8583263605833,2238.372123103589,2238.3556489162147,2238.3556489162147,2238.6558263748884,2239.154976796359,2239.356240183115,2240.3616082705557,m,0,0.3,0.39198069274425507,,,,,,,,,,,,s001,001,2024-04-10_11h54.28.698,simplestop_skeleton,2022.2.2,59.9271829092568,
$currentCorrectResponse,$currentGoStim,,,,,,,,,2,0,2,0,8,3,35,0,,,,,,,,,2240.3425362221897,stop,circleblack.png,z,0.3,,,,,,,,,,,,,,,0.001833587884902954,0.4899032898247242,0.7899760082364082,2242.8449342548847,,,,,,,,,,2240.3616082705557,2240.8748977817595,2240.8582773804665,2240.8582773804665,2241.158685684204,2241.659326955676,2241.85942209512,2242.863870475441,None,0,0.35,,,,,,,,,,,,,s001,001,2024-04-10_11h54.28.698,simplestop_skeleton,2022.2.2,59.9271829092568,
None,None,,,,,,,,,2,0,2,0,9,0,36,2,,,,,,,,,2242.845250379294,go,circleblack.png,z,0.35,,,,,,,,,,,,,,,0.0012470930814743042,0.490167573094368,0.8404772020876408,2245.348027277738,,,,,,,,,,2242.863870475441,2243.377891011536,2243.361212376505,2243.361212376505,2243.7115102000535,2244.2108237966895,2244.3618021458387,2245.36810804531,z,0,0.35,0.3933569937944412,,,,,,,,,,,,s001,001,2024-04-10_11h54.28.698,simplestop_skeleton,2022.2.2,59.9271829092568,
None,None,,,,,,,,,2,0,2,0,9,1,37,1,,,,,,,,,2245.3483443260193,go,squareblack.png,m,0.35,,,,,,,,,,,,,,,0.0018165968358516693,0.48898402974009514,0.8394685499370098,2247.851022273302,,,,,,,,,,2245.36810804531,2245.880070813,2245.8631451055408,2245.8631451055408,2246.2141719199717,2246.713879004121,2246.8644660897553,2247.8700975999236,m,0,0.35,0.40387826040387154,,,,,,,,,,,,s001,001,2024-04-10_11h54.28.698,simplestop_skeleton,2022.2.2,59.9271829092568,
$currentCorrectResponse,$currentGoStim,,,,,,,,,2,0,2,0,9,2,38,0,,,,,,,,,2247.8513445220888,stop,squareblack.png,m,0.35,,,,,,,,,,,,,,,0.0017669983208179474,0.4893518127501011,0.8398862555623055,2250.353566158563,,,,,,,,,,2247.8700975999236,2248.383211284876,2248.3665181957185,2248.3665181957185,2248.7174687199295,2249.216977059841,2249.3675899133086,2250.372884657234,m,0,0.3,0.29080499708652496,,,,,,,,,,,,s001,001,2024-04-10_11h54.28.698,simplestop_skeleton,2022.2.2,59.9271829092568,
None,None,,,,,,,,,2,0,2,0,9,3,39,1,,,,,,,,,2250.353876069188,go,circleblack.png,z,0.3,,,,,,,,,,,,,,,0.0020949169993400574,0.48973143473267555,0.7901816293597221,2252.856469966471,,,,,,,,,,2250.372884657234,2250.8860378935933,2250.8695236109197,2250.8695236109197,2251.169710561633,2251.6694777943194,2251.869832120836,2252.875471841544,z,0,0.3,0.37515290826559067,,,,,,,,,,,,s001,001,2024-04-10_11h54.28.698,simplestop_skeleton,2022.2.2,59.9271829092568,
None,None,,,,,,,,,2,0,2,0,10,0,40,1,,,,,,,,,2252.8567893095315,go,squareblack.png,m,0.3,,,,,,,,,,,,,,,0.0017580538988113403,0.4893633499741554,0.7897536382079124,2255.3588738813996,,,,,,,,,,2252.875471841544,2253.3887403830886,2253.372077703476,2253.372077703476,2253.67256680876,2254.171529825777,2254.372456923127,2255.3772698044777,m,0,0.3,0.4133300334215164,,,,,,,,,,,,s001,001,2024-04-10_11h54.28.698,simplestop_skeleton,2022.2.2,59.9271829092568,
None,None,,,,,,,,,2,0,2,0,10,1,41,2,,,,,,,,,2255.3591850288212,go,squareblack.png,m,0.3,,,,,,,,,,,,,,,0.001178886741399765,0.49001939594745636,0.7899527437984943,2257.862155839801,,,,,,,,,,2255.3772698044777,2255.8917706012726,2255.87486673519,2255.87486673519,2256.1753482744098,2256.674363568425,2256.8756544440985,2257.8817986771464,m,0,0.3,0.4062177948653698,,,,,,,,,,,,s001,001,2024-04-10_11h54.28.698,simplestop_skeleton,2022.2.2,59.9271829092568,
None,None,,,,,,,,,2,0,2,0,10,2,42,2,,,,,,,,,2257.862473912537,stop,circleblack.png,z,0.3,,,,,,,,,,,,,,,0.0027174092829227448,0.4891030490398407,0.7892695851624012,2260.364339772612,,,,,,,,,,2257.8817986771464,2258.3950649239123,2258.377976000309,2258.377976000309,2258.6780638881028,2259.1938349828124,2259.378060080111,2260.3830244392157,z,0,0.25,0.4218606799840927,,,,,,,,,,,,s001,001,2024-04-10_11h54.28.698,simplestop_skeleton,2022.2.2,59.9271829092568,
None,None,,,,,,,,,2,0,2,0,10,3,43,3,,,,,,,,,2260.364660155028,stop,circleblack.png,z,0.25,,,,,,,,,,,,,,,0.0012634433805942535,0.48979414254426956,0.7402105964720249,2262.8671143576503,,,,,,,,,,2260.3830244392157,2260.8973320126534,2260.880333725363,2260.880333725363,2261.13070749864,2261.62984476611,2261.881057243794,2262.885846439749,z,0,0.2,0.4559808000922203,,,,,,,,,,,,s001,001,2024-04-10_11h54.28.698,simplestop_skeleton,2022.2.2,59.9271829092568,
None,None,,,,,,,,,2,0,2,0,11,0,44,1,,,,,,,,,2262.867429614067,go,circleblack.png,z,0.2,,,,,,,,,,,,,,,0.0012289658188819885,0.48978517949581146,0.6901912577450275,2265.3699354939163,,,,,,,,,,2262.885846439749,2263.399934887886,2263.3832537680864,2263.3832537680864,2263.583652216941,2264.0992336981,2264.3841378726065,2265.3892521858215,m,0,0.2,0.3794410303235054,,,,,,,,,,,,s001,001,2024-04-10_11h54.28.698,simplestop_skeleton,2022.2.2,59.9271829092568,
None,None,,,,,,,,,2,0,2,0,11,1,45,2,,,,,,,,,2265.3702491782606,go,squareblack.png,m,0.2,,,,,,,,,,,,,,,0.0017878375947475433,0.4900382161140442,0.6903838887810707,2267.8727724589407,,,,,,,,,,2265.3892521858215,2265.902937013656,2265.8860431425273,2265.8860431425273,2266.086169626564,2266.5852434635162,2266.8863783180714,2267.8913118578494,m,0,0.2,0.3054100461304188,,,,,,,,,,,,s001,001,2024-04-10_11h54.28.698,simplestop_skeleton,2022.2.2,59.9271829092568,
None,None,,,,,,,,,2,0,2,0,11,2,46,3,,,,,,,,,2267.873101655394,stop,squareblack.png,m,0.2,,,,,,,,,,,,,,,0.0012209266424179077,0.4895959794521332,0.6899076700210571,2270.3755872286856,,,,,,,,,,2267.8913118578494,2268.4055080749094,2268.3885936774313,2268.3885936774313,2268.589329343289,2269.089370649308,2269.3900700993836,2270.3947096914053,None,1,0.25,,,,,,,,,,,,,s001,001,2024-04-10_11h54.28.698,simplestop_skeleton,2022.2.2,59.9271829092568,
None,None,,,,,,,,,2,0,2,0,11,3,47,1,,,,,,,,,2270.3758952356875,go,circleblack.png,z,0.25,,,,,,,,,,,,,,,0.0018297769129276276,0.48981939256191254,0.7400542423129082,2272.878223013133,,,,,,,,,,2270.3947096914053,2270.908482655883,2270.8916101939976,2270.8916101939976,2271.141625151038,2271.6409514322877,2271.891989324242,2272.8937629312277,z,0,0.25,0.4361277371644974,,,,,,,,,,,,s001,001,2024-04-10_11h54.28.698,simplestop_skeleton,2022.2.2,59.9271829092568,
