corrGoResp,shape,practiceBlocks.thisRepN,practiceBlocks.thisTrialN,practiceBlocks.thisN,practiceBlocks.thisIndex,practiceTrials.thisRepN,practiceTrials.thisTrialN,practiceTrials.thisN,practiceTrials.thisIndex,stopBlocks.thisRepN,stopBlocks.thisTrialN,stopBlocks.thisN,stopBlocks.thisIndex,testTrials.thisRepN,testTrials.thisTrialN,testTrials.thisN,testTrials.thisIndex,stopPracTrialList,Test Block: 1,welcome.started,start_exp.started,start_exp.keys,start_exp.rt,instrStopText.started,start_prac.started,StartTrialTimeStamp,trialType,goStim,correctResponse,ssd,fixation.started,rules.started,goStim.started,goResp.started,fixation.stopped,stopSignal.started,stopSignal.stopped,goStim.stopped,goResp.stopped,rules.stopped,goResp.keys,goResp.corr,text.started,rules_2.started,fixationOnset,goStimOnset,stopSignalOnset,EndTrialTimeStamp,Phase,Block,goResp.rt,text.stopped,rules_2.stopped,text_5.started,key_resp_3.started,key_resp_3.keys,key_resp_3.rt,key_resp.started,testText.started,test_fixation.started,goStim_test.started,goResp_test.started,test_fixation.stopped,stopSignal_test.started,stopSignal_test.stopped,goStim_test.stopped,goResp_test.stopped,goResp_test.keys,goResp_test.corr,EndingSSD,goResp_test.rt,text_6.started,key_resp_4.started,key_resp_4.keys,key_resp_4.rt,Test Block: 2,Test Block: 3,ending_text.started,end_resp.started,end_resp.keys,end_resp.rt,participant,session,date,expName,psychopyVersion,frameRate,
,,,,,,,,,,,,,,,,,,"[{'fileName': 'circleblack.png', 'correct_response': 'left', 'condition': 'stop'}, {'fileName': 'squareblack.png', 'correct_response': 'right', 'condition': 'stop'}, {'fileName': 'circleblack.png', 'correct_response': 'left', 'condition': 'stop'}, {'fileName': 'squareblack.png', 'correct_response': 'right', 'condition': 'go'}, {'fileName': 'circleblack.png', 'correct_response': 'left', 'condition': 'go'}, {'fileName': 'circleblack.png', 'correct_response': 'left', 'condition': 'go'}, {'fileName': 'circleblack.png', 'correct_response': 'left', 'condition': 'go'}, {'fileName': 'squareblack.png', 'correct_response': 'right', 'condition': 'go'}, {'fileName': 'squareblack.png', 'correct_response': 'right', 'condition': 'stop'}, {'fileName': 'circleblack.png', 'correct_response': 'left', 'condition': 'go'}, {'fileName': 'squareblack.png', 'correct_response': 'right', 'condition': 'go'}, {'fileName': 'squareblack.png', 'correct_response': 'right', 'condition': 'go'}, {'fileName': 'squareblack.png', 'correct_response': 'right', 'condition': 'go'}, {'fileName': 'circleblack.png', 'correct_response': 'left', 'condition': 'stop'}, {'fileName': 'circleblack.png', 'correct_response': 'left', 'condition': 'stop'}, {'fileName': 'circleblack.png', 'correct_response': 'left', 'condition': 'go'}, {'fileName': 'circleblack.png', 'correct_response': 'left', 'condition': 'go'}, {'fileName': 'squareblack.png', 'correct_response': 'right', 'condition': 'go'}, {'fileName': 'circleblack.png', 'correct_response': 'left', 'condition': 'go'}, {'fileName': 'circleblack.png', 'correct_response': 'left', 'condition': 'go'}, {'fileName': 'squareblack.png', 'correct_response': 'right', 'condition': 'stop'}, {'fileName': 'squareblack.png', 'correct_response': 'right', 'condition': 'go'}, {'fileName': 'squareblack.png', 'correct_response': 'right', 'condition': 'stop'}, {'fileName': 'squareblack.png', 'correct_response': 'right', 'condition': 'go'}]","[{'fileName': 'squareblack.png', 'correct_response': 'right', 'condition': 'stop'}, {'fileName': 'circleblack.png', 'correct_response': 'left', 'condition': 'go'}, {'fileName': 'squareblack.png', 'correct_response': 'right', 'condition': 'go'}, {'fileName': 'circleblack.png', 'correct_response': 'left', 'condition': 'stop'}, {'fileName': 'squareblack.png', 'correct_response': 'right', 'condition': 'stop'}, {'fileName': 'squareblack.png', 'correct_response': 'right', 'condition': 'go'}, {'fileName': 'circleblack.png', 'correct_response': 'left', 'condition': 'go'}, {'fileName': 'circleblack.png', 'correct_response': 'left', 'condition': 'stop'}, {'fileName': 'squareblack.png', 'correct_response': 'right', 'condition': 'go'}, {'fileName': 'squareblack.png', 'correct_response': 'right', 'condition': 'go'}, {'fileName': 'circleblack.png', 'correct_response': 'left', 'condition': 'go'}, {'fileName': 'circleblack.png', 'correct_response': 'left', 'condition': 'go'}, {'fileName': 'squareblack.png', 'correct_response': 'right', 'condition': 'stop'}, {'fileName': 'circleblack.png', 'correct_response': 'left', 'condition': 'go'}, {'fileName': 'squareblack.png', 'correct_response': 'right', 'condition': 'go'}, {'fileName': 'squareblack.png', 'correct_response': 'right', 'condition': 'stop'}, {'fileName': 'circleblack.png', 'correct_response': 'left', 'condition': 'go'}, {'fileName': 'squareblack.png', 'correct_response': 'right', 'condition': 'go'}, {'fileName': 'circleblack.png', 'correct_response': 'left', 'condition': 'go'}, {'fileName': 'circleblack.png', 'correct_response': 'left', 'condition': 'go'}, {'fileName': 'circleblack.png', 'correct_response': 'left', 'condition': 'stop'}, {'fileName': 'circleblack.png', 'correct_response': 'left', 'condition': 'stop'}, {'fileName': 'squareblack.png', 'correct_response': 'right', 'condition': 'go'}, {'fileName': 'squareblack.png', 'correct_response': 'right', 'condition': 'go'}, {'fileName': 'squareblack.png', 'correct_response': 'right', 'condition': 'stop'}, {'fileName': 'circleblack.png', 'correct_response': 'left', 'condition': 'go'}, {'fileName': 'squareblack.png', 'correct_response': 'right', 'condition': 'go'}, {'fileName': 'circleblack.png', 'correct_response': 'left', 'condition': 'stop'}, {'fileName': 'circleblack.png', 'correct_response': 'left', 'condition': 'go'}, {'fileName': 'circleblack.png', 'correct_response': 'left', 'condition': 'go'}, {'fileName': 'squareblack.png', 'correct_response': 'right', 'condition': 'go'}, {'fileName': 'circleblack.png', 'correct_response': 'left', 'condition': 'stop'}, {'fileName': 'squareblack.png', 'correct_response': 'right', 'condition': 'stop'}, {'fileName': 'circleblack.png', 'correct_response': 'left', 'condition': 'go'}, {'fileName': 'squareblack.png', 'correct_response': 'right', 'condition': 'go'}, {'fileName': 'squareblack.png', 'correct_response': 'right', 'condition': 'go'}, {'fileName': 'squareblack.png', 'correct_response': 'right', 'condition': 'stop'}, {'fileName': 'squareblack.png', 'correct_response': 'right', 'condition': 'go'}, {'fileName': 'circleblack.png', 'correct_response': 'left', 'condition': 'stop'}, {'fileName': 'circleblack.png', 'correct_response': 'left', 'condition': 'go'}, {'fileName': 'circleblack.png', 'correct_response': 'left', 'condition': 'go'}, {'fileName': 'circleblack.png', 'correct_response': 'left', 'condition': 'go'}, {'fileName': 'circleblack.png', 'correct_response': 'left', 'condition': 'go'}, {'fileName': 'squareblack.png', 'correct_response': 'right', 'condition': 'go'}, {'fileName': 'squareblack.png', 'correct_response': 'right', 'condition': 'stop'}, {'fileName': 'squareblack.png', 'correct_response': 'right', 'condition': 'go'}, {'fileName': 'circleblack.png', 'correct_response': 'left', 'condition': 'stop'}, {'fileName': 'squareblack.png', 'correct_response': 'right', 'condition': 'go'}]",3503.8834237977862,3503.8834237977862,return,5.96313376352191,,,,,,,,,,,,,,,,,,,,,,,,,,,,,,,,,,,,,,,,,,,,,,,,,,,,,,,,,,,s007,001,2024-07-23_16h13.48.079,simplestop_skeleton,2022.2.2,60.006864111011446,
None,None,0,0,0,0,0,0,0,3,,,,,,,,,,,,,,,3509.895848713815,3509.895848713815,3574.849150389433,stop,circleblack.png,left,0.35,3574.870667681098,3574.870667681098,3575.3677244074643,3575.3677244074643,3575.384707853198,3575.718589246273,3576.2191793248057,3576.369117062539,3577.385576747358,3577.385576747358,None,0,3577.385576747358,3577.385576747358,0.003143060952425003,0.49201637506484985,0.8421742618083954,3577.8715406134725,practice,1,,,,,,,,,,,,,,,,,,,,,,,,,,,,,,,,s007,001,2024-07-23_16h13.48.079,simplestop_skeleton,2022.2.2,60.006864111011446,
None,None,0,0,0,0,0,1,1,2,,,,,,,,,,,,,,,,,3577.8720858208835,stop,squareblack.png,right,0.4,3577.8963108621538,3577.8963108621538,3578.3877628967166,3578.3877628967166,3578.4043850265443,3578.7881816998124,3579.288697425276,3579.3886724300683,3580.3887346349657,3580.405241563916,right,1,3580.405241563916,3580.405241563916,0.007347434759140015,0.48987511172890663,0.8901411667466164,3580.8901004716754,practice,1,0.9253266155719757,3580.908220425248,3580.908220425248,,,,,,,,,,,,,,,,,,,,,,,,,,,,,s007,001,2024-07-23_16h13.48.079,simplestop_skeleton,2022.2.2,60.006864111011446,
None,None,0,0,0,0,0,2,2,3,,,,,,,,,,,,,,,,,3580.890534721315,stop,circleblack.png,left,0.35,3580.908220425248,3580.908220425248,3581.406498849392,3581.406498849392,3581.422932088375,3581.7568439766765,3582.2570893727243,3582.4073241204023,3583.409967981279,3583.409967981279,None,0,3583.409967981279,3583.409967981279,0.001696459949016571,0.49003583937883377,0.8401781618595123,3583.894782073796,practice,1,,3583.917230885476,3583.917230885476,,,,,,,,,,,,,,,,,,,,,,,,,,,,,s007,001,2024-07-23_16h13.48.079,simplestop_skeleton,2022.2.2,60.006864111011446,
None,None,0,0,0,0,0,3,3,1,,,,,,,,,,,,,,,,,3583.895210456103,go,squareblack.png,right,0.4,3583.917230885476,3583.917230885476,3584.410972047597,3584.410972047597,3584.4278429970145,3584.8118657767773,3585.312531530857,3585.412649411708,3586.4119655638933,3586.428646057844,right,1,3586.428646057844,3586.428646057844,0.00214347243309021,0.4875005632638931,0.8876757100224495,3586.9139559939504,practice,1,0.6904632821679115,,,,,,,,,,,,,,,,,,,,,,,,,,,,,,,s007,001,2024-07-23_16h13.48.079,simplestop_skeleton,2022.2.2,60.006864111011446,
None,None,0,0,0,0,1,0,4,1,,,,,,,,,,,,,,,,,3586.9144105277956,go,circleblack.png,left,0.4,3586.932510599494,3586.932510599494,3587.431215621531,3587.431215621531,3587.447655182332,3587.8317605517805,3588.3474527820945,3588.4306195527315,3589.431831896305,3589.431831896305,left,1,3589.431831896305,3589.431831896305,0.0018247514963150024,0.4907112866640091,0.8911797180771828,3589.917340938002,practice,1,0.5325192324817181,,,,,,,,,,,,,,,,,,,,,,,,,,,,,,,s007,001,2024-07-23_16h13.48.079,simplestop_skeleton,2022.2.2,60.006864111011446,
None,None,0,0,0,0,1,1,5,1,,,,,,,,,,,,,,,,,3589.9177887178957,go,circleblack.png,left,0.4,3589.9351617209613,3589.9351617209613,3590.434364337474,3590.434364337474,3590.434364337474,3590.834682967514,3591.334147453308,3591.4342084787786,3592.4350359924138,3592.4350359924138,left,1,3592.4350359924138,3592.4350359924138,0.0013361163437366486,0.49073251709342003,0.8911257274448872,3592.9208517558873,practice,1,0.6181647144258022,,,,,,,,,,,,,,,,,,,,,,,,,,,,,,,s007,001,2024-07-23_16h13.48.079,simplestop_skeleton,2022.2.2,60.006864111011446,
None,None,0,0,0,0,1,2,6,2,,,,,,,,,,,,,,,,,3592.921283043921,go,circleblack.png,left,0.4,3592.938572373241,3592.938572373241,3593.437660627067,3593.437660627067,3593.437660627067,3593.8379751071334,3594.3373524583876,3594.43731411919,3595.438442274928,3595.438442274928,left,1,3595.438442274928,3595.438442274928,0.0013587288558483124,0.49060340598225594,0.8909699991345406,3595.924445848912,practice,1,0.41474759206175804,,,,,,,,,,,,,,,,,,,,,,,,,,,,,,,s007,001,2024-07-23_16h13.48.079,simplestop_skeleton,2022.2.2,60.006864111011446,
None,None,0,0,0,0,1,3,7,2,,,,,,,,,,,,,,,,,3595.9248896054924,go,squareblack.png,right,0.4,3595.949467983097,3595.949467983097,3596.440926615149,3596.440926615149,3596.4578832276165,3596.8401654437184,3597.340529896319,3597.4406128898263,3598.4425000473857,3598.459580563009,right,1,3598.459580563009,3598.459580563009,0.007566921412944794,0.49008404091000557,0.88927361369133,3598.944757193327,practice,1,0.013070989400148392,,,,,,,,,,,,,,,,,,,,,,,,,,,,,,,s007,001,2024-07-23_16h13.48.079,simplestop_skeleton,2022.2.2,60.006864111011446,
None,None,0,0,0,0,2,0,8,2,,,,,,,,,,,,,,,,,3598.945187766105,stop,squareblack.png,right,0.4,3598.964119244367,3598.964119244367,3599.461037952453,3599.461037952453,3599.4775466807187,3599.8614513613284,3600.3604740723968,3600.4609120488167,3601.4617460519075,3601.4784054532647,left,0,3601.4784054532647,3601.4784054532647,0.0011944100260734558,0.4899400360882282,0.8906025737524033,3601.964747246355,practice,1,0.4068047031760216,,,,,,,,,,,,,,,,,,,,,,,,,,,,,,,s007,001,2024-07-23_16h13.48.079,simplestop_skeleton,2022.2.2,60.006864111011446,
$currentCorrectResponse,$currentGoStim,0,0,0,0,2,1,9,0,,,,,,,,,,,,,,,,,3601.965175651014,go,circleblack.png,left,0.35,3601.984974320978,3601.984974320978,3602.480985801667,3602.480985801667,3602.4975792765617,3602.8313620984554,3603.3307713083923,3603.480680450797,3604.4816461764276,3604.498451281339,left,1,3604.498451281339,3604.498451281339,0.0019221343100070953,0.48999883979558945,0.8402434140443802,3604.9837724119425,practice,1,0.5647781118750572,,,,,,,,,,,,,,,,,,,,,,,,,,,,,,,s007,001,2024-07-23_16h13.48.079,simplestop_skeleton,2022.2.2,60.006864111011446,
None,None,0,0,0,0,2,2,10,3,,,,,,,,,,,,,,,,,3604.984196603298,go,squareblack.png,right,0.35,3605.002434682101,3605.002434682101,3605.500758256763,3605.500758256763,3605.517885927111,3605.8512949831784,3606.3670975863934,3606.500585090369,3607.5016830414534,3607.5016830414534,right,1,3607.5016830414534,3607.5016830414534,0.0016869045794010162,0.4906533621251583,0.8410916104912758,3607.9879279993474,practice,1,0.5739647336304188,,,,,,,,,,,,,,,,,,,,,,,,,,,,,,,s007,001,2024-07-23_16h13.48.079,simplestop_skeleton,2022.2.2,60.006864111011446,
$currentCorrectResponse,$currentGoStim,0,0,0,0,2,3,11,0,,,,,,,,,,,,,,,,,3607.988651227206,go,squareblack.png,right,0.35,3608.010084219277,3608.010084219277,3608.5060850791633,3608.5060850791633,3608.520524226129,3608.8545837439597,3609.353895612061,3609.5211080126464,3610.5220444984734,3610.5220444984734,right,1,3610.5220444984734,3610.5220444984734,0.0019681379199028015,0.4873812757432461,0.8392950817942619,3611.007216785103,practice,1,0.5019517876207829,,,,,,,,,,,,,,,,,,,,,,,,,,,,,,,s007,001,2024-07-23_16h13.48.079,simplestop_skeleton,2022.2.2,60.006864111011446,
None,None,0,0,0,0,3,0,12,1,,,,,,,,,,,,,,,,,3611.0076459236443,go,squareblack.png,right,0.35,3611.024973578751,3611.024973578751,3611.524170704186,3611.524170704186,3611.524170704186,3611.8746595159173,3612.375641539693,3612.5240470655262,3613.525047238916,3613.525047238916,right,1,3613.525047238916,3613.525047238916,0.0012135393917560577,0.4908308796584606,0.8412104956805706,3614.010331250727,practice,1,0.6316606029868126,,,,,,,,,,,,,,,,,,,,,,,,,,,,,,,s007,001,2024-07-23_16h13.48.079,simplestop_skeleton,2022.2.2,60.006864111011446,
$currentCorrectResponse,$currentGoStim,0,0,0,0,3,1,13,0,,,,,,,,,,,,,,,,,3614.0107532329857,stop,circleblack.png,left,0.35,3614.031406465918,3614.031406465918,3614.527578704059,3614.527578704059,3614.5441953763366,3614.8780169822276,3615.377265777439,3615.527248788625,3616.5282439291477,3616.5451022833586,left,1,3616.5451022833586,3616.5451022833586,0.0050816163420677185,0.4909616857767105,0.8411285988986492,3617.0305607542396,practice,1,0.4579177387058735,,,,,,,,,,,,,,,,,,,,,,,,,,,,,,,s007,001,2024-07-23_16h13.48.079,simplestop_skeleton,2022.2.2,60.006864111011446,
None,None,0,0,0,0,3,2,14,3,,,,,,,,,,,,,,,,,3617.03098853305,stop,circleblack.png,left,0.3,3617.0482024736702,3617.0482024736702,3617.547576315701,3617.547576315701,3617.547576315701,3617.847867935896,3618.348827637732,3618.5473564453423,3619.548344936222,3619.548344936222,left,1,3619.548344936222,3619.548344936222,0.0012711584568023682,0.49075997620821,0.7909351214766502,3620.03363641724,practice,1,0.6177447736263275,,,,,,,,,,,,,,,,,,,,,,,,,,,,,,,s007,001,2024-07-23_16h13.48.079,simplestop_skeleton,2022.2.2,60.006864111011446,
None,None,0,0,0,0,3,3,15,3,,,,,,,,,,,,,,,,,3620.0340593904257,go,circleblack.png,left,0.25,3620.05150661245,3620.05150661245,3620.55089096725,3620.55089096725,3620.55089096725,3620.8012138083577,3621.3016964308918,3621.5506636165082,3622.551603473723,3622.551603473723,left,1,3622.551603473723,3622.551603473723,0.0013348981738090515,0.49119972810149193,0.7413537316024303,3623.037314593792,practice,1,0.6475689224898815,,,,,,,,,,,,,,,,,,,,,,,,,,,,,,,s007,001,2024-07-23_16h13.48.079,simplestop_skeleton,2022.2.2,60.006864111011446,
$currentCorrectResponse,$currentGoStim,0,0,0,0,4,0,16,0,,,,,,,,,,,,,,,,,3623.0377469547093,go,circleblack.png,left,0.25,3623.0549268499017,3623.0549268499017,3623.5544007606804,3623.5544007606804,3623.5544007606804,3623.8044831864536,3624.305418666452,3624.554143309593,3625.554966263473,3625.554966263473,left,1,3625.554966263473,3625.554966263473,0.0012672059237957,0.4906242713332176,0.7408996596932411,3626.0401162169874,practice,1,0.723492369055748,,,,,,,,,,,,,,,,,,,,,,,,,,,,,,,s007,001,2024-07-23_16h13.48.079,simplestop_skeleton,2022.2.2,60.006864111011446,
None,None,0,0,0,0,4,1,17,1,,,,,,,,,,,,,,,,,3626.040541946888,go,squareblack.png,right,0.25,3626.060390368104,3626.060390368104,3626.5574166737497,3626.5574166737497,3626.5742218494415,3626.807775530964,3627.3086128756404,3627.5571256019175,3628.55816090852,3628.5749761387706,right,1,3628.5749761387706,3628.5749761387706,0.002151407301425934,0.49144330993294716,0.7416439615190029,3629.0601355545223,practice,1,0.5797237791121006,,,,,,,,,,,,,,,,,,,,,,,,,,,,,,,s007,001,2024-07-23_16h13.48.079,simplestop_skeleton,2022.2.2,60.006864111011446,
None,None,0,0,0,0,4,2,18,2,,,,,,,,,,,,,,,,,3629.060563109815,go,circleblack.png,left,0.25,3629.078094612807,3629.078094612807,3629.5776066444814,3629.5776066444814,3629.5776066444814,3629.827790558338,3630.328596174717,3630.5771359689534,3631.5782709643245,3631.5782709643245,left,1,3631.5782709643245,3631.5782709643245,0.0018036700785160065,0.49081747978925705,0.741266168653965,3632.063811082393,practice,1,0.5561987794935703,,,,,,,,,,,,,,,,,,,,,,,,,,,,,,,s007,001,2024-07-23_16h13.48.079,simplestop_skeleton,2022.2.2,60.006864111011446,
None,None,0,0,0,0,4,3,19,2,,,,,,,,,,,,,,,,,3632.0642343088984,go,circleblack.png,left,0.25,3632.0812034383416,3632.0812034383416,3632.5809860117733,3632.5809860117733,3632.5809860117733,3632.8311835974455,3633.3303452804685,3633.580560654402,3634.5815896093845,3634.5815896093845,left,1,3634.5815896093845,3634.5815896093845,0.0012695752084255219,0.49087754264473915,0.7409957982599735,3635.066836439073,practice,1,0.3753347285091877,,,,,,,,,,,,,,,,,,,,,,,,,,,,,,,s007,001,2024-07-23_16h13.48.079,simplestop_skeleton,2022.2.2,60.006864111011446,
$currentCorrectResponse,$currentGoStim,0,0,0,0,5,0,20,0,,,,,,,,,,,,,,,,,3635.0672629512846,stop,squareblack.png,right,0.25,3635.0903805717826,3635.0903805717826,3635.5842733085155,3635.5842733085155,3635.6008139401674,3635.8346729278564,3636.335240200162,3636.583842586726,3637.584901019931,3637.6015951372683,right,1,3637.6015951372683,3637.6015951372683,0.007624294608831406,0.4912189207971096,0.7414641566574574,3638.086797911674,practice,1,0.5735747776925564,,,,,,,,,,,,,,,,,,,,,,,,,,,,,,,s007,001,2024-07-23_16h13.48.079,simplestop_skeleton,2022.2.2,60.006864111011446,
None,None,0,0,0,0,5,1,21,1,,,,,,,,,,,,,,,,,3638.087222274393,go,squareblack.png,right,0.2,3638.104640573263,3638.104640573263,3638.604023106396,3638.604023106396,3638.604023106396,3638.804545778781,3639.305159844458,3639.6037826389074,3640.6050178557634,3640.6050178557634,right,1,3640.6050178557634,3640.6050178557634,0.0012237392365932465,0.4909357503056526,0.6910897828638554,3641.0901861339808,practice,1,0.5727016963064671,,,,,,,,,,,,,,,,,,,,,,,,,,,,,,,s007,001,2024-07-23_16h13.48.079,simplestop_skeleton,2022.2.2,60.006864111011446,
$currentCorrectResponse,$currentGoStim,0,0,0,0,5,2,22,0,,,,,,,,,,,,,,,,,3641.090619958937,stop,squareblack.png,right,0.2,3641.107946932316,3641.107946932316,3641.607638977468,3641.607638977468,3641.607638977468,3641.807801954448,3642.3081844076514,3642.6084471791983,3643.60988984257,3643.60988984257,None,0,3643.60988984257,3643.60988984257,0.0012170113623142242,0.4907803349196911,0.69108771905303,3644.0945997685194,practice,1,,,,,,,,,,,,,,,,,,,,,,,,,,,,,,,,s007,001,2024-07-23_16h13.48.079,simplestop_skeleton,2022.2.2,60.006864111011446,
None,None,0,0,0,0,5,3,23,3,,,,,,,,,,,,,,,,,3644.0950273759663,go,squareblack.png,right,0.25,3644.114190541208,3644.114190541208,3644.61074475199,3644.61074475199,3644.6275991797447,3644.861048474908,3645.361618217081,3645.6105817444623,3646.61153402552,3646.628190483898,right,1,3646.628190483898,3646.628190483898,0.0012379363179206848,0.4899013862013817,0.7401863373816013,3647.1130632199347,practice,1,0.7079654447734356,,,,,,,,,,,,,,,,,,,,,,,,,,,,,,,s007,001,2024-07-23_16h13.48.079,simplestop_skeleton,2022.2.2,60.006864111011446,
,,0,0,0,0,,,,,,,,,,,,,"[{'fileName': 'circleblack.png', 'correct_response': 'left', 'condition': 'go'}, {'fileName': 'circleblack.png', 'correct_response': 'left', 'condition': 'go'}, {'fileName': 'circleblack.png', 'correct_response': 'left', 'condition': 'stop'}, {'fileName': 'squareblack.png', 'correct_response': 'right', 'condition': 'stop'}, {'fileName': 'squareblack.png', 'correct_response': 'right', 'condition': 'go'}, {'fileName': 'squareblack.png', 'correct_response': 'right', 'condition': 'go'}, {'fileName': 'circleblack.png', 'correct_response': 'left', 'condition': 'stop'}, {'fileName': 'squareblack.png', 'correct_response': 'right', 'condition': 'stop'}, {'fileName': 'circleblack.png', 'correct_response': 'left', 'condition': 'go'}, {'fileName': 'squareblack.png', 'correct_response': 'right', 'condition': 'go'}, {'fileName': 'squareblack.png', 'correct_response': 'right', 'condition': 'go'}, {'fileName': 'circleblack.png', 'correct_response': 'left', 'condition': 'go'}, {'fileName': 'circleblack.png', 'correct_response': 'left', 'condition': 'go'}, {'fileName': 'squareblack.png', 'correct_response': 'right', 'condition': 'go'}, {'fileName': 'squareblack.png', 'correct_response': 'right', 'condition': 'go'}, {'fileName': 'squareblack.png', 'correct_response': 'right', 'condition': 'go'}, {'fileName': 'circleblack.png', 'correct_response': 'left', 'condition': 'go'}, {'fileName': 'squareblack.png', 'correct_response': 'right', 'condition': 'go'}, {'fileName': 'circleblack.png', 'correct_response': 'left', 'condition': 'go'}, {'fileName': 'circleblack.png', 'correct_response': 'left', 'condition': 'stop'}, {'fileName': 'squareblack.png', 'correct_response': 'right', 'condition': 'stop'}, {'fileName': 'circleblack.png', 'correct_response': 'left', 'condition': 'stop'}, {'fileName': 'circleblack.png', 'correct_response': 'left', 'condition': 'go'}, {'fileName': 'squareblack.png', 'correct_response': 'right', 'condition': 'stop'}]",,,,,,,,,,,,,,,,,,,,,,,,,,,,,,,,,,,,3647.129363451153,3647.129363451153,return,2.1040736697614193,,,,,,,,,,,,,,,,,,,,,,,,,s007,001,2024-07-23_16h13.48.079,simplestop_skeleton,2022.2.2,60.006864111011446,
None,None,,,,,,,,,0,0,0,0,0,0,0,2,,,,,,,,,3659.14500810951,stop,squareblack.png,right,0.25,,,,,,,,,,,,,,,0.002092510461807251,0.48960209637880325,0.7398209869861603,3661.647766608745,test,1,,,,,,,,3649.2498083524406,3649.2498083524406,3659.164254914969,3659.660690151155,3659.660690151155,3659.6778606809676,3659.9112104438245,3660.4116853922606,3660.6618178337812,3661.672914274037,None,0,0.3,,,,,,,,,,,,s007,001,2024-07-23_16h13.48.079,simplestop_skeleton,2022.2.2,60.006864111011446,
$currentCorrectResponse,$currentGoStim,,,,,,,,,0,0,0,0,0,1,1,0,,,,,,,,,3661.6483203209937,go,circleblack.png,left,0.3,,,,,,,,,,,,,,,0.008150629699230194,0.4892522878944874,,3664.148780439049,test,1,,,,,,,,,,3661.672914274037,3662.163762755692,3662.163762755692,3662.180229127407,3662.463839791715,3662.9647376798093,3663.163168027997,3664.166030857712,left,1,0.3,0.5437673777341843,,,,,,,,,,,s007,001,2024-07-23_16h13.48.079,simplestop_skeleton,2022.2.2,60.006864111011446,
None,None,,,,,,,,,0,0,0,0,0,2,2,3,,,,,,,,,3664.149225462228,go,squareblack.png,right,0.3,,,,,,,,,,,,,,,0.0015677809715270996,0.4897168278694153,,3666.6528512574732,test,1,,,,,,,,,,3664.166030857712,3664.6652440540493,3664.6652440540493,3664.6817357577384,3664.9651669859886,3665.4657564349473,3665.6660076379776,3666.6726179756224,right,1,0.3,0.508896715939045,,,,,,,,,,,s007,001,2024-07-23_16h13.48.079,simplestop_skeleton,2022.2.2,60.006864111011446,
$currentCorrectResponse,$currentGoStim,,,,,,,,,0,0,0,0,0,3,3,0,,,,,,,,,3666.653291672468,stop,circleblack.png,left,0.3,,,,,,,,,,,,,,,0.0019596070051193237,0.4897107966244221,0.7900389991700649,3669.155844889581,test,1,,,,,,,,,,3666.6726179756224,3667.1689750142395,3667.1689750142395,3667.185599256307,3667.4693140387535,3667.9684802144766,3668.168640885502,3669.1730293780565,left,1,0.25,0.4735453985631466,,,,,,,,,,,s007,001,2024-07-23_16h13.48.079,simplestop_skeleton,2022.2.2,60.006864111011446,
None,None,,,,,,,,,0,0,0,0,1,0,4,2,,,,,,,,,3669.1562961265445,stop,squareblack.png,right,0.25,,,,,,,,,,,,,,,0.0015488751232624054,0.488142479211092,0.7383292876183987,3671.658392831683,test,1,,,,,,,,,,3669.1730293780565,3669.670409101993,3669.670409101993,3669.6870225332677,3669.9206031262875,3670.4210776537657,3670.671463277191,3671.677556656301,None,0,0.3,,,,,,,,,,,,s007,001,2024-07-23_16h13.48.079,simplestop_skeleton,2022.2.2,60.006864111011446,
None,None,,,,,,,,,0,0,0,0,1,1,5,2,,,,,,,,,3671.6589339748025,go,squareblack.png,right,0.3,,,,,,,,,,,,,,,0.0013028867542743683,0.4894748106598854,,3674.1602303907275,test,1,,,,,,,,,,3671.677556656301,3672.1745214127004,3672.1745214127004,3672.19119560346,3672.474845636636,3672.9755243733525,3673.1742492057383,3674.178253609687,right,1,0.3,0.6965349614620209,,,,,,,,,,,s007,001,2024-07-23_16h13.48.079,simplestop_skeleton,2022.2.2,60.006864111011446,
$currentCorrectResponse,$currentGoStim,,,,,,,,,0,0,0,0,1,2,6,0,,,,,,,,,3674.1606833711267,go,circleblack.png,left,0.3,,,,,,,,,,,,,,,0.002147231251001358,0.48890260607004166,,3676.6633790023625,test,1,,,,,,,,,,3674.178253609687,3674.6757536120713,3674.6757536120713,3674.6924789324403,3674.9762027822435,3675.4769646786153,3675.6770072616637,3676.6808981597424,left,1,0.3,0.6684817336499691,,,,,,,,,,,s007,001,2024-07-23_16h13.48.079,simplestop_skeleton,2022.2.2,60.006864111011446,
None,None,,,,,,,,,0,0,0,0,1,3,7,2,,,,,,,,,3676.663825958967,stop,circleblack.png,left,0.3,,,,,,,,,,,,,,,0.001258164644241333,0.4900617264211178,0.7905221655964851,3679.166901487857,test,1,,,,,,,,,,3676.6808981597424,3677.1799300312996,3677.1799300312996,3677.1966893598437,3677.480674766004,3677.9812059253454,3678.1810719184577,3679.186408150941,None,0,0.35,,,,,,,,,,,,s007,001,2024-07-23_16h13.48.079,simplestop_skeleton,2022.2.2,60.006864111011446,
None,None,,,,,,,,,0,0,0,0,2,0,8,3,,,,,,,,,3679.1673468463123,go,squareblack.png,right,0.35,,,,,,,,,,,,,,,0.0017985627055168152,0.48959194123744965,,3681.6680712476373,test,1,,,,,,,,,,3679.186408150941,3679.6827928982675,3679.6827928982675,3679.6994660273194,3680.033187620342,3680.534180879593,3680.6824982613325,3681.6847788207233,right,1,0.35,0.6346230432391167,,,,,,,,,,,s007,001,2024-07-23_16h13.48.079,simplestop_skeleton,2022.2.2,60.006864111011446,
$currentCorrectResponse,$currentGoStim,,,,,,,,,0,0,0,0,2,1,9,0,,,,,,,,,3681.6685132719576,go,squareblack.png,right,0.35,,,,,,,,,,,,,,,0.0011589042842388153,0.4940533936023712,,3684.171850051731,test,1,,,,,,,,,,3681.6847788207233,3682.1842546500266,3682.1842546500266,3682.1842546500266,3682.5345163978636,3683.0349825061858,3683.18540051952,3684.1893674843013,right,1,0.35,0.6429310999810696,,,,,,,,,,,s007,001,2024-07-23_16h13.48.079,simplestop_skeleton,2022.2.2,60.006864111011446,
None,None,,,,,,,,,0,0,0,0,2,2,10,1,,,,,,,,,3684.172313347459,go,circleblack.png,left,0.35,,,,,,,,,,,,,,,0.0019463710486888885,0.4899403937160969,,3686.6736462898552,test,1,,,,,,,,,,3684.1893674843013,3684.6882226243615,3684.6882226243615,3684.705142285675,3685.038754720241,3685.538079030812,3685.6879660896957,3686.6906408704817,left,1,0.35,0.4877013564109802,,,,,,,,,,,s007,001,2024-07-23_16h13.48.079,simplestop_skeleton,2022.2.2,60.006864111011446,
None,None,,,,,,,,,0,0,0,0,2,3,11,1,,,,,,,,,3686.6741082035005,go,circleblack.png,left,0.35,,,,,,,,,,,,,,,0.0012307055294513702,0.48961498960852623,,3689.1778450645506,test,1,,,,,,,,,,3686.6906408704817,3687.189751341939,3687.189751341939,3687.206496462226,3687.5399474464357,3688.0405892543495,3688.190891623497,3689.1969354748726,left,1,0.35,0.5869059450924397,,,,,,,,,,,s007,001,2024-07-23_16h13.48.079,simplestop_skeleton,2022.2.2,60.006864111011446,
None,None,,,,,,,,,0,0,0,0,3,0,12,2,,,,,,,,,3689.1782964020967,stop,squareblack.png,right,0.35,,,,,,,,,,,,,,,0.0017480552196502686,0.48959869146347046,0.8400022312998772,3691.6790879778564,test,1,,,,,,,,,,3689.1969354748726,3689.693784661591,3689.693784661591,3689.710516281426,3690.044160235673,3690.543992213905,3690.6949028857052,3691.6962904818356,None,0,0.4,,,,,,,,,,,,s007,001,2024-07-23_16h13.48.079,simplestop_skeleton,2022.2.2,60.006864111011446,
$currentCorrectResponse,$currentGoStim,,,,,,,,,0,0,0,0,3,1,13,0,,,,,,,,,3691.679534420371,go,circleblack.png,left,0.4,,,,,,,,,,,,,,,0.0017126090824604034,0.48959529772400856,,3694.1819925531745,test,1,,,,,,,,,,3691.6962904818356,3692.1951240450144,3692.1951240450144,3692.2118200547993,3692.5955240167677,3693.096180960536,3693.1962994001806,3694.199232991785,left,1,0.4,0.5464518703520298,,,,,,,,,,,s007,001,2024-07-23_16h13.48.079,simplestop_skeleton,2022.2.2,60.006864111011446,
$currentCorrectResponse,$currentGoStim,,,,,,,,,0,0,0,0,3,2,14,0,,,,,,,,,3694.182438917458,go,squareblack.png,right,0.4,,,,,,,,,,,,,,,0.0016427412629127502,0.48985954746603966,,3696.6862515211105,test,1,,,,,,,,,,3694.199232991785,3694.6980292610824,3694.6980292610824,3694.7147861644626,3695.098446674645,3695.5991418510675,3695.699046649039,3696.7053113393486,right,1,0.4,0.5541985034942627,,,,,,,,,,,s007,001,2024-07-23_16h13.48.079,simplestop_skeleton,2022.2.2,60.006864111011446,
$currentCorrectResponse,$currentGoStim,,,,,,,,,0,0,0,0,3,3,15,0,,,,,,,,,3696.6866982243955,stop,squareblack.png,right,0.4,,,,,,,,,,,,,,,0.0014178194105625153,0.4891864061355591,0.8897035010159016,3699.1889339908957,test,1,,,,,,,,,,3696.7053113393486,3697.2021749205887,3697.2021749205887,3697.2186905257404,3697.6024477258325,3698.103411335498,3698.203444123268,3699.2087175138295,None,0,0.45,,,,,,,,,,,,s007,001,2024-07-23_16h13.48.079,simplestop_skeleton,2022.2.2,60.006864111011446,
None,None,,,,,,,,,0,0,0,0,4,0,16,2,,,,,,,,,3699.189432438463,go,circleblack.png,left,0.45,,,,,,,,,,,,,,,0.001971740275621414,0.48946844786405563,,3701.690096322447,test,1,,,,,,,,,,3699.2087175138295,3699.7048796601593,3699.7048796601593,3699.721346255392,3700.1558768860996,3700.671201094985,3700.7047616280615,3701.707316096872,left,1,0.45,0.573492344468832,,,,,,,,,,,s007,001,2024-07-23_16h13.48.079,simplestop_skeleton,2022.2.2,60.006864111011446,
None,None,,,,,,,,,0,0,0,0,4,1,17,3,,,,,,,,,3701.6905567012727,go,squareblack.png,right,0.45,,,,,,,,,,,,,,,0.0016214512288570404,0.48965584486722946,,3704.194422788918,test,1,,,,,,,,,,3701.707316096872,3702.2061132080853,3702.2061132080853,3702.222810834646,3702.656886037439,3703.157215151936,3703.207250740379,3704.2139378637075,right,1,0.45,0.7222127690911293,,,,,,,,,,,s007,001,2024-07-23_16h13.48.079,simplestop_skeleton,2022.2.2,60.006864111011446,
None,None,,,,,,,,,0,0,0,0,4,2,18,2,,,,,,,,,3704.194859754294,go,circleblack.png,left,0.45,,,,,,,,,,,,,,,0.001813746988773346,0.48952748998999596,,3706.6956636719406,test,1,,,,,,,,,,3704.2139378637075,3704.710323728621,3704.710323728621,3704.7269847281277,3705.1608063168824,3705.660072270781,3705.710272591561,3706.7124578393996,left,1,0.45,0.5948893465101719,,,,,,,,,,,s007,001,2024-07-23_16h13.48.079,simplestop_skeleton,2022.2.2,60.006864111011446,
None,None,,,,,,,,,0,0,0,0,4,3,19,1,,,,,,,,,3706.696122352034,go,circleblack.png,left,0.45,,,,,,,,,,,,,,,0.0012271478772163391,0.48982976749539375,,3709.199228543788,test,1,,,,,,,,,,3706.7124578393996,3707.2117244154215,3707.2117244154215,3707.2117244154215,3707.662247803062,3708.163185298443,3708.2129304632545,3709.2182339690626,left,1,0.45,0.6254523545503616,,,,,,,,,,,s007,001,2024-07-23_16h13.48.079,simplestop_skeleton,2022.2.2,60.006864111011446,
$currentCorrectResponse,$currentGoStim,,,,,,,,,0,0,0,0,5,0,20,0,,,,,,,,,3709.1997286602855,stop,circleblack.png,left,0.45,,,,,,,,,,,,,,,0.00127454474568367,0.49029309675097466,0.9407938122749329,3711.701402898878,test,1,,,,,,,,,,3709.2182339690626,3709.715892929584,3709.715892929584,3709.7326272018254,3710.166479036212,3710.6657259315252,3710.7158007845283,3711.73242296651,left,1,0.4,0.6121379695832729,,,,,,,,,,,s007,001,2024-07-23_16h13.48.079,simplestop_skeleton,2022.2.2,60.006864111011446,
None,None,,,,,,,,,0,0,0,0,5,1,21,1,,,,,,,,,3711.7018644958735,stop,circleblack.png,left,0.4,,,,,,,,,,,,,,,0.0013363100588321686,0.4902147203683853,0.891353752464056,3714.2045860625803,test,1,,,,,,,,,,3711.73242296651,3712.2197136469185,3712.2197136469185,3712.233932234347,3712.619140356779,3713.134898029268,3713.2349903956056,3714.227550867945,None,0,0.45,,,,,,,,,,,,s007,001,2024-07-23_16h13.48.079,simplestop_skeleton,2022.2.2,60.006864111011446,
None,None,,,,,,,,,0,0,0,0,5,2,22,1,,,,,,,,,3714.205039497465,go,squareblack.png,right,0.45,,,,,,,,,,,,,,,0.0077107250690460205,0.49043041467666626,,3716.7068272680044,test,1,,,,,,,,,,3714.227550867945,3714.721534077078,3714.721534077078,3714.7380666695535,3715.1718957163393,3715.6710698716342,3715.7211539670825,3716.737898848951,right,1,0.45,0.6557991579174995,,,,,,,,,,,s007,001,2024-07-23_16h13.48.079,simplestop_skeleton,2022.2.2,60.006864111011446,
None,None,,,,,,,,,0,0,0,0,5,3,23,3,,,,,,,,,3716.7072725854814,go,squareblack.png,right,0.45,,,,,,,,,,,,,,,0.001176159828901291,0.48929157480597496,,3719.210503704846,test,1,,,,,,,,,,3716.737898848951,3717.222780752927,3717.222780752927,3717.239335298538,3717.673286035657,3718.174168586731,3718.2238067016006,3719.2272809408605,right,1,0.45,0.787948738783598,,,,,,,,,,,s007,001,2024-07-23_16h13.48.079,simplestop_skeleton,2022.2.2,60.006864111011446,
$currentCorrectResponse,$currentGoStim,,,,,,,,,0,0,0,0,6,0,24,0,,,,,,,,,3719.2109525874257,stop,squareblack.png,right,0.45,,,,,,,,,,,,,,,0.0012128576636314392,0.49010027572512627,0.9405777342617512,3721.7123652733862,test,1,,,,,,,,,,3719.2272809408605,3719.7269101962447,3719.7269101962447,3719.7269101962447,3720.1774635985494,3720.677937656641,3720.7279862090945,3721.729855787009,None,0,0.5,,,,,,,,,,,,s007,001,2024-07-23_16h13.48.079,simplestop_skeleton,2022.2.2,60.006864111011446,
None,None,,,,,,,,,0,0,0,0,6,1,25,3,,,,,,,,,3721.7128271497786,go,circleblack.png,left,0.5,,,,,,,,,,,,,,,0.0018705129623413086,0.48965009301900864,,3724.2150681503117,test,1,,,,,,,,,,3721.729855787009,3722.22822701931,3722.22822701931,3722.244916625321,3722.7288535796106,3723.229286018759,3723.229286018759,3724.2322086021304,left,1,0.5,0.7627291716635227,,,,,,,,,,,s007,001,2024-07-23_16h13.48.079,simplestop_skeleton,2022.2.2,60.006864111011446,
None,None,,,,,,,,,0,0,0,0,6,2,26,2,,,,,,,,,3724.2155367210507,go,squareblack.png,right,0.5,,,,,,,,,,,,,,,0.0016172677278518677,0.4897308386862278,,3726.7190868854523,test,1,,,,,,,,,,3724.2322086021304,3724.731082636863,3724.731082636863,3724.7479513138533,3725.2316228300333,3725.732184700668,3725.732184700668,3726.73864024505,right,1,0.5,0.6417969390749931,,,,,,,,,,,s007,001,2024-07-23_16h13.48.079,simplestop_skeleton,2022.2.2,60.006864111011446,
None,None,,,,,,,,,0,0,0,0,6,3,27,1,,,,,,,,,3726.719524744898,stop,circleblack.png,left,0.5,,,,,,,,,,,,,,,0.0018462687730789185,0.48982488363981247,0.9904656559228897,3729.2220420874655,test,1,,,,,,,,,,3726.73864024505,3727.235305529088,3727.235305529088,3727.2519383244216,3727.735691662878,3728.235133808106,3728.235133808106,3729.2416957505047,left,1,0.45,0.6136724129319191,,,,,,,,,,,s007,001,2024-07-23_16h13.48.079,simplestop_skeleton,2022.2.2,60.006864111011446,
None,None,,,,,,,,,0,0,0,0,7,0,28,2,,,,,,,,,3729.2224890999496,go,circleblack.png,left,0.45,,,,,,,,,,,,,,,0.00152675062417984,0.48806465044617653,,3731.72318950668,test,1,,,,,,,,,,3729.2416957505047,3729.736650262028,3729.736650262028,3729.753269869834,3730.1889824308455,3730.7041954658926,3730.737609434873,3731.7399755977094,left,1,0.45,0.7914856038987637,,,,,,,,,,,s007,001,2024-07-23_16h13.48.079,simplestop_skeleton,2022.2.2,60.006864111011446,
$currentCorrectResponse,$currentGoStim,,,,,,,,,0,0,0,0,7,1,29,0,,,,,,,,,3731.7236316017807,go,circleblack.png,left,0.45,,,,,,,,,,,,,,,0.0012479498982429504,0.48974158614873886,,3734.2274397090077,test,1,,,,,,,,,,3731.7399755977094,3732.239280037582,3732.239280037582,3732.239280037582,3732.6897683888674,3733.1904416270554,3733.240335136652,3734.246663354337,left,1,0.45,0.6778872571885586,,,,,,,,,,,s007,001,2024-07-23_16h13.48.079,simplestop_skeleton,2022.2.2,60.006864111011446,
None,None,,,,,,,,,0,0,0,0,7,2,30,3,,,,,,,,,3734.2278896309435,go,squareblack.png,right,0.45,,,,,,,,,,,,,,,0.0017649605870246887,0.4898459427058697,,3736.7292809188366,test,1,,,,,,,,,,3734.246663354337,3734.7435041479766,3734.7435041479766,3734.7601607367396,3735.19390777871,3735.6949860714376,3735.7450312785804,3736.7476557046175,right,1,0.45,0.7024515606462955,,,,,,,,,,,s007,001,2024-07-23_16h13.48.079,simplestop_skeleton,2022.2.2,60.006864111011446,
None,None,,,,,,,,,0,0,0,0,7,3,31,1,,,,,,,,,3736.7297359779477,stop,circleblack.png,left,0.45,,,,,,,,,,,,,,,0.0018049068748950958,0.48856862261891365,0.9391329474747181,3739.232557553798,test,1,,,,,,,,,,3736.7476557046175,3737.244775570929,3737.244775570929,3737.261425625533,3737.695376470685,3738.195935636759,3738.2460065595806,3739.2506437450647,None,0,0.5,,,,,,,,,,,,s007,001,2024-07-23_16h13.48.079,simplestop_skeleton,2022.2.2,60.006864111011446,
None,None,,,,,,,,,0,0,0,0,8,0,32,3,,,,,,,,,3739.233001600951,stop,squareblack.png,right,0.5,,,,,,,,,,,,,,,0.0018200986087322235,0.4900905005633831,0.9905456155538559,3741.7358015738428,test,1,,,,,,,,,,3739.2506437450647,3739.749448660761,3739.749448660761,3739.7656473480165,3740.2494454979897,3740.7498854994774,3740.7498854994774,3741.7549172230065,None,0,0.55,,,,,,,,,,,,s007,001,2024-07-23_16h13.48.079,simplestop_skeleton,2022.2.2,60.006864111011446,
None,None,,,,,,,,,0,0,0,0,8,1,33,1,,,,,,,,,3741.7362539172173,go,circleblack.png,left,0.55,,,,,,,,,,,,,,,0.00177837535738945,0.4898033179342747,,3744.2373814098537,test,1,,,,,,,,,,3741.7549172230065,3742.2517645321786,3742.2517645321786,3742.2685225196183,3742.8023738265038,3743.3032094053924,3743.2538753785193,3744.2551384083927,left,1,0.55,0.8608655110001564,,,,,,,,,,,s007,001,2024-07-23_16h13.48.079,simplestop_skeleton,2022.2.2,60.006864111011446,
None,None,,,,,,,,,0,0,0,0,8,2,34,2,,,,,,,,,3744.2378449887037,go,squareblack.png,right,0.55,,,,,,,,,,,,,,,0.0016522370278835297,0.4891730733215809,,3746.7396901398897,test,1,,,,,,,,,,3744.2551384083927,3744.753179553896,3744.753179553896,3744.7699631750584,3745.303826980293,3745.8042674548924,3745.7541706375778,3746.7566133998334,right,1,0.55,0.7712887190282345,,,,,,,,,,,s007,001,2024-07-23_16h13.48.079,simplestop_skeleton,2022.2.2,60.006864111011446,
None,None,,,,,,,,,0,0,0,0,8,3,35,1,,,,,,,,,3746.7401560023427,go,squareblack.png,right,0.55,,,,,,,,,,,,,,,0.0011841841042041779,0.4899120032787323,,3749.2441295795143,test,1,,,,,,,,,,3746.7566133998334,3747.2560274116695,3747.2560274116695,3747.2560274116695,3747.8067984469235,3748.3070151805878,3748.256969731301,3749.263485778123,right,1,0.55,0.8430352471768856,,,,,,,,,,,s007,001,2024-07-23_16h13.48.079,simplestop_skeleton,2022.2.2,60.006864111011446,
None,None,,,,,,,,,0,0,0,0,9,0,36,3,,,,,,,,,3749.2445928417146,stop,squareblack.png,right,0.55,,,,,,,,,,,,,,,0.0013870596885681152,0.4893326312303543,1.0400494262576103,3751.745689880103,test,1,,,,,,,,,,3749.263485778123,3749.7603528238833,3749.7603528238833,3749.77667979151,3750.3107493519783,3750.8110924996436,3750.76128719002,3751.7626363784075,None,0,0.6,,,,,,,,,,,,s007,001,2024-07-23_16h13.48.079,simplestop_skeleton,2022.2.2,60.006864111011446,
None,None,,,,,,,,,0,0,0,0,9,1,37,2,,,,,,,,,3751.746172837913,go,squareblack.png,right,0.6,,,,,,,,,,,,,,,0.0011792555451393127,0.48924189433455467,,3754.2480644248426,test,1,,,,,,,,,,3751.7626363784075,3752.2614937350154,3752.2614937350154,3752.278063375503,3752.8622200861573,3753.362581346184,3753.262544374913,3754.2710296846926,right,1,0.6,0.7931554317474365,,,,,,,,,,,s007,001,2024-07-23_16h13.48.079,simplestop_skeleton,2022.2.2,60.006864111011446,
None,None,,,,,,,,,0,0,0,0,9,2,38,1,,,,,,,,,3754.248514957726,stop,circleblack.png,left,0.6,,,,,,,,,,,,,,,0.008093975484371185,0.4897865280508995,1.0903061144053936,3756.7519316375256,test,1,,,,,,,,,,3754.2710296846926,3754.764382213354,3754.764382213354,3754.781101003289,3755.3647623993456,3755.8655426688492,3755.7653794661164,3756.7708885483444,left,1,0.55,0.7634803466498852,,,,,,,,,,,s007,001,2024-07-23_16h13.48.079,simplestop_skeleton,2022.2.2,60.006864111011446,
None,None,,,,,,,,,0,0,0,0,9,3,39,3,,,,,,,,,3756.7523791119456,go,circleblack.png,left,0.55,,,,,,,,,,,,,,,0.001250430941581726,0.4898056723177433,,3759.2546212635934,test,1,,,,,,,,,,3756.7708885483444,3757.2683723159134,3757.2683723159134,3757.285078085959,3757.8188706487417,3758.3199016600847,3758.2698884643614,3759.273268312216,left,1,0.55,0.8098074905574322,,,,,,,,,,,s007,001,2024-07-23_16h13.48.079,simplestop_skeleton,2022.2.2,60.006864111011446,
None,None,,,,,,,,,0,0,0,0,10,0,40,3,,,,,,,,,3759.2550861798227,go,circleblack.png,left,0.55,,,,,,,,,,,,,,,0.0014670677483081818,0.48809124156832695,,3761.7570948153734,test,1,,,,,,,,,,3759.273268312216,3759.7696240097284,3759.7696240097284,3759.7863929606974,3760.320340409875,3760.8208491280675,3760.7708391286433,3761.774362374097,left,1,0.55,0.8355665281414986,,,,,,,,,,,s007,001,2024-07-23_16h13.48.079,simplestop_skeleton,2022.2.2,60.006864111011446,
None,None,,,,,,,,,0,0,0,0,10,1,41,3,,,,,,,,,3761.757551908493,go,circleblack.png,left,0.55,,,,,,,,,,,,,,,0.0012790486216545105,0.4891136661171913,,3764.2603723555803,test,1,,,,,,,,,,3761.774362374097,3762.2725308537483,3762.2725308537483,3762.2893243692815,3762.823045592755,3763.3236764222383,3763.2736270688474,3764.2796205207705,left,1,0.55,0.8097969368100166,,,,,,,,,,,s007,001,2024-07-23_16h13.48.079,simplestop_skeleton,2022.2.2,60.006864111011446,
None,None,,,,,,,,,0,0,0,0,10,2,42,2,,,,,,,,,3764.2608353048563,go,circleblack.png,left,0.55,,,,,,,,,,,,,,,0.0012978576123714447,0.4897124543786049,,3766.7630164921284,test,1,,,,,,,,,,3764.2796205207705,3764.7768202610314,3764.7768202610314,3764.79357014969,3765.3270974457264,3765.8281525298953,3765.7781486772,3766.7870852574706,left,1,0.55,0.6886113248765469,,,,,,,,,,,s007,001,2024-07-23_16h13.48.079,simplestop_skeleton,2022.2.2,60.006864111011446,
None,None,,,,,,,,,0,0,0,0,10,3,43,1,,,,,,,,,3766.7634891048074,go,squareblack.png,right,0.55,,,,,,,,,,,,,,,0.007314655929803848,0.48767081648111343,,3769.2647279053926,test,1,,,,,,,,,,3766.7870852574706,3767.27795869112,3767.27795869112,3767.2946922406554,3767.82871324569,3768.3291459344327,3768.2790480554104,3769.281525745988,right,1,0.55,0.9261893592774868,,,,,,,,,,,s007,001,2024-07-23_16h13.48.079,simplestop_skeleton,2022.2.2,60.006864111011446,
$currentCorrectResponse,$currentGoStim,,,,,,,,,0,0,0,0,11,0,44,0,,,,,,,,,3769.2651827670634,stop,squareblack.png,right,0.55,,,,,,,,,,,,,,,0.0011926330626010895,0.48992733284831047,1.0402478352189064,3771.769170202315,test,1,,,,,,,,,,3769.281525745988,3769.7808679640293,3769.7808679640293,3769.7808679640293,3770.33172930032,3770.8318895362318,3770.7817366421223,3771.7898075282574,None,0,0.6,,,,,,,,,,,,s007,001,2024-07-23_16h13.48.079,simplestop_skeleton,2022.2.2,60.006864111011446,
None,None,,,,,,,,,0,0,0,0,11,1,45,1,,,,,,,,,3771.769613739103,go,squareblack.png,right,0.6,,,,,,,,,,,,,,,0.002038192003965378,0.4881993718445301,,3774.2704310268164,test,1,,,,,,,,,,3771.7898075282574,3772.2850723825395,3772.2850723825395,3772.3015614636242,3772.8856077715755,3773.384782101959,3773.2846948094666,3774.2891046330333,right,1,0.6,0.6933698803186417,,,,,,,,,,,s007,001,2024-07-23_16h13.48.079,simplestop_skeleton,2022.2.2,60.006864111011446,
None,None,,,,,,,,,0,0,0,0,11,2,46,3,,,,,,,,,3774.2709273658693,stop,circleblack.png,left,0.6,,,,,,,,,,,,,,,0.0019674152135849,0.4887887053191662,1.091352641582489,3776.7731496356428,test,1,,,,,,,,,,3774.2891046330333,3774.7861580476165,3774.7861580476165,3774.8030999191105,3775.38880347088,3775.9040569216013,3775.787371098995,3776.790238108486,left,1,0.55,0.7800075337290764,,,,,,,,,,,s007,001,2024-07-23_16h13.48.079,simplestop_skeleton,2022.2.2,60.006864111011446,
$currentCorrectResponse,$currentGoStim,,,,,,,,,0,0,0,0,11,3,47,0,,,,,,,,,3776.7736106812954,go,squareblack.png,right,0.55,,,,,,,,,,,,,,,0.0016263686120510101,0.48973190039396286,,3779.2769304439425,test,1,,,,,,,,,,3776.790238108486,3777.2892165072262,3777.2892165072262,3777.3057016022503,3777.8395522087812,3778.3400807753205,3778.290004186332,3779.3025339469314,right,1,0.55,0.7290394864976406,,,,,,,,,,,s007,001,2024-07-23_16h13.48.079,simplestop_skeleton,2022.2.2,60.006864111011446,
,,,,,,,,,,0,0,0,0,,,,,,"[{'fileName': 'circleblack.png', 'correct_response': 'left', 'condition': 'go'}, {'fileName': 'squareblack.png', 'correct_response': 'right', 'condition': 'stop'}, {'fileName': 'squareblack.png', 'correct_response': 'right', 'condition': 'go'}, {'fileName': 'circleblack.png', 'correct_response': 'left', 'condition': 'go'}, {'fileName': 'circleblack.png', 'correct_response': 'left', 'condition': 'stop'}, {'fileName': 'squareblack.png', 'correct_response': 'right', 'condition': 'stop'}, {'fileName': 'circleblack.png', 'correct_response': 'left', 'condition': 'go'}, {'fileName': 'circleblack.png', 'correct_response': 'left', 'condition': 'go'}, {'fileName': 'circleblack.png', 'correct_response': 'left', 'condition': 'stop'}, {'fileName': 'squareblack.png', 'correct_response': 'right', 'condition': 'go'}, {'fileName': 'squareblack.png', 'correct_response': 'right', 'condition': 'go'}, {'fileName': 'squareblack.png', 'correct_response': 'right', 'condition': 'go'}, {'fileName': 'circleblack.png', 'correct_response': 'left', 'condition': 'go'}, {'fileName': 'circleblack.png', 'correct_response': 'left', 'condition': 'go'}, {'fileName': 'squareblack.png', 'correct_response': 'right', 'condition': 'stop'}, {'fileName': 'circleblack.png', 'correct_response': 'left', 'condition': 'stop'}, {'fileName': 'squareblack.png', 'correct_response': 'right', 'condition': 'go'}, {'fileName': 'circleblack.png', 'correct_response': 'left', 'condition': 'go'}, {'fileName': 'squareblack.png', 'correct_response': 'right', 'condition': 'stop'}, {'fileName': 'circleblack.png', 'correct_response': 'left', 'condition': 'go'}, {'fileName': 'squareblack.png', 'correct_response': 'right', 'condition': 'go'}, {'fileName': 'circleblack.png', 'correct_response': 'left', 'condition': 'stop'}, {'fileName': 'squareblack.png', 'correct_response': 'right', 'condition': 'go'}, {'fileName': 'squareblack.png', 'correct_response': 'right', 'condition': 'go'}, {'fileName': 'circleblack.png', 'correct_response': 'left', 'condition': 'stop'}, {'fileName': 'squareblack.png', 'correct_response': 'right', 'condition': 'go'}, {'fileName': 'circleblack.png', 'correct_response': 'left', 'condition': 'stop'}, {'fileName': 'circleblack.png', 'correct_response': 'left', 'condition': 'go'}, {'fileName': 'squareblack.png', 'correct_response': 'right', 'condition': 'go'}, {'fileName': 'squareblack.png', 'correct_response': 'right', 'condition': 'stop'}, {'fileName': 'circleblack.png', 'correct_response': 'left', 'condition': 'go'}, {'fileName': 'circleblack.png', 'correct_response': 'left', 'condition': 'go'}, {'fileName': 'circleblack.png', 'correct_response': 'left', 'condition': 'go'}, {'fileName': 'squareblack.png', 'correct_response': 'right', 'condition': 'stop'}, {'fileName': 'squareblack.png', 'correct_response': 'right', 'condition': 'go'}, {'fileName': 'squareblack.png', 'correct_response': 'right', 'condition': 'go'}, {'fileName': 'squareblack.png', 'correct_response': 'right', 'condition': 'go'}, {'fileName': 'squareblack.png', 'correct_response': 'right', 'condition': 'stop'}, {'fileName': 'squareblack.png', 'correct_response': 'right', 'condition': 'go'}, {'fileName': 'circleblack.png', 'correct_response': 'left', 'condition': 'go'}, {'fileName': 'squareblack.png', 'correct_response': 'right', 'condition': 'stop'}, {'fileName': 'circleblack.png', 'correct_response': 'left', 'condition': 'go'}, {'fileName': 'circleblack.png', 'correct_response': 'left', 'condition': 'stop'}, {'fileName': 'circleblack.png', 'correct_response': 'left', 'condition': 'stop'}, {'fileName': 'circleblack.png', 'correct_response': 'left', 'condition': 'go'}, {'fileName': 'squareblack.png', 'correct_response': 'right', 'condition': 'go'}, {'fileName': 'circleblack.png', 'correct_response': 'left', 'condition': 'go'}, {'fileName': 'squareblack.png', 'correct_response': 'right', 'condition': 'go'}]",,,,,,,,,,,,,,,,,,,,,,,,,,,,,,,,,,,,,,,,,,,,,,,,,,,,,3779.3025339469314,3779.3025339469314,return,36.78142336383462,,,,,,,s007,001,2024-07-23_16h13.48.079,simplestop_skeleton,2022.2.2,60.006864111011446,
$currentCorrectResponse,$currentGoStim,,,,,,,,,1,0,1,0,0,0,0,0,,,,,,,,,3816.118464909494,go,circleblack.png,left,0.55,,,,,,,,,,,,,,,0.002470932900905609,0.4878480061888695,,3818.6209758780897,test,2,,,,,,,,,,3816.1384293809533,3816.6338617503643,3816.6338617503643,3816.6505873799324,3817.184421904385,3817.6845663934946,3817.633885577321,3818.645104471594,left,1,0.55,1.7964035756886005,,,,,,,,,,,s007,001,2024-07-23_16h13.48.079,simplestop_skeleton,2022.2.2,60.006864111011446,
None,None,,,,,,,,,1,0,1,0,0,1,1,2,,,,,,,,,3818.6215265244246,stop,squareblack.png,right,0.55,,,,,,,,,,,,,,,0.00725226104259491,0.48906437307596207,1.039732351899147,3821.122292969376,test,2,,,,,,,,,,3818.645104471594,3819.1366008743644,3819.1366008743644,3819.153342537582,3819.6872856914997,3820.186537679285,3820.1365533173084,3821.140000216663,right,1,0.5,0.7101064808666706,,,,,,,,,,,s007,001,2024-07-23_16h13.48.079,simplestop_skeleton,2022.2.2,60.006864111011446,
None,None,,,,,,,,,1,0,1,0,0,2,2,2,,,,,,,,,3821.122861083597,go,squareblack.png,right,0.5,,,,,,,,,,,,,,,0.001224219799041748,0.4887014105916023,,3823.624557439238,test,2,,,,,,,,,,3821.140000216663,3821.6381035633385,3821.6381035633385,3821.6547384411097,3822.1387547962368,3822.639062475413,3822.639062475413,3823.6468777172267,right,1,0.5,0.8391899466514587,,,,,,,,,,,s007,001,2024-07-23_16h13.48.079,simplestop_skeleton,2022.2.2,60.006864111011446,
$currentCorrectResponse,$currentGoStim,,,,,,,,,1,0,1,0,0,3,3,0,,,,,,,,,3823.624997910112,go,circleblack.png,left,0.5,,,,,,,,,,,,,,,0.007383577525615692,0.49160749465227127,,3826.1292412653565,test,2,,,,,,,,,,3823.6468777172267,3824.142624631524,3824.142624631524,3824.1592182703316,3824.6412411928177,3825.14192270115,3825.14192270115,3826.1483052410185,left,1,0.5,0.598820649087429,,,,,,,,,,,s007,001,2024-07-23_16h13.48.079,simplestop_skeleton,2022.2.2,60.006864111011446,
$currentCorrectResponse,$currentGoStim,,,,,,,,,1,0,1,0,1,0,4,0,,,,,,,,,3826.129695340991,stop,circleblack.png,left,0.5,,,,,,,,,,,,,,,0.001464851200580597,0.4893517382442951,0.9899885877966881,3828.630388766527,test,2,,,,,,,,,,3826.1483052410185,3826.6448947153986,3826.6448947153986,3826.66161429137,3827.145331285894,3827.646547354758,3827.646547354758,3828.6484762206674,left,1,0.45,0.6314560659229755,,,,,,,,,,,s007,001,2024-07-23_16h13.48.079,simplestop_skeleton,2022.2.2,60.006864111011446,
None,None,,,,,,,,,1,0,1,0,1,1,5,2,,,,,,,,,3828.6308772936463,stop,squareblack.png,right,0.45,,,,,,,,,,,,,,,0.001681651920080185,0.4890701211988926,0.9396463260054588,3831.133745588362,test,2,,,,,,,,,,3828.6484762206674,3829.1462510302663,3829.1462510302663,3829.162914339453,3829.5968509465456,3830.0971588790417,3830.1472884118557,3831.1529196687043,None,0,0.5,,,,,,,,,,,,s007,001,2024-07-23_16h13.48.079,simplestop_skeleton,2022.2.2,60.006864111011446,
None,None,,,,,,,,,1,0,1,0,1,2,6,1,,,,,,,,,3831.134182393551,go,circleblack.png,left,0.5,,,,,,,,,,,,,,,0.001743268221616745,0.4905114993453026,,3833.63591318205,test,2,,,,,,,,,,3831.1529196687043,3831.6505522467196,3831.6505522467196,3831.667123824358,3832.1509646214545,3832.650151193142,3832.650151193142,3833.6531513668597,left,1,0.5,0.6290319971740246,,,,,,,,,,,s007,001,2024-07-23_16h13.48.079,simplestop_skeleton,2022.2.2,60.006864111011446,
None,None,,,,,,,,,1,0,1,0,1,3,7,3,,,,,,,,,3833.6363886334,go,circleblack.png,left,0.5,,,,,,,,,,,,,,,0.0013002976775169373,0.48908233642578125,,3836.138400286436,test,2,,,,,,,,,,3833.6531513668597,3834.151763472706,3834.151763472706,3834.168506398797,3834.6523647382855,3835.152842681855,3835.152842681855,3836.1552799269557,left,1,0.5,0.7891478314995766,,,,,,,,,,,s007,001,2024-07-23_16h13.48.079,simplestop_skeleton,2022.2.2,60.006864111011446,
None,None,,,,,,,,,1,0,1,0,2,0,8,2,,,,,,,,,3836.1388617940247,stop,circleblack.png,left,0.5,,,,,,,,,,,,,,,0.001252591609954834,0.4897497519850731,0.9904508553445339,3838.642986174673,test,2,,,,,,,,,,3836.1552799269557,3836.654475171119,3836.654475171119,3836.654475171119,3837.154919400811,3837.6555882133543,3837.6555882133543,3838.6621845141053,None,0,0.55,,,,,,,,,,,,s007,001,2024-07-23_16h13.48.079,simplestop_skeleton,2022.2.2,60.006864111011446,
None,None,,,,,,,,,1,0,1,0,2,1,9,3,,,,,,,,,3838.6434474885464,go,squareblack.png,right,0.55,,,,,,,,,,,,,,,0.0017605870962142944,0.48964523524045944,,3841.14430161193,test,2,,,,,,,,,,3838.6621845141053,3839.158709805459,3839.158709805459,3839.175379753113,3839.70936345309,3840.2086884602904,3840.158644504845,3841.1622468829155,right,1,0.55,0.7086265832185745,,,,,,,,,,,s007,001,2024-07-23_16h13.48.079,simplestop_skeleton,2022.2.2,60.006864111011446,
None,None,,,,,,,,,1,0,1,0,2,2,10,2,,,,,,,,,3841.144794166088,go,squareblack.png,right,0.55,,,,,,,,,,,,,,,0.0012320317327976227,0.4888421483337879,,3843.646552775055,test,2,,,,,,,,,,3841.1622468829155,3841.660078126937,3841.660078126937,3841.676728140563,3842.2108358703554,3842.7113136947155,3842.661315497011,3843.663372490555,right,1,0.55,0.6131223440170288,,,,,,,,,,,s007,001,2024-07-23_16h13.48.079,simplestop_skeleton,2022.2.2,60.006864111011446,
None,None,,,,,,,,,1,0,1,0,2,3,11,3,,,,,,,,,3843.6470131911337,go,squareblack.png,right,0.55,,,,,,,,,,,,,,,0.0012353137135505676,0.48976077511906624,,3846.1509236879647,test,2,,,,,,,,,,3843.663372490555,3844.162685472518,3844.162685472518,3844.162685472518,3844.7133960835636,3845.2139560207725,3845.163860462606,3846.170736979693,right,1,0.55,0.8799584619700909,,,,,,,,,,,s007,001,2024-07-23_16h13.48.079,simplestop_skeleton,2022.2.2,60.006864111011446,
$currentCorrectResponse,$currentGoStim,,,,,,,,,1,0,1,0,3,0,12,0,,,,,,,,,3846.151424717158,go,circleblack.png,left,0.55,,,,,,,,,,,,,,,0.002081792801618576,0.48936163261532784,,3848.652152724564,test,2,,,,,,,,,,3846.170736979693,3846.666938852519,3846.666938852519,3846.683627899736,3847.21777279675,3847.7190631590784,3847.6681044846773,3848.669417332858,left,1,0.55,0.8870036788284779,,,,,,,,,,,s007,001,2024-07-23_16h13.48.079,simplestop_skeleton,2022.2.2,60.006864111011446,
None,None,,,,,,,,,1,0,1,0,3,1,13,2,,,,,,,,,3848.6525848582387,go,circleblack.png,left,0.55,,,,,,,,,,,,,,,0.001284334808588028,0.48981450125575066,,3851.155052382499,test,2,,,,,,,,,,3848.669417332858,3849.1682624667883,3849.1682624667883,3849.185118023306,3849.7190615125,3850.2194969020784,3850.169380966574,3851.172411888838,left,1,0.55,0.7097183428704739,,,,,,,,,,,s007,001,2024-07-23_16h13.48.079,simplestop_skeleton,2022.2.2,60.006864111011446,
None,None,,,,,,,,,1,0,1,0,3,2,14,1,,,,,,,,,3851.1555128246546,stop,squareblack.png,right,0.55,,,,,,,,,,,,,,,0.0016760043799877167,0.4895509369671345,1.0401321426033974,3853.659456141293,test,2,,,,,,,,,,3851.172411888838,3851.671107944101,3851.671107944101,3851.6878285482526,3852.221770066768,3852.722484935075,3852.6722125187516,3853.678881097585,right,1,0.5,0.5449859537184238,,,,,,,,,,,s007,001,2024-07-23_16h13.48.079,simplestop_skeleton,2022.2.2,60.006864111011446,
None,None,,,,,,,,,1,0,1,0,3,3,15,1,,,,,,,,,3853.6600186377764,stop,circleblack.png,left,0.5,,,,,,,,,,,,,,,0.001985739916563034,0.4895779825747013,0.9902824610471725,3856.1621185168624,test,2,,,,,,,,,,3853.678881097585,3854.1755359247327,3854.1755359247327,3854.1919653601944,3854.676154907793,3855.176504135132,3855.176504135132,3856.181292783469,None,0,0.55,,,,,,,,,,,,s007,001,2024-07-23_16h13.48.079,simplestop_skeleton,2022.2.2,60.006864111011446,
$currentCorrectResponse,$currentGoStim,,,,,,,,,1,0,1,0,4,0,16,0,,,,,,,,,3856.162553474307,go,squareblack.png,right,0.55,,,,,,,,,,,,,,,0.0017029456794261932,0.4898299500346184,,3858.6633175872266,test,2,,,,,,,,,,3856.181292783469,3856.6782286539674,3856.6782286539674,3856.6950771324337,3857.2287610024214,3857.7445282265544,3857.677700690925,3858.680714711547,right,1,0.55,0.4777083024382591,,,,,,,,,,,s007,001,2024-07-23_16h13.48.079,simplestop_skeleton,2022.2.2,60.006864111011446,
None,None,,,,,,,,,1,0,1,0,4,1,17,1,,,,,,,,,3858.6638067811728,go,circleblack.png,left,0.55,,,,,,,,,,,,,,,0.001729082316160202,0.4897017739713192,,3861.1703714206815,test,2,,,,,,,,,,3858.680714711547,3859.1795456819236,3859.1795456819236,3859.1961185894907,3859.729851450771,3860.2304102927446,3860.1806080564857,3861.189159732312,left,1,0.55,0.6347587034106255,,,,,,,,,,,s007,001,2024-07-23_16h13.48.079,simplestop_skeleton,2022.2.2,60.006864111011446,
$currentCorrectResponse,$currentGoStim,,,,,,,,,1,0,1,0,4,2,18,0,,,,,,,,,3861.1708252876997,stop,squareblack.png,right,0.55,,,,,,,,,,,,,,,0.0016616471111774445,0.48472991213202477,1.0354043208062649,3863.670393742621,test,2,,,,,,,,,,3861.189159732312,3861.683451168239,3861.683451168239,3861.700096271932,3862.234027020633,3862.7333356700838,3862.683328792453,3863.690311603248,right,1,0.5,0.6417743116617203,,,,,,,,,,,s007,001,2024-07-23_16h13.48.079,simplestop_skeleton,2022.2.2,60.006864111011446,
$currentCorrectResponse,$currentGoStim,,,,,,,,,1,0,1,0,4,3,19,0,,,,,,,,,3863.670996196568,go,circleblack.png,left,0.5,,,,,,,,,,,,,,,0.0026128627359867096,0.4868021383881569,,3866.1715441010892,test,2,,,,,,,,,,3863.690311603248,3864.184862203896,3864.184862203896,3864.201616767794,3864.685537543148,3865.1859422959387,3865.1859422959387,3866.188901271671,left,1,0.5,0.9015026390552521,,,,,,,,,,,s007,001,2024-07-23_16h13.48.079,simplestop_skeleton,2022.2.2,60.006864111011446,
None,None,,,,,,,,,1,0,1,0,5,0,20,3,,,,,,,,,3866.1719896160066,go,squareblack.png,right,0.5,,,,,,,,,,,,,,,0.0016117878258228302,0.4897535406053066,,3868.6758452504873,test,2,,,,,,,,,,3866.188901271671,3866.68767831102,3866.68767831102,3866.7044409550726,3867.188213828951,3867.688859846443,3867.688859846443,3868.6950182914734,right,1,0.5,0.9189735651016235,,,,,,,,,,,s007,001,2024-07-23_16h13.48.079,simplestop_skeleton,2022.2.2,60.006864111011446,
None,None,,,,,,,,,1,0,1,0,5,1,21,1,,,,,,,,,3868.6762872971594,stop,circleblack.png,left,0.5,,,,,,,,,,,,,,,0.0016617588698863983,0.489671740680933,0.9905310422182083,3871.1792142502964,test,2,,,,,,,,,,3868.6950182914734,3869.1919269785285,3869.1919269785285,3869.2086114026606,3869.692388575524,3870.192913532257,3870.192913532257,3871.1974049434066,None,0,0.55,,,,,,,,,,,,s007,001,2024-07-23_16h13.48.079,simplestop_skeleton,2022.2.2,60.006864111011446,
$currentCorrectResponse,$currentGoStim,,,,,,,,,1,0,1,0,5,2,22,0,,,,,,,,,3871.1796643808484,go,squareblack.png,right,0.55,,,,,,,,,,,,,,,0.0025427155196666718,0.487108301371336,,3873.6798901222646,test,2,,,,,,,,,,3871.1974049434066,3871.6931670568883,3871.6931670568883,3871.7099167741835,3872.24398509413,3872.7444106265903,3872.6942806504667,3873.696772683412,right,1,0.55,0.6363517232239246,,,,,,,,,,,s007,001,2024-07-23_16h13.48.079,simplestop_skeleton,2022.2.2,60.006864111011446,
None,None,,,,,,,,,1,0,1,0,5,3,23,2,,,,,,,,,3873.6803296022117,go,squareblack.png,right,0.55,,,,,,,,,,,,,,,0.0011582598090171814,0.4895535409450531,,3876.1826048716903,test,2,,,,,,,,,,3873.696772683412,3874.1958682984114,3874.1958682984114,3874.212594885379,3874.7494789138436,3875.263743273914,3875.196968063712,3876.1999182403088,right,1,0.55,0.6018672585487366,,,,,,,,,,,s007,001,2024-07-23_16h13.48.079,simplestop_skeleton,2022.2.2,60.006864111011446,
None,None,,,,,,,,,1,0,1,0,6,0,24,2,,,,,,,,,3876.18307608366,stop,circleblack.png,left,0.55,,,,,,,,,,,,,,,0.0017898716032505035,0.4903223365545273,1.0403973683714867,3878.686524748802,test,2,,,,,,,,,,3876.1999182403088,3876.701086100191,3876.701086100191,3876.701086100191,3877.2493203543127,3877.750510226935,3877.71659033373,3878.7038361765444,None,0,0.6,,,,,,,,,,,,s007,001,2024-07-23_16h13.48.079,simplestop_skeleton,2022.2.2,60.006864111011446,
None,None,,,,,,,,,1,0,1,0,6,1,25,3,,,,,,,,,3878.6869722492993,go,squareblack.png,right,0.6,,,,,,,,,,,,,,,0.0017248094081878662,0.48994845151901245,,3881.1882886365056,test,2,,,,,,,,,,3878.7038361765444,3879.2028336785734,3879.2028336785734,3879.2195118032396,3879.803429789841,3880.302892163396,3880.204318229109,3881.2060990706086,right,1,0.6,0.79340810328722,,,,,,,,,,,s007,001,2024-07-23_16h13.48.079,simplestop_skeleton,2022.2.2,60.006864111011446,
None,None,,,,,,,,,1,0,1,0,6,2,26,1,,,,,,,,,3881.188747983426,stop,circleblack.png,left,0.6,,,,,,,,,,,,,,,0.0017872974276542664,0.48928527161478996,1.0901555381715298,3883.6919100023806,test,2,,,,,,,,,,3881.2060990706086,3881.704192057252,3881.704192057252,3881.7207935787737,3882.304997012019,3882.805657811463,3882.705827206373,3883.711477931589,left,1,0.55,0.7047982104122639,,,,,,,,,,,s007,001,2024-07-23_16h13.48.079,simplestop_skeleton,2022.2.2,60.006864111011446,
None,None,,,,,,,,,1,0,1,0,6,3,27,3,,,,,,,,,3883.6925610862672,go,circleblack.png,left,0.55,,,,,,,,,,,,,,,0.0022218748927116394,0.487346313893795,,3886.1942199729383,test,2,,,,,,,,,,3883.711477931589,3884.207421284169,3884.207421284169,3884.2241617664695,3884.75758253783,3885.258195500821,3885.2081487365067,3886.2128516696393,left,1,0.55,0.8059080578386784,,,,,,,,,,,s007,001,2024-07-23_16h13.48.079,simplestop_skeleton,2022.2.2,60.006864111011446,
None,None,,,,,,,,,1,0,1,0,7,0,28,2,,,,,,,,,3886.1946544386446,go,squareblack.png,right,0.55,,,,,,,,,,,,,,,0.0016310811042785645,0.4897918477654457,,3888.696930591017,test,2,,,,,,,,,,3886.2128516696393,3886.711160041392,3886.711160041392,3886.7276791147888,3887.261814214289,3887.7626129463315,3887.7126072235405,3888.7143108025193,right,1,0.55,0.7751887775957584,,,,,,,,,,,s007,001,2024-07-23_16h13.48.079,simplestop_skeleton,2022.2.2,60.006864111011446,
None,None,,,,,,,,,1,0,1,0,7,1,29,2,,,,,,,,,3888.6973866708577,stop,squareblack.png,right,0.55,,,,,,,,,,,,,,,0.0014390796422958374,0.4891381710767746,1.0407392978668213,3891.200802255422,test,2,,,,,,,,,,3888.7143108025193,3889.2125401347876,3889.2125401347876,3889.2291862368584,3889.7642477229238,3890.263568907976,3890.2135504707694,3891.218377981335,None,0,0.6,,,,,,,,,,,,s007,001,2024-07-23_16h13.48.079,simplestop_skeleton,2022.2.2,60.006864111011446,
None,None,,,,,,,,,1,0,1,0,7,2,30,3,,,,,,,,,3891.201250553131,go,circleblack.png,left,0.6,,,,,,,,,,,,,,,0.0018307045102119446,0.48797694966197014,,3893.702651053667,test,2,,,,,,,,,,3891.218377981335,3891.715274769813,3891.715274769813,3891.731902346015,3892.3158930949867,3892.8171703219414,3892.7164054363966,3893.720029499382,left,1,0.6,0.6286367401480675,,,,,,,,,,,s007,001,2024-07-23_16h13.48.079,simplestop_skeleton,2022.2.2,60.006864111011446,
None,None,,,,,,,,,1,0,1,0,7,3,31,1,,,,,,,,,3893.703103028238,go,circleblack.png,left,0.6,,,,,,,,,,,,,,,0.0013191476464271545,0.4900287613272667,,3896.204586300999,test,2,,,,,,,,,,3893.720029499382,3894.2192928008735,3894.2192928008735,3894.2192928008735,3894.8201649338007,3895.321005899459,3895.22068541497,3896.2215912751853,left,1,0.6,0.8518714644014835,,,,,,,,,,,s007,001,2024-07-23_16h13.48.079,simplestop_skeleton,2022.2.2,60.006864111011446,
$currentCorrectResponse,$currentGoStim,,,,,,,,,1,0,1,0,8,0,32,0,,,,,,,,,3896.205041870475,go,circleblack.png,left,0.6,,,,,,,,,,,,,,,0.0012088455259799957,0.48976098746061325,,3898.7089458592236,test,2,,,,,,,,,,3896.2215912751853,3896.720734536648,3896.720734536648,3896.7373342439532,3897.3215962052345,3897.8219014033675,3897.7218312099576,3898.727297205478,left,1,0.6,0.7996537983417511,,,,,,,,,,,s007,001,2024-07-23_16h13.48.079,simplestop_skeleton,2022.2.2,60.006864111011446,
$currentCorrectResponse,$currentGoStim,,,,,,,,,1,0,1,0,8,1,33,0,,,,,,,,,3898.70938417688,stop,squareblack.png,right,0.6,,,,,,,,,,,,,,,0.0024573914706707,0.4880835525691509,1.088504046201706,3901.2110757157207,test,2,,,,,,,,,,3898.727297205478,3899.2238699048758,3899.2238699048758,3899.2403280884027,3899.824189286679,3900.3248546868563,3900.2247627414763,3901.2280437350273,None,0,0.65,,,,,,,,,,,,s007,001,2024-07-23_16h13.48.079,simplestop_skeleton,2022.2.2,60.006864111011446,
$currentCorrectResponse,$currentGoStim,,,,,,,,,1,0,1,0,8,2,34,0,,,,,,,,,3901.211512632668,go,squareblack.png,right,0.65,,,,,,,,,,,,,,,0.001191403716802597,0.4899683967232704,,3903.713096924126,test,2,,,,,,,,,,3901.2280437350273,3901.727751970291,3901.727751970291,3901.727751970291,3902.37841431424,3902.8793881461024,3902.7289062961936,3903.744179829955,right,1,0.65,0.9232612401247025,,,,,,,,,,,s007,001,2024-07-23_16h13.48.079,simplestop_skeleton,2022.2.2,60.006864111011446,
None,None,,,,,,,,,1,0,1,0,8,3,35,1,,,,,,,,,3903.713542778045,go,squareblack.png,right,0.65,,,,,,,,,,,,,,,0.0012565664947032928,0.4907570667564869,,3906.2171448133886,test,2,,,,,,,,,,3903.744179829955,3904.230483327061,3904.230483327061,3904.247157793492,3904.8798078373075,3905.3803554549813,3905.2300829179585,3906.2363942824304,right,1,0.65,0.8265585787594318,,,,,,,,,,,s007,001,2024-07-23_16h13.48.079,simplestop_skeleton,2022.2.2,60.006864111011446,
None,None,,,,,,,,,1,0,1,0,9,0,36,3,,,,,,,,,3906.217578537762,go,squareblack.png,right,0.65,,,,,,,,,,,,,,,0.0014551728963851929,0.4881371259689331,,3908.718527253717,test,2,,,,,,,,,,3906.2363942824304,3906.731826353818,3906.731826353818,3906.74839983508,3907.382696237415,3907.883506592363,3907.732847698033,3908.7364397868514,right,1,0.65,0.8149664625525475,,,,,,,,,,,s007,001,2024-07-23_16h13.48.079,simplestop_skeleton,2022.2.2,60.006864111011446,
None,None,,,,,,,,,1,0,1,0,9,1,37,1,,,,,,,,,3908.719012800604,stop,squareblack.png,right,0.65,,,,,,,,,,,,,,,0.0012441836297512054,0.48919593542814255,1.139954924583435,3911.2225989587605,test,2,,,,,,,,,,3908.7364397868514,3909.2345935739577,3909.2345935739577,3909.251221176237,3909.8856369256973,3910.3860737867653,3910.23556150496,3911.2414650432765,None,0,0.7,,,,,,,,,,,,s007,001,2024-07-23_16h13.48.079,simplestop_skeleton,2022.2.2,60.006864111011446,
None,None,,,,,,,,,1,0,1,0,9,2,38,2,,,,,,,,,3911.2230464443564,go,squareblack.png,right,0.7,,,,,,,,,,,,,,,0.0012519359588623047,0.48961494117975235,,3913.724997781217,test,2,,,,,,,,,,3911.2414650432765,3911.738758124411,3911.738758124411,3911.7552612759173,3912.439327675849,3912.938738912344,3912.7401417307556,3913.7495452724397,right,1,0.7,0.7350668907165527,,,,,,,,,,,s007,001,2024-07-23_16h13.48.079,simplestop_skeleton,2022.2.2,60.006864111011446,
None,None,,,,,,,,,1,0,1,0,9,3,39,3,,,,,,,,,3913.725443277508,go,circleblack.png,left,0.7,,,,,,,,,,,,,,,0.00799921527504921,0.48803310841321945,,3916.226820319891,test,2,,,,,,,,,,3913.7495452724397,3914.240126468241,3914.240126468241,3914.2566861473024,3914.9413283877075,3915.441362030804,3915.2412535250187,3916.244141615927,left,1,0.7,0.9430094473063946,,,,,,,,,,,s007,001,2024-07-23_16h13.48.079,simplestop_skeleton,2022.2.2,60.006864111011446,
None,None,,,,,,,,,1,0,1,0,10,0,40,2,,,,,,,,,3916.227264571935,stop,squareblack.png,right,0.7,,,,,,,,,,,,,,,0.0016661174595355988,0.48981479555368423,1.1905399970710278,3918.7305606640875,test,2,,,,,,,,,,3916.244141615927,3916.742979697883,3916.742979697883,3916.7597288303077,3917.443638432771,3917.944461517036,3917.744068559259,3918.748318269849,right,1,0.65,0.6956641376018524,,,,,,,,,,,s007,001,2024-07-23_16h13.48.079,simplestop_skeleton,2022.2.2,60.006864111011446,
None,None,,,,,,,,,1,0,1,0,10,1,41,3,,,,,,,,,3918.731003500521,go,circleblack.png,left,0.65,,,,,,,,,,,,,,,0.0018000341951847076,0.4904682822525501,,3921.232194945216,test,2,,,,,,,,,,3918.748318269849,3919.246812302619,3919.246812302619,3919.263637345284,3919.89780061692,3920.398628771305,3920.2481504008174,3921.24910787493,left,1,0.65,0.8772239796817303,,,,,,,,,,,s007,001,2024-07-23_16h13.48.079,simplestop_skeleton,2022.2.2,60.006864111011446,
$currentCorrectResponse,$currentGoStim,,,,,,,,,1,0,1,0,10,2,42,0,,,,,,,,,3921.232628017664,stop,circleblack.png,left,0.65,,,,,,,,,,,,,,,0.0012289397418498993,0.48973505571484566,1.1405745893716812,3923.7351355701685,test,2,,,,,,,,,,3921.24910787493,3921.7483073808253,3921.7483073808253,3921.7483073808253,3922.3991230539978,3922.899587865919,3922.749452188611,3923.751964185387,None,0,0.7,,,,,,,,,,,,s007,001,2024-07-23_16h13.48.079,simplestop_skeleton,2022.2.2,60.006864111011446,
None,None,,,,,,,,,1,0,1,0,10,3,43,1,,,,,,,,,3923.735586401075,stop,circleblack.png,left,0.7,,,,,,,,,,,,,,,0.001238752156496048,0.4895934723317623,1.1901839971542358,3926.239093352109,test,2,,,,,,,,,,3923.751964185387,3924.2518301568925,3924.2518301568925,3924.2518301568925,3924.9519268013537,3925.4526425525546,3925.252476643771,3926.25594991073,None,0,0.75,,,,,,,,,,,,s007,001,2024-07-23_16h13.48.079,simplestop_skeleton,2022.2.2,60.006864111011446,
None,None,,,,,,,,,1,0,1,0,11,0,44,3,,,,,,,,,3926.2395725622773,go,circleblack.png,left,0.75,,,,,,,,,,,,,,,0.001249551773071289,0.4899309612810612,,3928.740646470338,test,2,,,,,,,,,,3926.25594991073,3926.7555690594018,3926.7555690594018,3926.7555690594018,3927.5060152076185,3928.0065366625786,3927.756361708045,3928.7629770562053,left,1,0.75,1.375139132142067,,,,,,,,,,,s007,001,2024-07-23_16h13.48.079,simplestop_skeleton,2022.2.2,60.006864111011446,
None,None,,,,,,,,,1,0,1,0,11,1,45,1,,,,,,,,,3928.74107965827,go,squareblack.png,right,0.75,,,,,,,,,,,,,,,0.007025618106126785,0.4897886998951435,,3931.243941899389,test,2,,,,,,,,,,3928.7629770562053,3929.25668560341,3929.25668560341,3929.273357812315,3930.0074134916067,3930.5088662840426,3930.257839433849,3931.2629281394184,right,1,0.75,0.560200359672308,,,,,,,,,,,s007,001,2024-07-23_16h13.48.079,simplestop_skeleton,2022.2.2,60.006864111011446,
None,None,,,,,,,,,1,0,1,0,11,2,46,1,,,,,,,,,3931.2444019317627,go,circleblack.png,left,0.75,,,,,,,,,,,,,,,0.0021451450884342194,0.48921192437410355,,3933.747511934489,test,2,,,,,,,,,,3931.2629281394184,3931.7595604881644,3931.7595604881644,3931.776251655072,3932.513218842447,3933.0274171568453,3932.760649062693,3933.7664812505245,left,1,0.75,0.49309248477220535,,,,,,,,,,,s007,001,2024-07-23_16h13.48.079,simplestop_skeleton,2022.2.2,60.006864111011446,
None,None,,,,,,,,,1,0,1,0,11,3,47,3,,,,,,,,,3933.7479639984667,go,squareblack.png,right,0.75,,,,,,,,,,,,,,,0.0025189220905303955,0.4874103292822838,,3936.2489608824253,test,2,,,,,,,,,,3933.7664812505245,3934.2622245028615,3934.2622245028615,3934.278780221939,3935.0130169652402,3935.513612587005,3935.2631855793297,3936.265683464706,right,1,0.75,0.4884818308055401,,,,,,,,,,,s007,001,2024-07-23_16h13.48.079,simplestop_skeleton,2022.2.2,60.006864111011446,
,,,,,,,,,,1,0,1,0,,,,,,,,,,,,,,,,,,,,,,,,,,,,,,,,,,,,,,,,,,,,,,,,,,,,,,,,,,,3936.265683464706,3936.265683464706,return,31.187885966151953,"[{'fileName': 'squareblack.png', 'correct_response': 'right', 'condition': 'stop'}, {'fileName': 'squareblack.png', 'correct_response': 'right', 'condition': 'go'}, {'fileName': 'circleblack.png', 'correct_response': 'left', 'condition': 'go'}, {'fileName': 'squareblack.png', 'correct_response': 'right', 'condition': 'stop'}, {'fileName': 'circleblack.png', 'correct_response': 'left', 'condition': 'go'}, {'fileName': 'squareblack.png', 'correct_response': 'right', 'condition': 'go'}, {'fileName': 'squareblack.png', 'correct_response': 'right', 'condition': 'go'}, {'fileName': 'circleblack.png', 'correct_response': 'left', 'condition': 'stop'}, {'fileName': 'circleblack.png', 'correct_response': 'left', 'condition': 'go'}, {'fileName': 'circleblack.png', 'correct_response': 'left', 'condition': 'stop'}, {'fileName': 'circleblack.png', 'correct_response': 'left', 'condition': 'go'}, {'fileName': 'squareblack.png', 'correct_response': 'right', 'condition': 'go'}, {'fileName': 'squareblack.png', 'correct_response': 'right', 'condition': 'stop'}, {'fileName': 'squareblack.png', 'correct_response': 'right', 'condition': 'go'}, {'fileName': 'squareblack.png', 'correct_response': 'right', 'condition': 'go'}, {'fileName': 'circleblack.png', 'correct_response': 'left', 'condition': 'go'}, {'fileName': 'circleblack.png', 'correct_response': 'left', 'condition': 'go'}, {'fileName': 'squareblack.png', 'correct_response': 'right', 'condition': 'go'}, {'fileName': 'circleblack.png', 'correct_response': 'left', 'condition': 'stop'}, {'fileName': 'squareblack.png', 'correct_response': 'right', 'condition': 'stop'}, {'fileName': 'squareblack.png', 'correct_response': 'right', 'condition': 'go'}, {'fileName': 'circleblack.png', 'correct_response': 'left', 'condition': 'stop'}, {'fileName': 'circleblack.png', 'correct_response': 'left', 'condition': 'go'}, {'fileName': 'circleblack.png', 'correct_response': 'left', 'condition': 'go'}, {'fileName': 'circleblack.png', 'correct_response': 'left', 'condition': 'go'}, {'fileName': 'squareblack.png', 'correct_response': 'right', 'condition': 'go'}, {'fileName': 'squareblack.png', 'correct_response': 'right', 'condition': 'go'}, {'fileName': 'circleblack.png', 'correct_response': 'left', 'condition': 'go'}, {'fileName': 'circleblack.png', 'correct_response': 'left', 'condition': 'stop'}, {'fileName': 'circleblack.png', 'correct_response': 'left', 'condition': 'go'}, {'fileName': 'squareblack.png', 'correct_response': 'right', 'condition': 'stop'}, {'fileName': 'squareblack.png', 'correct_response': 'right', 'condition': 'stop'}, {'fileName': 'squareblack.png', 'correct_response': 'right', 'condition': 'go'}, {'fileName': 'circleblack.png', 'correct_response': 'left', 'condition': 'go'}, {'fileName': 'circleblack.png', 'correct_response': 'left', 'condition': 'stop'}, {'fileName': 'squareblack.png', 'correct_response': 'right', 'condition': 'go'}, {'fileName': 'squareblack.png', 'correct_response': 'right', 'condition': 'go'}, {'fileName': 'circleblack.png', 'correct_response': 'left', 'condition': 'stop'}, {'fileName': 'squareblack.png', 'correct_response': 'right', 'condition': 'go'}, {'fileName': 'squareblack.png', 'correct_response': 'right', 'condition': 'stop'}, {'fileName': 'squareblack.png', 'correct_response': 'right', 'condition': 'go'}, {'fileName': 'circleblack.png', 'correct_response': 'left', 'condition': 'go'}, {'fileName': 'squareblack.png', 'correct_response': 'right', 'condition': 'go'}, {'fileName': 'circleblack.png', 'correct_response': 'left', 'condition': 'go'}, {'fileName': 'circleblack.png', 'correct_response': 'left', 'condition': 'stop'}, {'fileName': 'squareblack.png', 'correct_response': 'right', 'condition': 'stop'}, {'fileName': 'circleblack.png', 'correct_response': 'left', 'condition': 'go'}, {'fileName': 'circleblack.png', 'correct_response': 'left', 'condition': 'go'}]",,,,,,s007,001,2024-07-23_16h13.48.079,simplestop_skeleton,2022.2.2,60.006864111011446,
None,None,,,,,,,,,2,0,2,0,0,0,0,3,,,,,,,,,3967.4811196029186,stop,squareblack.png,right,0.75,,,,,,,,,,,,,,,0.0018223375082015991,0.49283916875720024,1.2434830479323864,3969.9880522079766,test,3,,,,,,,,,,3967.5016201660037,3968.0006721019745,3968.0006721019745,3968.0006721019745,3968.752052653581,3969.2521637938917,3969.002103384584,3970.006859086454,right,1,0.7,0.58822076395154,,,,,,,,,,,s007,001,2024-07-23_16h13.48.079,simplestop_skeleton,2022.2.2,60.006864111011446,
None,None,,,,,,,,,2,0,2,0,0,1,1,1,,,,,,,,,3969.9886108599603,go,squareblack.png,right,0.7,,,,,,,,,,,,,,,0.0013476908206939697,0.4894152395427227,,3972.4889839738607,test,3,,,,,,,,,,3970.006859086454,3970.5037309639156,3970.5037309639156,3970.5205132476985,3971.204479776323,3971.7036649100482,3971.504959758371,3972.511495962739,right,1,0.7,0.7933601178228855,,,,,,,,,,,s007,001,2024-07-23_16h13.48.079,simplestop_skeleton,2022.2.2,60.006864111011446,
None,None,,,,,,,,,2,0,2,0,0,2,2,1,,,,,,,,,3972.489414367825,go,circleblack.png,left,0.7,,,,,,,,,,,,,,,0.007537681609392166,0.48957743495702744,,3974.992969237268,test,3,,,,,,,,,,3972.511495962739,3973.004955139011,3973.004955139011,3973.021618656814,3973.7072581984103,3974.2062213234603,3974.0061337463558,3975.012032367289,left,1,0.7,0.6912988573312759,,,,,,,,,,,s007,001,2024-07-23_16h13.48.079,simplestop_skeleton,2022.2.2,60.006864111011446,
None,None,,,,,,,,,2,0,2,0,0,3,3,2,,,,,,,,,3974.993442028761,stop,squareblack.png,right,0.7,,,,,,,,,,,,,,,0.0024804212152957916,0.4875039830803871,1.188538022339344,3977.4945924133062,test,3,,,,,,,,,,3975.012032367289,3975.507795330137,3975.507795330137,3975.5243902355433,3976.2087865173817,3976.7090755924582,3976.5088483914733,3977.5120501182973,right,1,0.65,0.7084903605282307,,,,,,,,,,,s007,001,2024-07-23_16h13.48.079,simplestop_skeleton,2022.2.2,60.006864111011446,
$currentCorrectResponse,$currentGoStim,,,,,,,,,2,0,2,0,1,0,4,0,,,,,,,,,3977.4950418286026,go,circleblack.png,left,0.65,,,,,,,,,,,,,,,0.0017768777906894684,0.4896753206849098,,3979.997978594154,test,3,,,,,,,,,,3977.5120501182973,3978.010710529983,3978.010710529983,3978.027360524982,3978.6611313968897,3979.161849088967,3979.011615265161,3980.0152046121657,left,1,0.65,0.7798928916454315,,,,,,,,,,,s007,001,2024-07-23_16h13.48.079,simplestop_skeleton,2022.2.2,60.006864111011446,
None,None,,,,,,,,,2,0,2,0,1,1,5,3,,,,,,,,,3979.998409356922,go,squareblack.png,right,0.65,,,,,,,,,,,,,,,0.001672007143497467,0.49014289304614067,,3982.5009160786867,test,3,,,,,,,,,,3980.0152046121657,3980.5146806910634,3980.5146806910634,3980.5146806910634,3981.1652770787477,3981.6645633913577,3981.5162067860365,3982.520016748458,right,1,0.65,0.719548374414444,,,,,,,,,,,s007,001,2024-07-23_16h13.48.079,simplestop_skeleton,2022.2.2,60.006864111011446,
None,None,,,,,,,,,2,0,2,0,1,2,6,1,,,,,,,,,3982.5013579167426,go,squareblack.png,right,0.65,,,,,,,,,,,,,,,0.0021317079663276672,0.48713232949376106,,3985.0042143687606,test,3,,,,,,,,,,3982.520016748458,3983.015793532133,3983.015793532133,3983.03258292377,3983.666761033237,3984.1671247035265,3984.017039269209,3985.0239883214235,right,1,0.65,0.6945922449231148,,,,,,,,,,,s007,001,2024-07-23_16h13.48.079,simplestop_skeleton,2022.2.2,60.006864111011446,
None,None,,,,,,,,,2,0,2,0,1,3,7,3,,,,,,,,,3985.004650246352,stop,circleblack.png,left,0.65,,,,,,,,,,,,,,,0.002101082354784012,0.48793867602944374,1.1386294588446617,3987.505553483963,test,3,,,,,,,,,,3985.0239883214235,3985.5187432169914,3985.5187432169914,3985.5353753454983,3986.169410865754,3986.6703587584198,3986.519787054509,3987.5366506539285,left,1,0.6,0.7802319787442684,,,,,,,,,,,s007,001,2024-07-23_16h13.48.079,simplestop_skeleton,2022.2.2,60.006864111011446,
None,None,,,,,,,,,2,0,2,0,2,0,8,2,,,,,,,,,3987.5060005411506,go,circleblack.png,left,0.6,,,,,,,,,,,,,,,0.0012624822556972504,0.48928341269493103,,3990.0096676945686,test,3,,,,,,,,,,3987.5366506539285,3988.021480921656,3988.021480921656,3988.0380715690553,3988.6221389956772,3989.124021973461,3989.0244289673865,3990.0287897996604,left,1,0.6,0.7662504129111767,,,,,,,,,,,s007,001,2024-07-23_16h13.48.079,simplestop_skeleton,2022.2.2,60.006864111011446,
None,None,,,,,,,,,2,0,2,0,2,1,9,1,,,,,,,,,3990.0100991018116,stop,circleblack.png,left,0.6,,,,,,,,,,,,,,,0.0013956278562545776,0.48957209289073944,1.0905552431941032,3992.5124693885446,test,3,,,,,,,,,,3990.0287897996604,3990.5256519131362,3990.5256519131362,3990.5421959757805,3991.126807231456,3991.6420500054955,3991.525282599032,3992.5314796455204,None,0,0.65,,,,,,,,,,,,s007,001,2024-07-23_16h13.48.079,simplestop_skeleton,2022.2.2,60.006864111011446,
None,None,,,,,,,,,2,0,2,0,2,2,10,1,,,,,,,,,3992.5129030533135,go,circleblack.png,left,0.65,,,,,,,,,,,,,,,0.00136575847864151,0.4881279170513153,,3995.0141000933945,test,3,,,,,,,,,,3992.5314796455204,3993.0269256047904,3993.0269256047904,3993.0436226576567,3993.678042344749,3994.179086755961,3994.0281515084207,3995.0362135209143,left,1,0.65,0.8910027295351028,,,,,,,,,,,s007,001,2024-07-23_16h13.48.079,simplestop_skeleton,2022.2.2,60.006864111011446,
None,None,,,,,,,,,2,0,2,0,2,3,11,3,,,,,,,,,3995.0145425610244,go,squareblack.png,right,0.65,,,,,,,,,,,,,,,0.007130034267902374,0.49103664979338646,,3997.517105925828,test,3,,,,,,,,,,3995.0362135209143,3995.531548101455,3995.531548101455,3995.54823384434,3996.180422183126,3996.6811625249684,3996.530982673168,3997.5343256667256,right,1,0.65,1.0272476710379124,,,,,,,,,,,s007,001,2024-07-23_16h13.48.079,simplestop_skeleton,2022.2.2,60.006864111011446,
$currentCorrectResponse,$currentGoStim,,,,,,,,,2,0,2,0,3,0,12,0,,,,,,,,,3997.517562068999,stop,squareblack.png,right,0.65,,,,,,,,,,,,,,,0.0012724660336971283,0.49023332074284554,1.1412104368209839,4000.020454827696,test,3,,,,,,,,,,3997.5343256667256,3998.0340291559696,3998.0340291559696,3998.0340291559696,3998.6847844719887,3999.1838550902903,3999.0353329218924,4000.0376285761595,right,1,0.6,0.7812949120998383,,,,,,,,,,,s007,001,2024-07-23_16h13.48.079,simplestop_skeleton,2022.2.2,60.006864111011446,
None,None,,,,,,,,,2,0,2,0,3,1,13,3,,,,,,,,,4000.0209155343473,go,squareblack.png,right,0.6,,,,,,,,,,,,,,,0.0012716799974441528,0.4885384067893028,,4002.523455493152,test,3,,,,,,,,,,4000.0376285761595,4000.5352506116033,4000.5352506116033,4000.5520476698875,4001.1360370218754,4001.6363463811576,4001.53649507463,4002.5404127575457,right,1,0.6,1.0027944408357143,,,,,,,,,,,s007,001,2024-07-23_16h13.48.079,simplestop_skeleton,2022.2.2,60.006864111011446,
None,None,,,,,,,,,2,0,2,0,3,2,14,1,,,,,,,,,4002.5239157043397,go,squareblack.png,right,0.6,,,,,,,,,,,,,,,0.0011544302105903625,0.4891521818935871,,4005.0413847975433,test,3,,,,,,,,,,4002.5404127575457,4003.0411069840193,4003.0411069840193,4003.0549081265926,4003.638705432415,4004.139138184488,4004.056286368519,4005.064270682633,right,1,0.6,0.881537415087223,,,,,,,,,,,s007,001,2024-07-23_16h13.48.079,simplestop_skeleton,2022.2.2,60.006864111011446,
None,None,,,,,,,,,2,0,2,0,3,3,15,2,,,,,,,,,4005.041845060885,go,circleblack.png,left,0.6,,,,,,,,,,,,,,,0.008016243577003479,0.49168138206005096,,4007.5450998805463,test,3,,,,,,,,,,4005.064270682633,4005.5594136081636,4005.5594136081636,4005.5760396309197,4006.15809571743,4006.6588177978992,4006.5587677396834,4007.5642303563654,left,1,0.6,0.9200369231402874,,,,,,,,,,,s007,001,2024-07-23_16h13.48.079,simplestop_skeleton,2022.2.2,60.006864111011446,
None,None,,,,,,,,,2,0,2,0,4,0,16,3,,,,,,,,,4007.545538175851,go,circleblack.png,left,0.6,,,,,,,,,,,,,,,0.00183858722448349,0.4879812113940716,,4010.0473530739546,test,3,,,,,,,,,,4007.5642303563654,4008.0617386363447,4008.0617386363447,4008.0783862285316,4008.6623531132936,4009.1630637571216,4009.0628436543047,4010.064655534923,left,1,0.6,0.8908577561378479,,,,,,,,,,,s007,001,2024-07-23_16h13.48.079,simplestop_skeleton,2022.2.2,60.006864111011446,
None,None,,,,,,,,,2,0,2,0,4,1,17,3,,,,,,,,,4010.0477977991104,go,squareblack.png,right,0.6,,,,,,,,,,,,,,,0.0016301386058330536,0.4889271706342697,,4012.5500379763544,test,3,,,,,,,,,,4010.064655534923,4010.5629253424704,4010.5629253424704,4010.579751405865,4011.1642996147275,4011.665586322546,4011.565903507173,4012.5684838816524,right,1,0.6,0.5762683413922787,,,,,,,,,,,s007,001,2024-07-23_16h13.48.079,simplestop_skeleton,2022.2.2,60.006864111011446,
$currentCorrectResponse,$currentGoStim,,,,,,,,,2,0,2,0,4,2,18,0,,,,,,,,,4012.550493452698,stop,circleblack.png,left,0.6,,,,,,,,,,,,,,,0.0018531568348407745,0.48900873959064484,1.0896863006055355,4015.0526136122644,test,3,,,,,,,,,,4012.5684838816524,4013.0657407976687,4013.0657407976687,4013.0825556851923,4013.666374914348,4014.166869081557,4014.0668181739748,4015.070192847401,left,1,0.55,0.6009695157408714,,,,,,,,,,,s007,001,2024-07-23_16h13.48.079,simplestop_skeleton,2022.2.2,60.006864111011446,
$currentCorrectResponse,$currentGoStim,,,,,,,,,2,0,2,0,4,3,19,0,,,,,,,,,4015.053070910275,stop,squareblack.png,right,0.55,,,,,,,,,,,,,,,0.001599043607711792,0.4897972121834755,1.0399528443813324,4017.556103821844,test,3,,,,,,,,,,4015.070192847401,4015.5686522088945,4015.5686522088945,4015.5852507688105,4016.119027968496,4016.6196832358837,4016.5696755610406,4017.572905778885,right,1,0.5,0.694002777338028,,,,,,,,,,,s007,001,2024-07-23_16h13.48.079,simplestop_skeleton,2022.2.2,60.006864111011446,
None,None,,,,,,,,,2,0,2,0,5,0,20,2,,,,,,,,,4017.5565585643053,go,squareblack.png,right,0.5,,,,,,,,,,,,,,,0.001209493726491928,0.4903101623058319,,4020.057987552136,test,3,,,,,,,,,,4017.572905778885,4018.072672892362,4018.072672892362,4018.072672892362,4018.573178291321,4019.0741938613355,4019.0741938613355,4020.076433967799,right,1,0.5,0.7622449547052383,,,,,,,,,,,s007,001,2024-07-23_16h13.48.079,simplestop_skeleton,2022.2.2,60.006864111011446,
None,None,,,,,,,,,2,0,2,0,5,1,21,2,,,,,,,,,4020.0584223270416,stop,circleblack.png,left,0.5,,,,,,,,,,,,,,,0.0018304139375686646,0.48970530554652214,0.9902712628245354,4022.5608797371387,test,3,,,,,,,,,,4020.076433967799,4020.57414631173,4020.57414631173,4020.5907388962805,4021.0747060626745,4021.575185842812,4021.575185842812,4022.5776049233973,None,0,0.55,,,,,,,,,,,,s007,001,2024-07-23_16h13.48.079,simplestop_skeleton,2022.2.2,60.006864111011446,
None,None,,,,,,,,,2,0,2,0,5,2,22,2,,,,,,,,,4022.561316024512,go,circleblack.png,left,0.55,,,,,,,,,,,,,,,0.001250922679901123,0.4896625243127346,,4025.063546523452,test,3,,,,,,,,,,4022.5776049233973,4023.0776848718524,4023.0776848718524,4023.0776848718524,4023.6272978186607,4024.1279983855784,4024.077886149287,4025.0801820866764,left,1,0.55,0.8865361921489239,,,,,,,,,,,s007,001,2024-07-23_16h13.48.079,simplestop_skeleton,2022.2.2,60.006864111011446,
None,None,,,,,,,,,2,0,2,0,5,3,23,1,,,,,,,,,4025.063983988017,go,circleblack.png,left,0.55,,,,,,,,,,,,,,,0.0012652873992919922,0.48989755287766457,,4027.5678107067943,test,3,,,,,,,,,,4025.0801820866764,4025.5796026065946,4025.5796026065946,4025.5796026065946,4026.130192037672,4026.630726378411,4026.5808130204678,4027.5867077223957,left,1,0.55,0.7297731079161167,,,,,,,,,,,s007,001,2024-07-23_16h13.48.079,simplestop_skeleton,2022.2.2,60.006864111011446,
None,None,,,,,,,,,2,0,2,0,6,0,24,1,,,,,,,,,4027.568255651742,go,circleblack.png,left,0.55,,,,,,,,,,,,,,,0.0013915002346038818,0.4896380305290222,,4030.0695883221924,test,3,,,,,,,,,,4027.5867077223957,4028.083580479026,4028.083580479026,4028.100245885551,4028.634532954544,4029.1350857429206,4029.0849579274654,4030.0921103954315,left,1,0.55,0.8751905746757984,,,,,,,,,,,s007,001,2024-07-23_16h13.48.079,simplestop_skeleton,2022.2.2,60.006864111011446,
None,None,,,,,,,,,2,0,2,0,6,1,25,1,,,,,,,,,4030.0700319372118,go,squareblack.png,right,0.55,,,,,,,,,,,,,,,0.0074004679918289185,0.488733422011137,,4032.57383479923,test,3,,,,,,,,,,4030.0921103954315,4030.5850641578436,4030.5850641578436,4030.601743835956,4031.1356814466417,4031.6362178325653,4031.586173545569,4032.5948361605406,right,1,0.55,0.939646128565073,,,,,,,,,,,s007,001,2024-07-23_16h13.48.079,simplestop_skeleton,2022.2.2,60.006864111011446,
$currentCorrectResponse,$currentGoStim,,,,,,,,,2,0,2,0,6,2,26,0,,,,,,,,,4032.5743174254894,go,squareblack.png,right,0.55,,,,,,,,,,,,,,,0.0020108744502067566,0.48608221858739853,,4035.074581719935,test,3,,,,,,,,,,4032.5948361605406,4033.087891627103,4033.087891627103,4033.10437566787,4033.640307471156,4034.1555974781513,4034.088960941881,4035.094947747886,right,1,0.55,0.8057569786906242,,,,,,,,,,,s007,001,2024-07-23_16h13.48.079,simplestop_skeleton,2022.2.2,60.006864111011446,
$currentCorrectResponse,$currentGoStim,,,,,,,,,2,0,2,0,6,3,27,0,,,,,,,,,4035.075021866709,go,circleblack.png,left,0.55,,,,,,,,,,,,,,,0.0030925720930099487,0.48795563355088234,,4037.5774022750556,test,3,,,,,,,,,,4035.094947747886,4035.591811005026,4035.591811005026,4035.6083320640028,4036.1413555033505,4036.641623519361,4036.591691724956,4037.595931261778,left,1,0.55,1.0110948011279106,,,,,,,,,,,s007,001,2024-07-23_16h13.48.079,simplestop_skeleton,2022.2.2,60.006864111011446,
None,None,,,,,,,,,2,0,2,0,7,0,28,2,,,,,,,,,4037.577891007066,stop,circleblack.png,left,0.55,,,,,,,,,,,,,,,0.0012500844895839691,0.4884221591055393,1.038870930671692,4040.0808557495475,test,3,,,,,,,,,,4037.595931261778,4038.093490719795,4038.093490719795,4038.1103334203362,4038.643961634487,4039.144560482353,4039.0945486836135,4040.0982692837715,None,0,0.6,,,,,,,,,,,,s007,001,2024-07-23_16h13.48.079,simplestop_skeleton,2022.2.2,60.006864111011446,
None,None,,,,,,,,,2,0,2,0,7,1,29,2,,,,,,,,,4040.0812922529876,go,circleblack.png,left,0.6,,,,,,,,,,,,,,,0.001258503645658493,0.49009810760617256,,4042.5827079713345,test,3,,,,,,,,,,4040.0982692837715,4040.597517531365,4040.597517531365,4040.597517531365,4041.198245253414,4041.698898073286,4041.598642397672,4042.6002327017486,left,1,0.6,1.1057648248970509,,,,,,,,,,,s007,001,2024-07-23_16h13.48.079,simplestop_skeleton,2022.2.2,60.006864111011446,
None,None,,,,,,,,,2,0,2,0,7,2,30,2,,,,,,,,,4042.5831441394985,stop,squareblack.png,right,0.6,,,,,,,,,,,,,,,0.0016399435698986053,0.49108169600367546,1.0905205234885216,4045.085584204644,test,3,,,,,,,,,,4042.6002327017486,4043.099998693913,4043.099998693913,4043.099998693913,4043.6995171941817,4044.2005031220615,4044.10041019693,4045.1024032086134,None,0,0.65,,,,,,,,,,,,s007,001,2024-07-23_16h13.48.079,simplestop_skeleton,2022.2.2,60.006864111011446,
None,None,,,,,,,,,2,0,2,0,7,3,31,3,,,,,,,,,4045.0860197283328,stop,squareblack.png,right,0.65,,,,,,,,,,,,,,,0.0011725202202796936,0.4896392896771431,1.1415402591228485,4047.5904787629843,test,3,,,,,,,,,,4045.1024032086134,4045.6015866175294,4045.6015866175294,4045.6015866175294,4046.253369219601,4046.7543361485004,4046.6041728295386,4047.613385658711,right,1,0.6,0.8291132263839245,,,,,,,,,,,s007,001,2024-07-23_16h13.48.079,simplestop_skeleton,2022.2.2,60.006864111011446,
None,None,,,,,,,,,2,0,2,0,8,0,32,3,,,,,,,,,4047.5909843072295,go,squareblack.png,right,0.6,,,,,,,,,,,,,,,0.001405462622642517,0.4834216274321079,,4050.0910505466163,test,3,,,,,,,,,,4047.613385658711,4048.104400239885,4048.104400239885,4048.1211017258465,4048.705194514245,4049.205506231636,4049.1054296828806,4050.1140719540417,right,1,0.6,0.7570404559373856,,,,,,,,,,,s007,001,2024-07-23_16h13.48.079,simplestop_skeleton,2022.2.2,60.006864111011446,
None,None,,,,,,,,,2,0,2,0,8,1,33,1,,,,,,,,,4050.091487981379,go,circleblack.png,left,0.6,,,,,,,,,,,,,,,0.007921379059553146,0.4908578209578991,,4052.593889012933,test,3,,,,,,,,,,4050.1140719540417,4050.6078578047454,4050.6078578047454,4050.624765433371,4051.2078124284744,4051.7084231078625,4051.6083131991327,4052.610629566014,left,1,0.6,0.902106449007988,,,,,,,,,,,s007,001,2024-07-23_16h13.48.079,simplestop_skeleton,2022.2.2,60.006864111011446,
None,None,,,,,,,,,2,0,2,0,8,2,34,3,,,,,,,,,4052.594334639609,stop,circleblack.png,left,0.6,,,,,,,,,,,,,,,0.0012376941740512848,0.48976391181349754,1.0901387743651867,4055.0977960452437,test,3,,,,,,,,,,4052.610629566014,4053.1100281104445,4053.1100281104445,4053.1100281104445,4053.7105431184173,4054.2113335579634,4054.1111606396735,4055.1152739822865,left,1,0.55,0.6780128553509712,,,,,,,,,,,s007,001,2024-07-23_16h13.48.079,simplestop_skeleton,2022.2.2,60.006864111011446,
$currentCorrectResponse,$currentGoStim,,,,,,,,,2,0,2,0,8,3,35,0,,,,,,,,,4055.0982548370957,go,squareblack.png,right,0.55,,,,,,,,,,,,,,,0.0017335377633571625,0.49064773693680763,,4057.6002556681633,test,3,,,,,,,,,,4055.1152739822865,4055.6147069707513,4055.6147069707513,4055.6147069707513,4056.163305014372,4056.663801137358,4056.630330309272,4057.618909239769,right,1,0.55,0.6181067042052746,,,,,,,,,,,s007,001,2024-07-23_16h13.48.079,simplestop_skeleton,2022.2.2,60.006864111011446,
None,None,,,,,,,,,2,0,2,0,9,0,36,3,,,,,,,,,4057.6007922291756,go,squareblack.png,right,0.55,,,,,,,,,,,,,,,0.001170184463262558,0.4903268776834011,,4060.102178171277,test,3,,,,,,,,,,4057.618909239769,4058.116743899882,4058.116743899882,4058.1335606426,4058.6674670502543,4059.1682998761535,4059.1180009916425,4060.1200076825917,left,0,0.55,1.0522458627820015,,,,,,,,,,,s007,001,2024-07-23_16h13.48.079,simplestop_skeleton,2022.2.2,60.006864111011446,
None,None,,,,,,,,,2,0,2,0,9,1,37,2,,,,,,,,,4060.1026159524918,stop,circleblack.png,left,0.55,,,,,,,,,,,,,,,0.0017929300665855408,0.4897008575499058,1.0401813201606274,4062.606218431145,test,3,,,,,,,,,,4060.1200076825917,4060.618327010423,4060.618327010423,4060.635069049895,4061.1690043509007,4061.6695387028158,4061.6194748058915,4062.6248746328056,left,1,0.5,0.5477779693901539,,,,,,,,,,,s007,001,2024-07-23_16h13.48.079,simplestop_skeleton,2022.2.2,60.006864111011446,
None,None,,,,,,,,,2,0,2,0,9,2,38,3,,,,,,,,,4062.6066674105823,go,squareblack.png,right,0.5,,,,,,,,,,,,,,,0.001832813024520874,0.4880558177828789,,4065.1097113117576,test,3,,,,,,,,,,4062.6248746328056,4063.121030949056,4063.121030949056,4063.137654811144,4063.621527582407,4064.122090868652,4064.122090868652,4065.129574023187,right,1,0.5,0.6935636289417744,,,,,,,,,,,s007,001,2024-07-23_16h13.48.079,simplestop_skeleton,2022.2.2,60.006864111011446,
$currentCorrectResponse,$currentGoStim,,,,,,,,,2,0,2,0,9,3,39,0,,,,,,,,,4065.1101533956826,stop,squareblack.png,right,0.5,,,,,,,,,,,,,,,0.0021214038133621216,0.48719489946961403,0.9879519119858742,4067.610594317317,test,3,,,,,,,,,,4065.129574023187,4065.6239406578243,4065.6239406578243,4065.6405023634434,4066.1245181299746,4066.6248285733163,4066.6248285733163,4067.6416528001428,None,0,0.55,,,,,,,,,,,,s007,001,2024-07-23_16h13.48.079,simplestop_skeleton,2022.2.2,60.006864111011446,
$currentCorrectResponse,$currentGoStim,,,,,,,,,2,0,2,0,10,0,40,0,,,,,,,,,4067.6110521815717,go,squareblack.png,right,0.55,,,,,,,,,,,,,,,0.0012804605066776276,0.4900490343570709,,4070.1187562271953,test,3,,,,,,,,,,4067.6416528001428,4068.1266068145633,4068.1266068145633,4068.1432483941317,4068.6770342588425,4069.178036328405,4069.1275847665966,4070.1369806677103,right,1,0.55,0.90271070972085,,,,,,,,,,,s007,001,2024-07-23_16h13.48.079,simplestop_skeleton,2022.2.2,60.006864111011446,
$currentCorrectResponse,$currentGoStim,,,,,,,,,2,0,2,0,10,1,41,0,,,,,,,,,4070.119198255241,go,circleblack.png,left,0.55,,,,,,,,,,,,,,,0.0018490701913833618,0.48452309519052505,,4072.616471402347,test,3,,,,,,,,,,4070.1369806677103,4070.6305147483945,4070.6305147483945,4070.6474665775895,4071.1813503988087,4071.6822343207896,4071.6324665397406,4072.6336004175246,left,1,0.55,0.7910555154085159,,,,,,,,,,,s007,001,2024-07-23_16h13.48.079,simplestop_skeleton,2022.2.2,60.006864111011446,
$currentCorrectResponse,$currentGoStim,,,,,,,,,2,0,2,0,10,2,42,0,,,,,,,,,4072.6169536076486,go,squareblack.png,right,0.55,,,,,,,,,,,,,,,0.0015719346702098846,0.4890970028936863,,4075.1207239814103,test,3,,,,,,,,,,4072.6336004175246,4073.1320186257362,4073.1320186257362,4073.1487237736583,4073.6830631121993,4074.183140847832,4074.1333554387093,4075.14245711267,right,1,0.55,0.8472912907600403,,,,,,,,,,,s007,001,2024-07-23_16h13.48.079,simplestop_skeleton,2022.2.2,60.006864111011446,
None,None,,,,,,,,,2,0,2,0,10,3,43,2,,,,,,,,,4075.121184449643,go,circleblack.png,left,0.55,,,,,,,,,,,,,,,0.0025148801505565643,0.4861893393099308,,4077.621445775032,test,3,,,,,,,,,,4075.14245711267,4075.6349426209927,4075.6349426209927,4075.6514524444938,4076.1855088435113,4076.685868766159,4076.6358276195824,4077.638594839722,left,1,0.55,0.7133645713329315,,,,,,,,,,,s007,001,2024-07-23_16h13.48.079,simplestop_skeleton,2022.2.2,60.006864111011446,
$currentCorrectResponse,$currentGoStim,,,,,,,,,2,0,2,0,11,0,44,0,,,,,,,,,4077.621904473752,stop,circleblack.png,left,0.55,,,,,,,,,,,,,,,0.0012964308261871338,0.4896434359252453,1.0401019491255283,4080.1244316399097,test,3,,,,,,,,,,4077.638594839722,4078.1375004164875,4078.1375004164875,4078.1541928760707,4078.688096318394,4079.188667692244,4079.139033641666,4080.141897365451,left,1,0.5,0.6772582344710827,,,,,,,,,,,s007,001,2024-07-23_16h13.48.079,simplestop_skeleton,2022.2.2,60.006864111011446,
None,None,,,,,,,,,2,0,2,0,11,1,45,2,,,,,,,,,4080.124886725098,stop,squareblack.png,right,0.5,,,,,,,,,,,,,,,0.0016302913427352905,0.4893989600241184,0.9898328892886639,4082.6282612644136,test,3,,,,,,,,,,4080.141897365451,4080.6402671188116,4080.6402671188116,4080.656984627247,4081.140780493617,4081.641569081694,4081.641569081694,4082.647848829627,right,1,0.45,0.5043678134679794,,,,,,,,,,,s007,001,2024-07-23_16h13.48.079,simplestop_skeleton,2022.2.2,60.006864111011446,
None,None,,,,,,,,,2,0,2,0,11,2,46,1,,,,,,,,,4082.6287533827126,go,circleblack.png,left,0.45,,,,,,,,,,,,,,,0.0018523260951042175,0.4895896166563034,,4085.1300351396203,test,3,,,,,,,,,,4082.647848829627,4083.1446204409003,4083.1446204409003,4083.1611002385616,4083.5948683954775,4084.094297539443,4084.1443594247103,4085.147912900895,left,1,0.45,0.5224975235760212,,,,,,,,,,,s007,001,2024-07-23_16h13.48.079,simplestop_skeleton,2022.2.2,60.006864111011446,
None,None,,,,,,,,,2,0,2,0,11,3,47,1,,,,,,,,,4085.130500227213,go,circleblack.png,left,0.45,,,,,,,,,,,,,,,0.001314159482717514,0.4889032617211342,,4087.6325624398887,test,3,,,,,,,,,,4085.147912900895,4085.6458087339997,4085.6458087339997,4085.662456419319,4086.096407018602,4086.5967998169363,4086.6469172351062,4087.6481119282544,left,1,0.45,0.7448133639991283,,,,,,,,,,,s007,001,2024-07-23_16h13.48.079,simplestop_skeleton,2022.2.2,60.006864111011446,
