corrGoResp,shape,practiceBlocks.thisRepN,practiceBlocks.thisTrialN,practiceBlocks.thisN,practiceBlocks.thisIndex,practiceTrials.thisRepN,practiceTrials.thisTrialN,practiceTrials.thisN,practiceTrials.thisIndex,stopBlocks.thisRepN,stopBlocks.thisTrialN,stopBlocks.thisN,stopBlocks.thisIndex,testTrials.thisRepN,testTrials.thisTrialN,testTrials.thisN,testTrials.thisIndex,stopPracTrialList,Test Block: 1,welcome.started,start_exp.started,start_exp.keys,start_exp.rt,instrStopText.started,start_prac.started,StartTrialTimeStamp,trialType,goStim,correctResponse,ssd,fixation.started,rules.started,goStim.started,goResp.started,fixation.stopped,stopSignal.started,stopSignal.stopped,goStim.stopped,goResp.stopped,rules.stopped,goResp.keys,goResp.corr,goResp.rt,text.started,rules_2.started,fixationOnset,goStimOnset,stopSignalOnset,EndTrialTimeStamp,Phase,Block,text.stopped,rules_2.stopped,text_5.started,key_resp_3.started,key_resp_3.keys,key_resp_3.rt,key_resp.started,testText.started,test_fixation.started,test_fixation.stopped,goStim_test.started,goResp_test.started,stopSignal_test.started,stopSignal_test.stopped,goStim_test.stopped,goResp_test.stopped,goResp_test.keys,goResp_test.corr,EndingSSD,goResp_test.rt,text_6.started,key_resp_4.started,key_resp_4.keys,key_resp_4.rt,Test Block: 2,Test Block: 3,ending_text.started,end_resp.started,end_resp.keys,end_resp.rt,participant,session,date,expName,psychopyVersion,frameRate,
,,,,,,,,,,,,,,,,,,"[{'fileName': 'squareblack.png', 'correct_response': 'right', 'condition': 'stop'}, {'fileName': 'circleblack.png', 'correct_response': 'left', 'condition': 'go'}, {'fileName': 'circleblack.png', 'correct_response': 'left', 'condition': 'go'}, {'fileName': 'squareblack.png', 'correct_response': 'right', 'condition': 'go'}, {'fileName': 'circleblack.png', 'correct_response': 'left', 'condition': 'go'}, {'fileName': 'squareblack.png', 'correct_response': 'right', 'condition': 'go'}, {'fileName': 'squareblack.png', 'correct_response': 'right', 'condition': 'go'}, {'fileName': 'squareblack.png', 'correct_response': 'right', 'condition': 'stop'}, {'fileName': 'circleblack.png', 'correct_response': 'left', 'condition': 'stop'}, {'fileName': 'circleblack.png', 'correct_response': 'left', 'condition': 'stop'}, {'fileName': 'circleblack.png', 'correct_response': 'left', 'condition': 'go'}, {'fileName': 'squareblack.png', 'correct_response': 'right', 'condition': 'go'}, {'fileName': 'circleblack.png', 'correct_response': 'left', 'condition': 'go'}, {'fileName': 'squareblack.png', 'correct_response': 'right', 'condition': 'go'}, {'fileName': 'squareblack.png', 'correct_response': 'right', 'condition': 'go'}, {'fileName': 'circleblack.png', 'correct_response': 'left', 'condition': 'stop'}, {'fileName': 'squareblack.png', 'correct_response': 'right', 'condition': 'stop'}, {'fileName': 'squareblack.png', 'correct_response': 'right', 'condition': 'go'}, {'fileName': 'circleblack.png', 'correct_response': 'left', 'condition': 'go'}, {'fileName': 'circleblack.png', 'correct_response': 'left', 'condition': 'stop'}, {'fileName': 'circleblack.png', 'correct_response': 'left', 'condition': 'go'}, {'fileName': 'circleblack.png', 'correct_response': 'left', 'condition': 'go'}, {'fileName': 'squareblack.png', 'correct_response': 'right', 'condition': 'stop'}, {'fileName': 'squareblack.png', 'correct_response': 'right', 'condition': 'go'}]","[{'fileName': 'circleblack.png', 'correct_response': 'left', 'condition': 'stop'}, {'fileName': 'squareblack.png', 'correct_response': 'right', 'condition': 'go'}, {'fileName': 'squareblack.png', 'correct_response': 'right', 'condition': 'stop'}, {'fileName': 'circleblack.png', 'correct_response': 'left', 'condition': 'go'}, {'fileName': 'squareblack.png', 'correct_response': 'right', 'condition': 'go'}, {'fileName': 'squareblack.png', 'correct_response': 'right', 'condition': 'stop'}, {'fileName': 'squareblack.png', 'correct_response': 'right', 'condition': 'go'}, {'fileName': 'squareblack.png', 'correct_response': 'right', 'condition': 'go'}, {'fileName': 'circleblack.png', 'correct_response': 'left', 'condition': 'go'}, {'fileName': 'circleblack.png', 'correct_response': 'left', 'condition': 'go'}, {'fileName': 'circleblack.png', 'correct_response': 'left', 'condition': 'stop'}, {'fileName': 'circleblack.png', 'correct_response': 'left', 'condition': 'go'}, {'fileName': 'circleblack.png', 'correct_response': 'left', 'condition': 'stop'}, {'fileName': 'squareblack.png', 'correct_response': 'right', 'condition': 'go'}, {'fileName': 'circleblack.png', 'correct_response': 'left', 'condition': 'go'}, {'fileName': 'squareblack.png', 'correct_response': 'right', 'condition': 'stop'}, {'fileName': 'circleblack.png', 'correct_response': 'left', 'condition': 'stop'}, {'fileName': 'squareblack.png', 'correct_response': 'right', 'condition': 'go'}, {'fileName': 'circleblack.png', 'correct_response': 'left', 'condition': 'go'}, {'fileName': 'squareblack.png', 'correct_response': 'right', 'condition': 'go'}, {'fileName': 'circleblack.png', 'correct_response': 'left', 'condition': 'go'}, {'fileName': 'circleblack.png', 'correct_response': 'left', 'condition': 'go'}, {'fileName': 'squareblack.png', 'correct_response': 'right', 'condition': 'stop'}, {'fileName': 'squareblack.png', 'correct_response': 'right', 'condition': 'go'}, {'fileName': 'circleblack.png', 'correct_response': 'left', 'condition': 'go'}, {'fileName': 'circleblack.png', 'correct_response': 'left', 'condition': 'go'}, {'fileName': 'circleblack.png', 'correct_response': 'left', 'condition': 'stop'}, {'fileName': 'circleblack.png', 'correct_response': 'left', 'condition': 'go'}, {'fileName': 'squareblack.png', 'correct_response': 'right', 'condition': 'go'}, {'fileName': 'squareblack.png', 'correct_response': 'right', 'condition': 'stop'}, {'fileName': 'squareblack.png', 'correct_response': 'right', 'condition': 'go'}, {'fileName': 'circleblack.png', 'correct_response': 'left', 'condition': 'stop'}, {'fileName': 'squareblack.png', 'correct_response': 'right', 'condition': 'go'}, {'fileName': 'circleblack.png', 'correct_response': 'left', 'condition': 'go'}, {'fileName': 'squareblack.png', 'correct_response': 'right', 'condition': 'go'}, {'fileName': 'squareblack.png', 'correct_response': 'right', 'condition': 'stop'}, {'fileName': 'circleblack.png', 'correct_response': 'left', 'condition': 'go'}, {'fileName': 'squareblack.png', 'correct_response': 'right', 'condition': 'stop'}, {'fileName': 'squareblack.png', 'correct_response': 'right', 'condition': 'go'}, {'fileName': 'circleblack.png', 'correct_response': 'left', 'condition': 'stop'}, {'fileName': 'squareblack.png', 'correct_response': 'right', 'condition': 'go'}, {'fileName': 'circleblack.png', 'correct_response': 'left', 'condition': 'go'}, {'fileName': 'squareblack.png', 'correct_response': 'right', 'condition': 'go'}, {'fileName': 'circleblack.png', 'correct_response': 'left', 'condition': 'go'}, {'fileName': 'circleblack.png', 'correct_response': 'left', 'condition': 'stop'}, {'fileName': 'squareblack.png', 'correct_response': 'right', 'condition': 'go'}, {'fileName': 'circleblack.png', 'correct_response': 'left', 'condition': 'go'}, {'fileName': 'squareblack.png', 'correct_response': 'right', 'condition': 'stop'}]",3126.702336229384,3126.702336229384,return,2.0813329182565212,,,,,,,,,,,,,,,,,,,,,,,,,,,,,,,,,,,,,,,,,,,,,,,,,,,,,,,,,,,s009,001,2024-07-12_15h45.17.522,simplestop_skeleton,2022.2.2,59.793689124131475,
None,None,0,0,0,0,0,0,0,1,,,,,,,,,,,,,,,3128.8231170661747,3128.8231170661747,3241.9579703100026,stop,squareblack.png,right,0.35,3241.977331377566,3241.977331377566,3242.4713902436197,3242.4713902436197,3242.488193962723,3242.8218029886484,3243.32088150084,3243.472494866699,3244.473446916789,3244.4910833351314,right,1,0.7340639345347881,3244.4910833351314,3244.4910833351314,0.002737637609243393,0.4867694117128849,0.8371653109788895,3244.9754345342517,practice,1,,,,,,,,,,,,,,,,,,,,,,,,,,,,,,,s009,001,2024-07-12_15h45.17.522,simplestop_skeleton,2022.2.2,59.793689124131475,
None,None,0,0,0,0,0,1,1,3,,,,,,,,,,,,,,,,,3244.9759676791728,go,circleblack.png,left,0.3,3245.001360464841,3245.001360464841,3245.4912340454757,3245.4912340454757,3245.5080399885774,3245.791513476521,3246.292353004217,3246.492447756231,3247.493752349168,3247.510502088815,left,1,0.4457487650215626,3247.510502088815,3247.510502088815,0.007873333990573883,0.489077165722847,0.7894992902874947,3247.995254971087,practice,1,,,,,,,,,,,,,,,,,,,,,,,,,,,,,,,s009,001,2024-07-12_15h45.17.522,simplestop_skeleton,2022.2.2,59.793689124131475,
None,None,0,0,0,0,0,2,2,3,,,,,,,,,,,,,,,,,3247.99568047747,go,circleblack.png,left,0.3,3248.0152979418635,3248.0152979418635,3248.5116958655417,3248.5116958655417,3248.528107840568,3248.8117461688817,3249.31260901317,3249.5127093344927,3250.5138699896634,3250.5304838716984,left,1,0.3677334748208523,3250.5304838716984,3250.5304838716984,0.0014442242681980133,0.4898134171962738,0.7901679761707783,3251.0152872763574,practice,1,3251.035070117563,3251.035070117563,,,,,,,,,,,,,,,,,,,,,,,,,,,,,s009,001,2024-07-12_15h45.17.522,simplestop_skeleton,2022.2.2,59.793689124131475,
None,None,0,0,0,0,0,3,3,2,,,,,,,,,,,,,,,,,3251.0158427916467,go,squareblack.png,right,0.3,3251.035070117563,3251.035070117563,3251.5314343981445,3251.5314343981445,3251.548347454518,3251.832119576633,3252.332367248833,3252.5323725901544,3253.5336797833443,3253.550190638751,right,1,0.44416674226522446,3253.550190638751,3253.550190638751,0.0016306377947330475,0.4920085482299328,0.7901156134903431,3254.035090968013,practice,1,3254.055190656334,3254.055190656334,,,,,,,,,,,,,,,,,,,,,,,,,,,,,s009,001,2024-07-12_15h45.17.522,simplestop_skeleton,2022.2.2,59.793689124131475,
None,None,0,0,0,0,1,0,4,3,,,,,,,,,,,,,,,,,3254.035509891808,go,circleblack.png,left,0.3,3254.055190656334,3254.055190656334,3254.5514876767993,3254.5514876767993,3254.5682144872844,3254.852027539164,3255.3523017168045,3255.5524359345436,3256.553632263094,3256.5701523907483,left,1,0.39761193841695786,3256.5701523907483,3256.5701523907483,0.0019190236926078796,0.4903309866786003,0.7908445559442043,3257.054920233786,practice,1,3257.0748787410557,3257.0748787410557,,,,,,,,,,,,,,,,,,,,,,,,,,,,,s009,001,2024-07-12_15h45.17.522,simplestop_skeleton,2022.2.2,59.793689124131475,
None,None,0,0,0,0,1,1,5,1,,,,,,,,,,,,,,,,,3257.055359888822,go,squareblack.png,right,0.3,3257.0748787410557,3257.0748787410557,3257.571381099522,3257.571381099522,3257.5879220701754,3257.871554862708,3258.3722040764987,3258.5724640972912,3259.5736262127757,3259.590060722083,right,1,0.3063450790941715,3259.590060722083,3259.590060722083,0.0017014369368553162,0.4901519604027271,0.790745310485363,3260.0750360637903,practice,1,3260.0944097340107,3260.0944097340107,,,,,,,,,,,,,,,,,,,,,,,,,,,,,s009,001,2024-07-12_15h45.17.522,simplestop_skeleton,2022.2.2,59.793689124131475,
None,None,0,0,0,0,1,2,6,1,,,,,,,,,,,,,,,,,3260.075464375317,go,squareblack.png,right,0.3,3260.0944097340107,3260.0944097340107,3260.591292515397,3260.591292515397,3260.607967171818,3260.891776032746,3261.3924509733915,3261.5927903465927,3262.593928836286,3262.593928836286,right,1,0.39682917296886444,3262.593928836286,3262.593928836286,0.0011915192008018494,0.49028679728507996,0.7904278747737408,3263.0786026753485,practice,1,3263.097896516323,3263.097896516323,,,,,,,,,,,,,,,,,,,,,,,,,,,,,s009,001,2024-07-12_15h45.17.522,simplestop_skeleton,2022.2.2,59.793689124131475,
None,None,0,0,0,0,1,3,7,3,,,,,,,,,,,,,,,,,3263.0790286436677,stop,squareblack.png,right,0.3,3263.097896516323,3263.097896516323,3263.594678442925,3263.594678442925,3263.6113948896527,3263.8950587660074,3264.3956846147776,3264.5956875234842,3265.5972771309316,3265.5972771309316,right,1,0.39808178693056107,3265.5972771309316,3265.5972771309316,0.0012585483491420746,0.4898392893373966,0.7901145815849304,3266.0817668288946,practice,1,3266.1018129996955,3266.1018129996955,,,,,,,,,,,,,,,,,,,,,,,,,,,,,s009,001,2024-07-12_15h45.17.522,simplestop_skeleton,2022.2.2,59.793689124131475,
$currentCorrectResponse,$currentGoStim,0,0,0,0,2,0,8,0,,,,,,,,,,,,,,,,,3266.0821956060827,stop,circleblack.png,left,0.25,3266.1018129996955,3266.1018129996955,3266.598075866699,3266.598075866699,3266.614688884467,3266.8482962585986,3267.3493553847075,3267.598570406437,3268.6004538424313,3268.616894595325,left,1,0.39136170968413353,3268.616894595325,3268.616894595325,0.001879669725894928,0.4900156818330288,0.7403777167201042,3269.1018525846303,practice,1,3269.1215798296034,3269.1215798296034,,,,,,,,,,,,,,,,,,,,,,,,,,,,,s009,001,2024-07-12_15h45.17.522,simplestop_skeleton,2022.2.2,59.793689124131475,
None,None,0,0,0,0,2,1,9,2,,,,,,,,,,,,,,,,,3269.102281820029,stop,circleblack.png,left,0.2,3269.1215798296034,3269.1215798296034,3269.6183146238327,3269.6183146238327,3269.6346756592393,3269.8182892277837,3270.3188771903515,3270.619056649506,3271.620320688933,3271.636766590178,None,0,,3271.636766590178,3271.636766590178,0.0013024397194385529,0.4899212345480919,0.6900482513010502,3272.1217220686376,practice,1,3272.141369033605,3272.141369033605,,,,,,,,,,,,,,,,,,,,,,,,,,,,,s009,001,2024-07-12_15h45.17.522,simplestop_skeleton,2022.2.2,59.793689124131475,
None,None,0,0,0,0,2,2,10,3,,,,,,,,,,,,,,,,,3272.1221316866577,go,circleblack.png,left,0.25,3272.141369033605,3272.141369033605,3272.638043228537,3272.638043228537,3272.655100762844,3272.8882336318493,3273.3887964077294,3273.6389812007546,3274.640493236482,3274.6570198126137,left,1,0.4195646680891514,3274.6570198126137,3274.6570198126137,0.0012529566884040833,0.4899776503443718,0.7402165681123734,3275.1417725235224,practice,1,3275.1617893464863,3275.1617893464863,,,,,,,,,,,,,,,,,,,,,,,,,,,,,s009,001,2024-07-12_15h45.17.522,simplestop_skeleton,2022.2.2,59.793689124131475,
None,None,0,0,0,0,2,3,11,2,,,,,,,,,,,,,,,,,3275.142190143466,go,squareblack.png,right,0.25,3275.1617893464863,3275.1617893464863,3275.6582465954125,3275.6582465954125,3275.6747779361904,3275.90845098719,3276.4087601415813,3276.6590899452567,3277.6601841636,3277.6767707690597,right,1,0.5934870131313801,3277.6767707690597,3277.6767707690597,0.001669362187385559,0.4898010678589344,0.7400000020861626,3278.161628317088,practice,1,3278.181771237403,3278.181771237403,,,,,,,,,,,,,,,,,,,,,,,,,,,,,s009,001,2024-07-12_15h45.17.522,simplestop_skeleton,2022.2.2,59.793689124131475,
None,None,0,0,0,0,3,0,12,1,,,,,,,,,,,,,,,,,3278.162041246891,go,circleblack.png,left,0.25,3278.181771237403,3278.181771237403,3278.677703458816,3278.677703458816,3278.6946429796517,3278.9282465316355,3279.4287858344615,3279.678968090564,3280.680161830038,3280.6968378834426,left,1,0.37306804209947586,3280.6968378834426,3280.6968378834426,0.0018834583461284637,0.4902849979698658,0.7401843070983887,3281.181645233184,practice,1,3281.201707392931,3281.201707392931,,,,,,,,,,,,,,,,,,,,,,,,,,,,,s009,001,2024-07-12_15h45.17.522,simplestop_skeleton,2022.2.2,59.793689124131475,
None,None,0,0,0,0,3,1,13,3,,,,,,,,,,,,,,,,,3281.1820667497814,go,squareblack.png,right,0.25,3281.201707392931,3281.201707392931,3281.698491513729,3281.698491513729,3281.714686807245,3281.9481365047395,3282.4488701969385,3282.6990258209407,3283.7002384141088,3283.7168668955564,right,1,0.3950080871582031,3283.7168668955564,3283.7168668955564,0.001718670129776001,0.4904998019337654,0.7404058761894703,3284.201631333679,practice,1,3284.220973070711,3284.220973070711,,,,,,,,,,,,,,,,,,,,,,,,,,,,,s009,001,2024-07-12_15h45.17.522,simplestop_skeleton,2022.2.2,59.793689124131475,
None,None,0,0,0,0,3,2,14,2,,,,,,,,,,,,,,,,,3284.2020820602775,go,squareblack.png,right,0.25,3284.220973070711,3284.220973070711,3284.7177739217877,3284.7177739217877,3284.7348206453025,3284.968276821077,3285.4686502069235,3285.7190735675395,3286.720060158521,3286.720060158521,right,1,0.47697628661990166,3286.720060158521,3286.720060158521,0.0012052766978740692,0.4901679456233978,0.7404075339436531,3287.204963888973,practice,1,3287.224966943264,3287.224966943264,,,,,,,,,,,,,,,,,,,,,,,,,,,,,s009,001,2024-07-12_15h45.17.522,simplestop_skeleton,2022.2.2,59.793689124131475,
None,None,0,0,0,0,3,3,15,1,,,,,,,,,,,,,,,,,3287.2053769677877,stop,circleblack.png,left,0.25,3287.224966943264,3287.224966943264,3287.721373721957,3287.721373721957,3287.7379982620478,3287.9716318883,3288.472200140357,3288.72274851799,3289.723661310971,3289.740083489567,None,0,,3289.740083489567,3289.740083489567,0.0018386989831924438,0.4902777709066868,0.7405307553708553,3290.225073851645,practice,1,3290.2449661381543,3290.2449661381543,,,,,,,,,,,,,,,,,,,,,,,,,,,,,s009,001,2024-07-12_15h45.17.522,simplestop_skeleton,2022.2.2,59.793689124131475,
None,None,0,0,0,0,4,0,16,2,,,,,,,,,,,,,,,,,3290.2255106195807,stop,squareblack.png,right,0.3,3290.2449661381543,3290.2449661381543,3290.7415204793215,3290.7415204793215,3290.758134379983,3291.041613508016,3291.5422360002995,3291.742269296199,3292.743499711156,3292.7604175284505,right,1,0.4109587147831917,3292.7604175284505,3292.7604175284505,0.0017128586769104004,0.4900067336857319,0.790399082005024,3293.2449962832034,practice,1,3293.26437022537,3293.26437022537,,,,,,,,,,,,,,,,,,,,,,,,,,,,,s009,001,2024-07-12_15h45.17.522,simplestop_skeleton,2022.2.2,59.793689124131475,
$currentCorrectResponse,$currentGoStim,0,0,0,0,4,1,17,0,,,,,,,,,,,,,,,,,3293.245415907353,go,squareblack.png,right,0.25,3293.26437022537,3293.26437022537,3293.7613295316696,3293.7613295316696,3293.7779747508466,3294.01155769825,3294.5120846778154,3294.7624922692776,3295.764055993408,3295.764055993408,right,1,0.576179176568985,3295.764055993408,3295.764055993408,0.0011821649968624115,0.4898875840008259,0.7403058633208275,3296.248273961246,practice,1,3296.26830682531,3296.26830682531,,,,,,,,,,,,,,,,,,,,,,,,,,,,,s009,001,2024-07-12_15h45.17.522,simplestop_skeleton,2022.2.2,59.793689124131475,
None,None,0,0,0,0,4,2,18,1,,,,,,,,,,,,,,,,,3296.2486861273646,go,circleblack.png,left,0.25,3296.26830682531,3296.26830682531,3296.7646115384996,3296.7646115384996,3296.7813056968153,3297.014719646424,3297.5154569149017,3297.765627145767,3298.7667157277465,3298.7835438251495,left,1,0.5016484409570694,3298.7835438251495,3298.7835438251495,0.001869484782218933,0.4900786578655243,0.7404897548258305,3299.2681712917984,practice,1,3299.2880637943745,3299.2880637943745,,,,,,,,,,,,,,,,,,,,,,,,,,,,,s009,001,2024-07-12_15h45.17.522,simplestop_skeleton,2022.2.2,59.793689124131475,
$currentCorrectResponse,$currentGoStim,0,0,0,0,4,3,19,0,,,,,,,,,,,,,,,,,3299.2686054110527,stop,circleblack.png,left,0.25,3299.2880637943745,3299.2880637943745,3299.784573543817,3299.784573543817,3299.8012160137296,3300.034683547914,3300.535301119089,3300.785642955452,3301.7868505977094,3301.803295273334,left,1,0.5168478451669216,3301.803295273334,3301.803295273334,0.0012972764670848846,0.4898212067782879,0.740147527307272,3302.288252476603,practice,1,3302.3076945990324,3302.3076945990324,,,,,,,,,,,,,,,,,,,,,,,,,,,,,s009,001,2024-07-12_15h45.17.522,simplestop_skeleton,2022.2.2,59.793689124131475,
$currentCorrectResponse,$currentGoStim,0,0,0,0,5,0,20,0,,,,,,,,,,,,,,,,,3302.2886659167707,go,circleblack.png,left,0.2,3302.3076945990324,3302.3076945990324,3302.8044989928603,3302.8044989928603,3302.821121778339,3303.0047236531973,3303.5053174868226,3303.805623408407,3304.806606672704,3304.806606672704,left,1,0.45589549094438553,3304.806606672704,3304.806606672704,0.0012538768351078033,0.490209873765707,0.6903818100690842,3305.291658118367,practice,1,3305.31102816388,3305.31102816388,,,,,,,,,,,,,,,,,,,,,,,,,,,,,s009,001,2024-07-12_15h45.17.522,simplestop_skeleton,2022.2.2,59.793689124131475,
None,None,0,0,0,0,5,1,21,2,,,,,,,,,,,,,,,,,3305.2920953929424,go,circleblack.png,left,0.2,3305.31102816388,3305.31102816388,3305.8077897056937,3305.8077897056937,3305.8246590718627,3306.008062902838,3306.508747473359,3306.808982051909,3307.8103650324047,3307.8268845900893,left,1,0.42067354917526245,3307.8268845900893,3307.8268845900893,0.0012673959136009216,0.49003079906105995,0.6903598830103874,3308.3119614049792,practice,1,3308.3317064903677,3308.3317064903677,,,,,,,,,,,,,,,,,,,,,,,,,,,,,s009,001,2024-07-12_15h45.17.522,simplestop_skeleton,2022.2.2,59.793689124131475,
$currentCorrectResponse,$currentGoStim,0,0,0,0,5,2,22,0,,,,,,,,,,,,,,,,,3308.312400471419,stop,squareblack.png,right,0.2,3308.3317064903677,3308.3317064903677,3308.8281737715006,3308.8281737715006,3308.844591524452,3309.0280243866146,3309.5286703668535,3309.8289823830128,3310.830209825188,3310.8468233831227,None,0,,3310.8468233831227,3310.8468233831227,0.0016675256192684174,0.49003584310412407,0.6902806386351585,3311.3316728547215,practice,1,3311.3515009321272,3311.3515009321272,,,,,,,,,,,,,,,,,,,,,,,,,,,,,s009,001,2024-07-12_15h45.17.522,simplestop_skeleton,2022.2.2,59.793689124131475,
$currentCorrectResponse,$currentGoStim,0,0,0,0,5,3,23,0,,,,,,,,,,,,,,,,,3311.3320908881724,go,squareblack.png,right,0.25,3311.3515009321272,3311.3515009321272,3311.847991269082,3311.847991269082,3311.864738922566,3312.098342332989,3312.598816294223,3312.8491758853197,3313.85019281134,3313.86687810719,right,1,0.5633891113102436,3313.86687810719,3313.86687810719,0.001310247927904129,0.4897551201283932,0.7401682399213314,3314.3517725989223,practice,1,3314.369510244578,3314.369510244578,,,,,,,,,,,,,,,,,,,,,,,,,,,,,s009,001,2024-07-12_15h45.17.522,simplestop_skeleton,2022.2.2,59.793689124131475,
,,0,0,0,0,,,,,,,,,,,,,"[{'fileName': 'circleblack.png', 'correct_response': 'left', 'condition': 'go'}, {'fileName': 'squareblack.png', 'correct_response': 'right', 'condition': 'go'}, {'fileName': 'squareblack.png', 'correct_response': 'right', 'condition': 'go'}, {'fileName': 'circleblack.png', 'correct_response': 'left', 'condition': 'stop'}, {'fileName': 'circleblack.png', 'correct_response': 'left', 'condition': 'stop'}, {'fileName': 'squareblack.png', 'correct_response': 'right', 'condition': 'stop'}, {'fileName': 'circleblack.png', 'correct_response': 'left', 'condition': 'go'}, {'fileName': 'squareblack.png', 'correct_response': 'right', 'condition': 'stop'}, {'fileName': 'squareblack.png', 'correct_response': 'right', 'condition': 'go'}, {'fileName': 'circleblack.png', 'correct_response': 'left', 'condition': 'go'}, {'fileName': 'squareblack.png', 'correct_response': 'right', 'condition': 'go'}, {'fileName': 'circleblack.png', 'correct_response': 'left', 'condition': 'go'}, {'fileName': 'circleblack.png', 'correct_response': 'left', 'condition': 'go'}, {'fileName': 'squareblack.png', 'correct_response': 'right', 'condition': 'go'}, {'fileName': 'circleblack.png', 'correct_response': 'left', 'condition': 'go'}, {'fileName': 'circleblack.png', 'correct_response': 'left', 'condition': 'stop'}, {'fileName': 'squareblack.png', 'correct_response': 'right', 'condition': 'go'}, {'fileName': 'squareblack.png', 'correct_response': 'right', 'condition': 'stop'}, {'fileName': 'circleblack.png', 'correct_response': 'left', 'condition': 'stop'}, {'fileName': 'squareblack.png', 'correct_response': 'right', 'condition': 'stop'}, {'fileName': 'circleblack.png', 'correct_response': 'left', 'condition': 'go'}, {'fileName': 'circleblack.png', 'correct_response': 'left', 'condition': 'go'}, {'fileName': 'squareblack.png', 'correct_response': 'right', 'condition': 'go'}, {'fileName': 'squareblack.png', 'correct_response': 'right', 'condition': 'go'}]",,,,,,,,,,,,,,,,,,,,,,,,,,,,,,,,,,,,3314.369510244578,3314.369510244578,return,4.208950370550156,,,,,,,,,,,,,,,,,,,,,,,,,s009,001,2024-07-12_15h45.17.522,simplestop_skeleton,2022.2.2,59.793689124131475,
None,None,,,,,,,,,0,0,0,0,0,0,0,3,,,,,,,,,3325.622353579849,stop,circleblack.png,left,0.25,,,,,,,,,,,,,,,,0.0020135827362537384,0.497937198728323,0.7482711151242256,3328.1338543370366,test,1,,,,,,,3318.605350278318,3318.605350278318,3325.6423758789897,3326.147122196853,3326.147122196853,3326.147122196853,3326.3973251096904,3326.898303028196,3327.148392584175,3328.1534062698483,None,0,0.3,,,,,,,,,,,,s009,001,2024-07-12_15h45.17.522,simplestop_skeleton,2022.2.2,59.793689124131475,
None,None,,,,,,,,,0,0,0,0,0,1,1,3,,,,,,,,,3328.1343986205757,go,squareblack.png,right,0.3,,,,,,,,,,,,,,,,0.0017451643943786621,0.489280141890049,,3330.6365479938686,test,1,,,,,,,,,3328.1534062698483,3328.6665273681283,3328.649898648262,3328.649898648262,3328.950164601207,3329.4508527591825,3329.651085678488,3330.655404549092,right,1,0.3,0.3955291733145714,,,,,,,,,,,s009,001,2024-07-12_15h45.17.522,simplestop_skeleton,2022.2.2,59.793689124131475,
None,None,,,,,,,,,0,0,0,0,0,2,2,3,,,,,,,,,3330.636980883777,stop,squareblack.png,right,0.3,,,,,,,,,,,,,,,,0.0012781769037246704,0.4898433983325958,0.7901159562170506,3333.1395404934883,test,1,,,,,,,,,3330.655404549092,3331.1695345267653,3331.1526906751096,3331.1526906751096,3331.4531018808484,3331.9535615593195,3332.1537730284035,3333.1588602140546,right,1,0.25,0.44309886172413826,,,,,,,,,,,s009,001,2024-07-12_15h45.17.522,simplestop_skeleton,2022.2.2,59.793689124131475,
$currentCorrectResponse,$currentGoStim,,,,,,,,,0,0,0,0,0,3,3,0,,,,,,,,,3333.1399880051613,go,circleblack.png,left,0.25,,,,,,,,,,,,,,,,0.002055663615465164,0.4895304776728153,,3335.6419476270676,test,1,,,,,,,,,3333.1588602140546,3333.6722283624113,3333.655331529677,3333.655331529677,3333.9056349135935,3334.4062103256583,3334.6565047465265,3335.661405749619,left,1,0.25,0.3097054064273834,,,,,,,,,,,s009,001,2024-07-12_15h45.17.522,simplestop_skeleton,2022.2.2,59.793689124131475,
$currentCorrectResponse,$currentGoStim,,,,,,,,,0,0,0,0,1,0,4,0,,,,,,,,,3335.642380859703,go,squareblack.png,right,0.25,,,,,,,,,,,,,,,,0.001692548394203186,0.4896686151623726,,3338.144627083093,test,1,,,,,,,,,3335.661405749619,3336.174789264798,3336.1582882627845,3336.1582882627845,3336.4083818905056,3336.90876699239,3337.159102909267,3338.1632193624973,right,1,0.25,0.6763629429042339,,,,,,,,,,,s009,001,2024-07-12_15h45.17.522,simplestop_skeleton,2022.2.2,59.793689124131475,
None,None,,,,,,,,,0,0,0,0,1,1,5,1,,,,,,,,,3338.1450561471283,stop,squareblack.png,right,0.25,,,,,,,,,,,,,,,,0.0012099258601665497,0.48976394906640053,0.7400430478155613,3340.647702641785,test,1,,,,,,,,,3338.1632193624973,3338.6773290224373,3338.6609171144664,3338.6609171144664,3338.9111091420054,3339.4114957861602,3339.6617093347013,3340.6662277802825,None,0,0.3,,,,,,,,,,,,s009,001,2024-07-12_15h45.17.522,simplestop_skeleton,2022.2.2,59.793689124131475,
None,None,,,,,,,,,0,0,0,0,1,2,6,3,,,,,,,,,3340.648150715977,go,squareblack.png,right,0.3,,,,,,,,,,,,,,,,0.00131988525390625,0.48938192427158356,,3343.1501449644566,test,1,,,,,,,,,3340.6662277802825,3341.1802902184427,3341.1635967232287,3341.1635967232287,3341.4638580419123,3341.964193124324,3342.16464356333,3343.169010281563,right,1,0.3,0.47627292945981026,,,,,,,,,,,s009,001,2024-07-12_15h45.17.522,simplestop_skeleton,2022.2.2,59.793689124131475,
None,None,,,,,,,,,0,0,0,0,1,3,7,2,,,,,,,,,3343.1505935266614,go,squareblack.png,right,0.3,,,,,,,,,,,,,,,,0.0012586116790771484,0.48983365297317505,,3345.6529619023204,test,1,,,,,,,,,3343.169010281563,3343.683249618858,3343.6662421897054,3343.6662421897054,3343.9665439613163,3344.4670860245824,3344.6675953306258,3345.672167055309,right,1,0.3,0.5932592712342739,,,,,,,,,,,s009,001,2024-07-12_15h45.17.522,simplestop_skeleton,2022.2.2,59.793689124131475,
None,None,,,,,,,,,0,0,0,0,2,0,8,1,,,,,,,,,3345.6533932983875,go,circleblack.png,left,0.3,,,,,,,,,,,,,,,,0.0016949400305747986,0.48975320905447006,,3348.155882835388,test,1,,,,,,,,,3345.672167055309,3346.18581841141,3346.168977789581,3346.168977789581,3346.469668004662,3346.9702469557524,3347.1703610233963,3348.174716718495,left,1,0.3,0.7018550150096416,,,,,,,,,,,s009,001,2024-07-12_15h45.17.522,simplestop_skeleton,2022.2.2,59.793689124131475,
None,None,,,,,,,,,0,0,0,0,2,1,9,1,,,,,,,,,3348.1563456989825,go,circleblack.png,left,0.3,,,,,,,,,,,,,,,,0.0014026351273059845,0.48960715904831886,,3350.658625751734,test,1,,,,,,,,,3348.174716718495,3348.6887997575104,3348.671983677894,3348.671983677894,3348.972314979881,3349.4729137271643,3349.6731195263565,3350.6776547692716,left,1,0.3,0.6108080558478832,,,,,,,,,,,s009,001,2024-07-12_15h45.17.522,simplestop_skeleton,2022.2.2,59.793689124131475,
None,None,,,,,,,,,0,0,0,0,2,2,10,1,,,,,,,,,3350.65906259045,stop,circleblack.png,left,0.3,,,,,,,,,,,,,,,,0.0014019906520843506,0.48958398774266243,0.7898902297019958,3353.1614443585277,test,1,,,,,,,,,3350.6776547692716,3351.191411945969,3351.174680236727,3351.174680236727,3351.4749149009585,3351.975581124425,3352.1756769269705,3353.1801620200276,left,1,0.25,0.4251406379044056,,,,,,,,,,,s009,001,2024-07-12_15h45.17.522,simplestop_skeleton,2022.2.2,59.793689124131475,
None,None,,,,,,,,,0,0,0,0,2,3,11,3,,,,,,,,,3353.1618783660233,go,circleblack.png,left,0.25,,,,,,,,,,,,,,,,0.0013810396194458008,0.4895499348640442,,3355.664236046374,test,1,,,,,,,,,3353.1801620200276,3353.6940533183515,3353.6774126812816,3353.6774126812816,3353.9279425852,3354.4281168952584,3354.678495425731,3355.6834688074887,left,1,0.25,0.5513052456080914,,,,,,,,,,,s009,001,2024-07-12_15h45.17.522,simplestop_skeleton,2022.2.2,59.793689124131475,
$currentCorrectResponse,$currentGoStim,,,,,,,,,0,0,0,0,3,0,12,0,,,,,,,,,3355.6646815538406,stop,circleblack.png,left,0.25,,,,,,,,,,,,,,,,0.0013976208865642548,0.4892737455666065,0.7399301193654537,3358.1669641546905,test,1,,,,,,,,,3355.6834688074887,3356.196804575622,3356.1802112087607,3356.1802112087607,3356.4305241815746,3356.931036796421,3357.1814585477114,3358.185936179012,None,0,0.3,,,,,,,,,,,,s009,001,2024-07-12_15h45.17.522,simplestop_skeleton,2022.2.2,59.793689124131475,
$currentCorrectResponse,$currentGoStim,,,,,,,,,0,0,0,0,3,1,13,0,,,,,,,,,3358.167401574552,go,squareblack.png,right,0.3,,,,,,,,,,,,,,,,0.0016393251717090607,0.48960185423493385,,3360.6697170995176,test,1,,,,,,,,,3358.185936179012,3358.6995131745934,3358.682851754129,3358.682851754129,3358.98344553262,3359.483749229461,3359.6840758249164,3360.6890194416046,right,1,0.3,0.4629489295184612,,,,,,,,,,,s009,001,2024-07-12_15h45.17.522,simplestop_skeleton,2022.2.2,59.793689124131475,
None,None,,,,,,,,,0,0,0,0,3,2,14,2,,,,,,,,,3360.6701484806836,go,circleblack.png,left,0.3,,,,,,,,,,,,,,,,0.0018372759222984314,0.48958851769566536,,3363.172421708703,test,1,,,,,,,,,3360.6890194416046,3361.2022216282785,3361.185846235603,3361.185846235603,3361.485819287598,3361.9864755906165,3362.186643257737,3363.1913829371333,left,1,0.3,0.5930331647396088,,,,,,,,,,,s009,001,2024-07-12_15h45.17.522,simplestop_skeleton,2022.2.2,59.793689124131475,
None,None,,,,,,,,,0,0,0,0,3,3,15,1,,,,,,,,,3363.172869388014,stop,squareblack.png,right,0.3,,,,,,,,,,,,,,,,0.0014756955206394196,0.4895397759974003,0.7898138798773289,3365.675052717328,test,1,,,,,,,,,3363.1913829371333,3363.7049905620515,3363.6884831786156,3363.6884831786156,3363.98849529773,3364.4893247410655,3364.689432017505,3365.6942507885396,None,0,0.35,,,,,,,,,,,,s009,001,2024-07-12_15h45.17.522,simplestop_skeleton,2022.2.2,59.793689124131475,
None,None,,,,,,,,,0,0,0,0,4,0,16,1,,,,,,,,,3365.6754951886833,stop,circleblack.png,left,0.35,,,,,,,,,,,,,,,,0.0017040073871612549,0.489757239818573,0.8403271362185478,3368.1779470145702,test,1,,,,,,,,,3365.6942507885396,3366.207829091698,3366.1911401301622,3366.1911401301622,3366.541434854269,3367.042008627206,3367.1920705251396,3368.1973965652287,left,1,0.3,0.47236576303839684,,,,,,,,,,,s009,001,2024-07-12_15h45.17.522,simplestop_skeleton,2022.2.2,59.793689124131475,
None,None,,,,,,,,,0,0,0,0,4,1,17,2,,,,,,,,,3368.1783949136734,go,squareblack.png,right,0.3,,,,,,,,,,,,,,,,0.0017327070236206055,0.4893859811127186,,3370.680468533188,test,1,,,,,,,,,3368.1973965652287,3368.7104532308877,3368.6938864029944,3368.6938864029944,3368.99412150681,3369.4947712160647,3369.6949395537376,3370.6997364908457,right,1,0.3,0.5935639515519142,,,,,,,,,,,s009,001,2024-07-12_15h45.17.522,simplestop_skeleton,2022.2.2,59.793689124131475,
$currentCorrectResponse,$currentGoStim,,,,,,,,,0,0,0,0,4,2,18,0,,,,,,,,,3370.680919546634,go,circleblack.png,left,0.3,,,,,,,,,,,,,,,,0.0017785541713237762,0.4900016598403454,,3373.183431312442,test,1,,,,,,,,,3370.6997364908457,3371.213301613927,3371.1966481767595,3371.1966481767595,3371.4970192834735,3371.997700173408,3372.1976363770664,3373.202636640519,left,1,0.3,0.43845148384571075,,,,,,,,,,,s009,001,2024-07-12_15h45.17.522,simplestop_skeleton,2022.2.2,59.793689124131475,
$currentCorrectResponse,$currentGoStim,,,,,,,,,0,0,0,0,4,3,19,0,,,,,,,,,3373.1838746145368,go,squareblack.png,right,0.3,,,,,,,,,,,,,,,,0.0016601085662841797,0.4896794743835926,,3375.686255786568,test,1,,,,,,,,,3373.202636640519,3373.716181833297,3373.6995788775384,3373.6995788775384,3373.9997368976474,3374.500557027757,3374.700669746846,3375.7061178050935,right,1,0.3,0.5602336265146732,,,,,,,,,,,s009,001,2024-07-12_15h45.17.522,simplestop_skeleton,2022.2.2,59.793689124131475,
None,None,,,,,,,,,0,0,0,0,5,0,20,1,,,,,,,,,3375.6866932548583,go,circleblack.png,left,0.3,,,,,,,,,,,,,,,,0.0019703395664691925,0.48940814286470413,,3378.189037978649,test,1,,,,,,,,,3375.7061178050935,3376.218950897455,3376.202376142144,3376.202376142144,3376.5026082247496,3377.0029519870877,3377.203220948577,3378.2077071107924,left,1,0.3,0.7001502588391304,,,,,,,,,,,s009,001,2024-07-12_15h45.17.522,simplestop_skeleton,2022.2.2,59.793689124131475,
None,None,,,,,,,,,0,0,0,0,5,1,21,3,,,,,,,,,3378.1894834004343,go,circleblack.png,left,0.3,,,,,,,,,,,,,,,,0.0013195537030696869,0.4898049384355545,,3380.691652365029,test,1,,,,,,,,,3378.2077071107924,3378.7218864373863,3378.7050439827144,3378.7050439827144,3379.0054730549455,3379.505906790495,3379.7061932608485,3380.710548490286,left,1,0.3,0.6343937143683434,,,,,,,,,,,s009,001,2024-07-12_15h45.17.522,simplestop_skeleton,2022.2.2,59.793689124131475,
None,None,,,,,,,,,0,0,0,0,5,2,22,2,,,,,,,,,3380.6921746097505,stop,squareblack.png,right,0.3,,,,,,,,,,,,,,,,0.0016482733190059662,0.48975811526179314,0.7901894897222519,3383.194453816861,test,1,,,,,,,,,3380.710548490286,3381.2244013920426,3381.2078367881477,3381.2078367881477,3381.5080290809274,3382.00902075693,3382.208828173578,3383.2133570984006,None,0,0.35,,,,,,,,,,,,s009,001,2024-07-12_15h45.17.522,simplestop_skeleton,2022.2.2,59.793689124131475,
$currentCorrectResponse,$currentGoStim,,,,,,,,,0,0,0,0,5,3,23,0,,,,,,,,,3383.19494908303,go,squareblack.png,right,0.35,,,,,,,,,,,,,,,,0.0012740828096866608,0.48979269713163376,,3385.697332493961,test,1,,,,,,,,,3383.2133570984006,3383.727363411337,3383.7104151025414,3383.7104151025414,3384.0610175803304,3384.5618366263807,3384.711816765368,3385.716689001769,right,1,0.35,0.5999253951013088,,,,,,,,,,,s009,001,2024-07-12_15h45.17.522,simplestop_skeleton,2022.2.2,59.793689124131475,
$currentCorrectResponse,$currentGoStim,,,,,,,,,0,0,0,0,6,0,24,0,,,,,,,,,3385.6977635249496,go,circleblack.png,left,0.35,,,,,,,,,,,,,,,,0.001933027058839798,0.48962752893567085,,3388.2001376226544,test,1,,,,,,,,,3385.716689001769,3386.2302960902452,3386.2133644409478,3386.2133644409478,3386.5637203007936,3387.0642764903605,3387.214309863746,3388.2190827317536,left,1,0.35,0.41438260301947594,,,,,,,,,,,s009,001,2024-07-12_15h45.17.522,simplestop_skeleton,2022.2.2,59.793689124131475,
None,None,,,,,,,,,0,0,0,0,6,1,25,2,,,,,,,,,3388.2005778588355,go,circleblack.png,left,0.35,,,,,,,,,,,,,,,,0.001356959342956543,0.4895850047469139,,3390.7028293423355,test,1,,,,,,,,,3388.2190827317536,3388.7327287830412,3388.7162183746696,3388.7162183746696,3389.066431250423,3389.5669116154313,3389.717243190855,3390.7217909246683,left,1,0.35,0.6724827699363232,,,,,,,,,,,s009,001,2024-07-12_15h45.17.522,simplestop_skeleton,2022.2.2,59.793689124131475,
None,None,,,,,,,,,0,0,0,0,6,2,26,3,,,,,,,,,3390.703274026513,stop,circleblack.png,left,0.35,,,,,,,,,,,,,,,,0.0014340318739414215,0.48962803557515144,0.8400180004537106,3393.205576557666,test,1,,,,,,,,,3390.7217909246683,3391.2357761003077,3391.2186674550176,3391.2186674550176,3391.569231968373,3392.0697878077626,3392.219870992005,3393.2246782407165,None,0,0.4,,,,,,,,,,,,s009,001,2024-07-12_15h45.17.522,simplestop_skeleton,2022.2.2,59.793689124131475,
None,None,,,,,,,,,0,0,0,0,6,3,27,2,,,,,,,,,3393.206022005528,go,circleblack.png,left,0.4,,,,,,,,,,,,,,,,0.00147145614027977,0.4897351786494255,,3395.7083901278675,test,1,,,,,,,,,3393.2246782407165,3393.7381717972457,3393.7216524481773,3393.7216524481773,3394.122067704797,3394.6224815249443,3394.7228089384735,3395.7276427708566,left,1,0.4,0.46686550974845886,,,,,,,,,,,s009,001,2024-07-12_15h45.17.522,simplestop_skeleton,2022.2.2,59.793689124131475,
None,None,,,,,,,,,0,0,0,0,7,0,28,1,,,,,,,,,3395.7088379599154,go,squareblack.png,right,0.4,,,,,,,,,,,,,,,,0.0016054771840572357,0.4898076206445694,,3398.211272690445,test,1,,,,,,,,,3395.7276427708566,3396.2409563325346,3396.224690556526,3396.224690556526,3396.6250613071024,3397.125498857349,3397.2254601344466,3398.2299209088087,right,1,0.4,0.39185483008623123,,,,,,,,,,,s009,001,2024-07-12_15h45.17.522,simplestop_skeleton,2022.2.2,59.793689124131475,
None,None,,,,,,,,,0,0,0,0,7,1,29,1,,,,,,,,,3398.211707677692,stop,squareblack.png,right,0.4,,,,,,,,,,,,,,,,0.0012996383011341095,0.4897184334695339,0.8899858444929123,3400.7144841626287,test,1,,,,,,,,,3398.2299209088087,3398.743933852762,3398.7271111942828,3398.7271111942828,3399.127668019384,3399.628231957555,3399.728541776538,3400.735067319125,right,1,0.35,0.4646320976316929,,,,,,,,,,,s009,001,2024-07-12_15h45.17.522,simplestop_skeleton,2022.2.2,59.793689124131475,
$currentCorrectResponse,$currentGoStim,,,,,,,,,0,0,0,0,7,2,30,0,,,,,,,,,3400.715103060007,go,squareblack.png,right,0.35,,,,,,,,,,,,,,,,0.0019418075680732727,0.48814111575484276,,3403.216901578009,test,1,,,,,,,,,3400.735067319125,3401.2464977651834,3401.2298885174096,3401.2298885174096,3401.5803851671517,3402.079452738166,3402.2302560321987,3403.2361445575953,right,1,0.35,0.5346816927194595,,,,,,,,,,,s009,001,2024-07-12_15h45.17.522,simplestop_skeleton,2022.2.2,59.793689124131475,
$currentCorrectResponse,$currentGoStim,,,,,,,,,0,0,0,0,7,3,31,0,,,,,,,,,3403.2173517271876,stop,circleblack.png,left,0.35,,,,,,,,,,,,,,,,0.002466101199388504,0.48681436106562614,0.837249968200922,3405.7193750478327,test,1,,,,,,,,,3403.2361445575953,3403.7483373507857,3403.73158692196,3403.73158692196,3404.0819888710976,3404.582692295313,3404.732779521495,3405.738222554326,None,0,0.4,,,,,,,,,,,,s009,001,2024-07-12_15h45.17.522,simplestop_skeleton,2022.2.2,59.793689124131475,
None,None,,,,,,,,,0,0,0,0,8,0,32,1,,,,,,,,,3405.7198049351573,go,squareblack.png,right,0.4,,,,,,,,,,,,,,,,0.0016086362302303314,0.4900449998676777,,3408.221961695701,test,1,,,,,,,,,3405.738222554326,3406.2523352839053,3406.2353233620524,3406.2353233620524,3406.635758448392,3407.1362738460302,3407.236320436001,3408.241058077663,right,1,0.4,0.38818956539034843,,,,,,,,,,,s009,001,2024-07-12_15h45.17.522,simplestop_skeleton,2022.2.2,59.793689124131475,
None,None,,,,,,,,,0,0,0,0,8,1,33,3,,,,,,,,,3408.2224097065628,go,circleblack.png,left,0.4,,,,,,,,,,,,,,,,0.0017242170870304108,0.48983295261859894,,3410.7247130163014,test,1,,,,,,,,,3408.241058077663,3408.754604358226,3408.738145850599,3408.738145850599,3409.1384193859994,3409.6390323229134,3409.739160772413,3410.7437191195786,left,1,0.4,0.48116910085082054,,,,,,,,,,,s009,001,2024-07-12_15h45.17.522,simplestop_skeleton,2022.2.2,59.793689124131475,
None,None,,,,,,,,,0,0,0,0,8,2,34,3,,,,,,,,,3410.7251508682966,go,squareblack.png,right,0.4,,,,,,,,,,,,,,,,0.00174051895737648,0.4898330830037594,,3413.227476492524,test,1,,,,,,,,,3410.7437191195786,3411.257386866957,3411.24087748304,3411.24087748304,3411.6415055319667,3412.141910959035,3412.24213867262,3413.2463229969144,right,1,0.4,0.3619917966425419,,,,,,,,,,,s009,001,2024-07-12_15h45.17.522,simplestop_skeleton,2022.2.2,59.793689124131475,
None,None,,,,,,,,,0,0,0,0,8,3,35,2,,,,,,,,,3413.227917045355,stop,squareblack.png,right,0.4,,,,,,,,,,,,,,,,0.001193176954984665,0.4896448701620102,0.8902819901704788,3415.7301405854523,test,1,,,,,,,,,3413.2463229969144,3413.7602904997766,3413.7438147105277,3413.7438147105277,3414.1440006680787,3414.6445752978325,3414.7447675429285,3415.7481098361313,right,1,0.35,0.40456636995077133,,,,,,,,,,,s009,001,2024-07-12_15h45.17.522,simplestop_skeleton,2022.2.2,59.793689124131475,
None,None,,,,,,,,,0,0,0,0,9,0,36,2,,,,,,,,,3415.7305739037693,go,circleblack.png,left,0.35,,,,,,,,,,,,,,,,0.0019169747829437256,0.48987290263175964,,3418.233302306384,test,1,,,,,,,,,3415.7481098361313,3416.2630481794477,3416.2464390434325,3416.2464390434325,3416.5968615338206,3417.097297322005,3417.2477199211717,3418.2526307962835,left,1,0.35,0.904509786516428,,,,,,,,,,,s009,001,2024-07-12_15h45.17.522,simplestop_skeleton,2022.2.2,59.793689124131475,
None,None,,,,,,,,,0,0,0,0,9,1,37,2,,,,,,,,,3418.2337510176003,stop,squareblack.png,right,0.35,,,,,,,,,,,,,,,,0.0016613714396953583,0.4897555932402611,0.8400468863546848,3420.736046690494,test,1,,,,,,,,,3418.2526307962835,3418.7660191096365,3418.749102294445,3418.749102294445,3419.099873613566,3419.6003894656897,3419.748946994543,3420.7549573741853,right,1,0.3,0.5284729115664959,,,,,,,,,,,s009,001,2024-07-12_15h45.17.522,simplestop_skeleton,2022.2.2,59.793689124131475,
$currentCorrectResponse,$currentGoStim,,,,,,,,,0,0,0,0,9,2,38,0,,,,,,,,,3420.736480422318,go,squareblack.png,right,0.3,,,,,,,,,,,,,,,,0.001331433653831482,0.48985814303159714,,3423.238568853587,test,1,,,,,,,,,3420.7549573741853,3421.2686256617308,3421.2518876306713,3421.2518876306713,3421.5522767566144,3422.052434913814,3422.2534728199244,3423.257891919464,right,1,0.3,0.3426583372056484,,,,,,,,,,,s009,001,2024-07-12_15h45.17.522,simplestop_skeleton,2022.2.2,59.793689124131475,
None,None,,,,,,,,,0,0,0,0,9,3,39,3,,,,,,,,,3423.2389977239072,stop,circleblack.png,left,0.3,,,,,,,,,,,,,,,,0.0019869469106197357,0.489743459969759,0.7904835939407349,3425.741887692362,test,1,,,,,,,,,3423.257891919464,3423.7713525779545,3423.754878964275,3423.754878964275,3424.0550560839474,3424.5559523142874,3424.755961868912,3425.7608411610126,left,1,0.25,0.44174614176154137,,,,,,,,,,,s009,001,2024-07-12_15h45.17.522,simplestop_skeleton,2022.2.2,59.793689124131475,
None,None,,,,,,,,,0,0,0,0,10,0,40,1,,,,,,,,,3425.742325719446,go,squareblack.png,right,0.25,,,,,,,,,,,,,,,,0.0016867630183696747,0.4895724505186081,,3428.2441069073975,test,1,,,,,,,,,3425.7608411610126,3426.2740784287453,3426.2577419169247,3426.2577419169247,3426.507819123566,3427.008180193603,3427.258646890521,3428.2633849196136,right,1,0.25,0.5359139442443848,,,,,,,,,,,s009,001,2024-07-12_15h45.17.522,simplestop_skeleton,2022.2.2,59.793689124131475,
None,None,,,,,,,,,0,0,0,0,10,1,41,2,,,,,,,,,3428.2445432543755,go,circleblack.png,left,0.25,,,,,,,,,,,,,,,,0.0017841607332229614,0.4898492358624935,,3430.7477122582495,test,1,,,,,,,,,3428.2633849196136,3428.776976298541,3428.7602804750204,3428.7602804750204,3429.010503489524,3429.5111052654684,3429.7612555734813,3430.768211942166,left,1,0.25,0.5971159152686596,,,,,,,,,,,s009,001,2024-07-12_15h45.17.522,simplestop_skeleton,2022.2.2,59.793689124131475,
None,None,,,,,,,,,0,0,0,0,10,2,42,3,,,,,,,,,3430.748328808695,go,squareblack.png,right,0.25,,,,,,,,,,,,,,,,0.002293083816766739,0.4880627654492855,,3433.249712690711,test,1,,,,,,,,,3430.768211942166,3431.2796044312418,3431.2627997398376,3431.2627997398376,3431.513195041567,3432.013791382313,3432.264021258801,3433.2692476920784,right,1,0.25,0.6540879346430302,,,,,,,,,,,s009,001,2024-07-12_15h45.17.522,simplestop_skeleton,2022.2.2,59.793689124131475,
None,None,,,,,,,,,0,0,0,0,10,3,43,2,,,,,,,,,3433.2501446790993,go,circleblack.png,left,0.25,,,,,,,,,,,,,,,,0.0018202997744083405,0.4896474666893482,,3435.752367351204,test,1,,,,,,,,,3433.2692476920784,3433.782542768866,3433.765659760684,3433.765659760684,3434.0161381848156,3434.5169693008065,3434.766886420548,3435.7712923139334,left,1,0.25,0.6097983382642269,,,,,,,,,,,s009,001,2024-07-12_15h45.17.522,simplestop_skeleton,2022.2.2,59.793689124131475,
$currentCorrectResponse,$currentGoStim,,,,,,,,,0,0,0,0,11,0,44,0,,,,,,,,,3435.752797458321,stop,circleblack.png,left,0.25,,,,,,,,,,,,,,,,0.0012523531913757324,0.4900796413421631,0.7403738610446453,3438.2557536549866,test,1,,,,,,,,,3435.7712923139334,3436.285248901695,3436.2689792588353,3436.2689792588353,3436.518831614405,3437.0192995779216,3437.2696679979563,3438.2750619985163,None,0,0.3,,,,,,,,,,,,s009,001,2024-07-12_15h45.17.522,simplestop_skeleton,2022.2.2,59.793689124131475,
None,None,,,,,,,,,0,0,0,0,11,1,45,2,,,,,,,,,3438.256200838834,go,squareblack.png,right,0.3,,,,,,,,,,,,,,,,0.00204307958483696,0.4892018549144268,,3440.758169285953,test,1,,,,,,,,,3438.2750619985163,3438.7880288921297,3438.7713252194226,3438.7713252194226,3439.0716690309346,3439.57236507535,3439.772616598755,3440.7773112654686,right,1,0.3,0.6312465183436871,,,,,,,,,,,s009,001,2024-07-12_15h45.17.522,simplestop_skeleton,2022.2.2,59.793689124131475,
None,None,,,,,,,,,0,0,0,0,11,2,46,3,,,,,,,,,3440.758607380092,go,circleblack.png,left,0.3,,,,,,,,,,,,,,,,0.0018514245748519897,0.48978275060653687,,3443.260611027479,test,1,,,,,,,,,3440.7773112654686,3441.2906687930226,3441.2740087881684,3441.2740087881684,3441.5744218565524,3442.074913389981,3442.2750234231353,3443.2797757200897,left,1,0.3,0.5804933458566666,,,,,,,,,,,s009,001,2024-07-12_15h45.17.522,simplestop_skeleton,2022.2.2,59.793689124131475,
None,None,,,,,,,,,0,0,0,0,11,3,47,1,,,,,,,,,3443.261038273573,stop,squareblack.png,right,0.3,,,,,,,,,,,,,,,,0.0016705170273780823,0.49000275135040283,0.7902895919978619,3445.7636309936643,test,1,,,,,,,,,3443.2797757200897,3443.7933850847185,3443.7771274223924,3443.7771274223924,3444.077260684222,3444.5776452980936,3444.7778800465167,3445.7843808308244,None,0,0.35,,,,,,,,,,,,s009,001,2024-07-12_15h45.17.522,simplestop_skeleton,2022.2.2,59.793689124131475,
,,,,,,,,,,0,0,0,0,,,,,,"[{'fileName': 'squareblack.png', 'correct_response': 'right', 'condition': 'go'}, {'fileName': 'circleblack.png', 'correct_response': 'left', 'condition': 'go'}, {'fileName': 'circleblack.png', 'correct_response': 'left', 'condition': 'go'}, {'fileName': 'circleblack.png', 'correct_response': 'left', 'condition': 'go'}, {'fileName': 'squareblack.png', 'correct_response': 'right', 'condition': 'go'}, {'fileName': 'squareblack.png', 'correct_response': 'right', 'condition': 'go'}, {'fileName': 'circleblack.png', 'correct_response': 'left', 'condition': 'stop'}, {'fileName': 'squareblack.png', 'correct_response': 'right', 'condition': 'go'}, {'fileName': 'circleblack.png', 'correct_response': 'left', 'condition': 'go'}, {'fileName': 'circleblack.png', 'correct_response': 'left', 'condition': 'stop'}, {'fileName': 'squareblack.png', 'correct_response': 'right', 'condition': 'stop'}, {'fileName': 'squareblack.png', 'correct_response': 'right', 'condition': 'stop'}, {'fileName': 'circleblack.png', 'correct_response': 'left', 'condition': 'go'}, {'fileName': 'circleblack.png', 'correct_response': 'left', 'condition': 'go'}, {'fileName': 'squareblack.png', 'correct_response': 'right', 'condition': 'go'}, {'fileName': 'squareblack.png', 'correct_response': 'right', 'condition': 'go'}, {'fileName': 'circleblack.png', 'correct_response': 'left', 'condition': 'stop'}, {'fileName': 'circleblack.png', 'correct_response': 'left', 'condition': 'stop'}, {'fileName': 'circleblack.png', 'correct_response': 'left', 'condition': 'go'}, {'fileName': 'squareblack.png', 'correct_response': 'right', 'condition': 'go'}, {'fileName': 'squareblack.png', 'correct_response': 'right', 'condition': 'stop'}, {'fileName': 'squareblack.png', 'correct_response': 'right', 'condition': 'go'}, {'fileName': 'circleblack.png', 'correct_response': 'left', 'condition': 'go'}, {'fileName': 'squareblack.png', 'correct_response': 'right', 'condition': 'stop'}, {'fileName': 'circleblack.png', 'correct_response': 'left', 'condition': 'go'}, {'fileName': 'squareblack.png', 'correct_response': 'right', 'condition': 'go'}, {'fileName': 'circleblack.png', 'correct_response': 'left', 'condition': 'go'}, {'fileName': 'squareblack.png', 'correct_response': 'right', 'condition': 'go'}, {'fileName': 'circleblack.png', 'correct_response': 'left', 'condition': 'go'}, {'fileName': 'circleblack.png', 'correct_response': 'left', 'condition': 'stop'}, {'fileName': 'squareblack.png', 'correct_response': 'right', 'condition': 'stop'}, {'fileName': 'circleblack.png', 'correct_response': 'left', 'condition': 'go'}, {'fileName': 'squareblack.png', 'correct_response': 'right', 'condition': 'go'}, {'fileName': 'circleblack.png', 'correct_response': 'left', 'condition': 'stop'}, {'fileName': 'squareblack.png', 'correct_response': 'right', 'condition': 'go'}, {'fileName': 'squareblack.png', 'correct_response': 'right', 'condition': 'stop'}, {'fileName': 'circleblack.png', 'correct_response': 'left', 'condition': 'stop'}, {'fileName': 'squareblack.png', 'correct_response': 'right', 'condition': 'stop'}, {'fileName': 'squareblack.png', 'correct_response': 'right', 'condition': 'stop'}, {'fileName': 'circleblack.png', 'correct_response': 'left', 'condition': 'go'}, {'fileName': 'circleblack.png', 'correct_response': 'left', 'condition': 'go'}, {'fileName': 'circleblack.png', 'correct_response': 'left', 'condition': 'stop'}, {'fileName': 'circleblack.png', 'correct_response': 'left', 'condition': 'go'}, {'fileName': 'squareblack.png', 'correct_response': 'right', 'condition': 'go'}, {'fileName': 'squareblack.png', 'correct_response': 'right', 'condition': 'go'}, {'fileName': 'squareblack.png', 'correct_response': 'right', 'condition': 'go'}, {'fileName': 'squareblack.png', 'correct_response': 'right', 'condition': 'go'}, {'fileName': 'circleblack.png', 'correct_response': 'left', 'condition': 'go'}]",,,,,,,,,,,,,,,,,,,,,,,,,,,,,,,,,,,,,,,,,,,,,,,,,,,,,3445.7843808308244,3445.7843808308244,return,1.6702724136412144,,,,,,,s009,001,2024-07-12_15h45.17.522,simplestop_skeleton,2022.2.2,59.793689124131475,
None,None,,,,,,,,,1,0,1,0,0,0,0,3,,,,,,,,,3447.472969226539,go,squareblack.png,right,0.35,,,,,,,,,,,,,,,,0.0012702196836471558,0.4982816018164158,,3449.9850814305246,test,2,,,,,,,,,3447.4923007525504,3447.9980668723583,3447.9980668723583,3447.9980668723583,3448.3483942188323,3448.8493249341846,3448.9997044950724,3450.004991043359,right,1,0.35,1.0012636706233025,,,,,,,,,,,s009,001,2024-07-12_15h45.17.522,simplestop_skeleton,2022.2.2,59.793689124131475,
None,None,,,,,,,,,1,0,1,0,0,1,1,3,,,,,,,,,3449.985604289919,go,circleblack.png,left,0.35,,,,,,,,,,,,,,,,0.002032000571489334,0.4892651364207268,,3452.487411659211,test,2,,,,,,,,,3450.004991043359,3450.517615366727,3450.5007079727948,3450.5007079727948,3450.851340584457,3451.3518837615848,3451.501731544733,3452.5063642151654,left,1,0.35,0.3679767847061157,,,,,,,,,,,s009,001,2024-07-12_15h45.17.522,simplestop_skeleton,2022.2.2,59.793689124131475,
None,None,,,,,,,,,1,0,1,0,0,2,2,1,,,,,,,,,3452.487839989364,go,circleblack.png,left,0.35,,,,,,,,,,,,,,,,0.0012376569211483002,0.48992789164185524,,3454.9902421943843,test,2,,,,,,,,,3452.5063642151654,3453.0201213397086,3453.0037840381265,3453.0037840381265,3453.353823438287,3453.854751981795,3454.0048092603683,3455.0091947056353,left,1,0.35,0.544092945754528,,,,,,,,,,,s009,001,2024-07-12_15h45.17.522,simplestop_skeleton,2022.2.2,59.793689124131475,
$currentCorrectResponse,$currentGoStim,,,,,,,,,1,0,1,0,0,3,3,0,,,,,,,,,3454.990681178868,go,circleblack.png,left,0.35,,,,,,,,,,,,,,,,0.0013261772692203522,0.4896371252834797,,3457.49313634634,test,2,,,,,,,,,3455.0091947056353,3455.5231735110283,3455.506489928812,3455.506489928812,3455.8567998297513,3456.3572525531054,3456.507734749466,3457.512209415436,left,1,0.35,0.5008669532835484,,,,,,,,,,,s009,001,2024-07-12_15h45.17.522,simplestop_skeleton,2022.2.2,59.793689124131475,
None,None,,,,,,,,,1,0,1,0,1,0,4,3,,,,,,,,,3457.4935749024153,go,squareblack.png,right,0.35,,,,,,,,,,,,,,,,0.0017147883772850037,0.48977139219641685,,3459.9961769878864,test,2,,,,,,,,,3457.512209415436,3458.025878742337,3458.0091052129865,3458.0091052129865,3458.3594782464206,3458.8604055270553,3459.0102956332266,3460.0152273736894,right,1,0.35,0.5486574769020081,,,,,,,,,,,s009,001,2024-07-12_15h45.17.522,simplestop_skeleton,2022.2.2,59.793689124131475,
None,None,,,,,,,,,1,0,1,0,1,1,5,1,,,,,,,,,3459.9966140538454,go,squareblack.png,right,0.35,,,,,,,,,,,,,,,,0.0014838501811027527,0.4894436150789261,,3462.49852200225,test,2,,,,,,,,,3460.0152273736894,3460.5285963974893,3460.5120336674154,3460.5120336674154,3460.862482648343,3461.362467035651,3461.513013832271,3462.518016025424,right,1,0.35,0.3917243890464306,,,,,,,,,,,s009,001,2024-07-12_15h45.17.522,simplestop_skeleton,2022.2.2,59.793689124131475,
$currentCorrectResponse,$currentGoStim,,,,,,,,,1,0,1,0,1,2,6,0,,,,,,,,,3462.4990080967546,stop,circleblack.png,left,0.35,,,,,,,,,,,,,,,,0.0018455460667610168,0.48973795771598816,0.8401266969740391,3465.00134896487,test,2,,,,,,,,,3462.518016025424,3463.0313307382166,3463.014780163765,3463.014780163765,3463.3649875298142,3463.865721680224,3464.0158116929233,3465.0205760635436,left,1,0.3,0.310646690428257,,,,,,,,,,,s009,001,2024-07-12_15h45.17.522,simplestop_skeleton,2022.2.2,59.793689124131475,
None,None,,,,,,,,,1,0,1,0,1,3,7,2,,,,,,,,,3465.0017736516893,go,squareblack.png,right,0.3,,,,,,,,,,,,,,,,0.0016201473772525787,0.4896240830421448,,3467.504135221243,test,2,,,,,,,,,3465.0205760635436,3465.5340824350715,3465.51730325073,3465.51730325073,3465.8178018070757,3466.3181864134967,3466.5185761004686,3467.523222990334,right,1,0.3,0.3584561124444008,,,,,,,,,,,s009,001,2024-07-12_15h45.17.522,simplestop_skeleton,2022.2.2,59.793689124131475,
None,None,,,,,,,,,1,0,1,0,2,0,8,3,,,,,,,,,3467.5045731514692,go,circleblack.png,left,0.3,,,,,,,,,,,,,,,,0.0016886666417121887,0.4901845008134842,,3470.0069327764213,test,2,,,,,,,,,3467.523222990334,3468.037106011063,3468.020282100886,3468.020282100886,3468.3207024149597,3468.8211044855416,3469.021283429116,3470.02575488016,left,1,0.3,0.6350186802446842,,,,,,,,,,,s009,001,2024-07-12_15h45.17.522,simplestop_skeleton,2022.2.2,59.793689124131475,
None,None,,,,,,,,,1,0,1,0,2,1,9,2,,,,,,,,,3470.0073581933975,stop,circleblack.png,left,0.3,,,,,,,,,,,,,,,,0.0013825148344039917,0.48958388715982437,0.7899685725569725,3472.5099182352424,test,2,,,,,,,,,3470.02575488016,3470.5399835519493,3470.5231266133487,3470.5231266133487,3470.8235522434115,3471.3240927644074,3471.5241544805467,3472.5290598906577,None,0,0.35,,,,,,,,,,,,s009,001,2024-07-12_15h45.17.522,simplestop_skeleton,2022.2.2,59.793689124131475,
None,None,,,,,,,,,1,0,1,0,2,2,10,1,,,,,,,,,3472.510361690074,stop,squareblack.png,right,0.35,,,,,,,,,,,,,,,,0.0016495957970619202,0.48950281739234924,0.839976143091917,3475.0125800073147,test,2,,,,,,,,,3472.5290598906577,3473.042505528778,3473.0259133800864,3473.0259133800864,3473.3761594444513,3473.8769608214498,3474.0266178287566,3475.0314278006554,right,1,0.3,0.3738662526011467,,,,,,,,,,,s009,001,2024-07-12_15h45.17.522,simplestop_skeleton,2022.2.2,59.793689124131475,
None,None,,,,,,,,,1,0,1,0,2,3,11,2,,,,,,,,,3475.0130192935467,stop,squareblack.png,right,0.3,,,,,,,,,,,,,,,,0.0013410970568656921,0.48963840305805206,0.7898584268987179,3477.515170816332,test,2,,,,,,,,,3475.0314278006554,3475.5452006347477,3475.528429750353,3475.528429750353,3475.829004880041,3476.329499196261,3476.5294149518013,3477.5346671380103,None,0,0.35,,,,,,,,,,,,s009,001,2024-07-12_15h45.17.522,simplestop_skeleton,2022.2.2,59.793689124131475,
$currentCorrectResponse,$currentGoStim,,,,,,,,,1,0,1,0,3,0,12,0,,,,,,,,,3477.5156164206564,go,circleblack.png,left,0.35,,,,,,,,,,,,,,,,0.0020414553582668304,0.4895378462970257,,3480.017759051174,test,2,,,,,,,,,3477.5346671380103,3478.0478627495468,3478.031219571829,3478.031219571829,3478.3815991021693,3478.8822485990822,3479.032261751592,3480.036944925785,left,1,0.35,0.409415315836668,,,,,,,,,,,s009,001,2024-07-12_15h45.17.522,simplestop_skeleton,2022.2.2,59.793689124131475,
None,None,,,,,,,,,1,0,1,0,3,1,13,2,,,,,,,,,3480.0181807763875,go,circleblack.png,left,0.35,,,,,,,,,,,,,,,,0.0013347826898097992,0.48963532224297523,,3482.5209263302386,test,2,,,,,,,,,3480.036944925785,3480.5507204271853,3480.533899895847,3480.533899895847,3480.8845134824514,3481.3849963471293,3481.535083606839,3482.5401442833245,left,1,0.35,0.4648684449493885,,,,,,,,,,,s009,001,2024-07-12_15h45.17.522,simplestop_skeleton,2022.2.2,59.793689124131475,
None,None,,,,,,,,,1,0,1,0,3,2,14,2,,,,,,,,,3482.521361555904,go,squareblack.png,right,0.35,,,,,,,,,,,,,,,,0.001609206199645996,0.4896356426179409,,3485.023764640093,test,2,,,,,,,,,3482.5401442833245,3483.053381383419,3483.0368245877326,3483.0368245877326,3483.3872650675476,3483.8878864198923,3484.0382857620716,3485.042663939297,right,1,0.35,0.3698706068098545,,,,,,,,,,,s009,001,2024-07-12_15h45.17.522,simplestop_skeleton,2022.2.2,59.793689124131475,
None,None,,,,,,,,,1,0,1,0,3,3,15,3,,,,,,,,,3485.024242594838,go,squareblack.png,right,0.35,,,,,,,,,,,,,,,,0.0012808851897716522,0.4891278110444546,,3487.526183832437,test,2,,,,,,,,,3485.042663939297,3485.556255094707,3485.5395332314074,3485.5395332314074,3485.8901082128286,3486.3905029296875,3486.5406513549387,3487.5458171851933,right,1,0.35,0.3396220728754997,,,,,,,,,,,s009,001,2024-07-12_15h45.17.522,simplestop_skeleton,2022.2.2,59.793689124131475,
None,None,,,,,,,,,1,0,1,0,4,0,16,3,,,,,,,,,3487.5266129523516,stop,circleblack.png,left,0.35,,,,,,,,,,,,,,,,0.001893114298582077,0.4899694584310055,0.8401258699595928,3490.0290667638183,test,2,,,,,,,,,3487.5458171851933,3488.0594293512404,3488.0421664193273,3488.0421664193273,3488.3929217383265,3488.8935311362147,3489.0435878634453,3490.048059362918,left,1,0.3,0.37356269359588623,,,,,,,,,,,s009,001,2024-07-12_15h45.17.522,simplestop_skeleton,2022.2.2,59.793689124131475,
None,None,,,,,,,,,1,0,1,0,4,1,17,1,,,,,,,,,3490.029492147267,stop,circleblack.png,left,0.3,,,,,,,,,,,,,,,,0.0013896822929382324,0.4897058866918087,0.7900026924908161,3492.5317350663245,test,2,,,,,,,,,3490.048059362918,3490.5617074370384,3490.5452805757523,3490.5452805757523,3490.8454503193498,3491.3455595448613,3491.545312743634,3492.5504163764417,left,1,0.25,0.44245216250419617,,,,,,,,,,,s009,001,2024-07-12_15h45.17.522,simplestop_skeleton,2022.2.2,59.793689124131475,
None,None,,,,,,,,,1,0,1,0,4,2,18,3,,,,,,,,,3492.5322262980044,go,circleblack.png,left,0.25,,,,,,,,,,,,,,,,0.0013742558658123016,0.48973115906119347,,3495.034571800381,test,2,,,,,,,,,3492.5504163764417,3493.064408197999,3493.047876805067,3493.047876805067,3493.2980450317264,3493.798906650394,3494.048874940723,3495.0537870042026,left,1,0.25,0.6291564367711544,,,,,,,,,,,s009,001,2024-07-12_15h45.17.522,simplestop_skeleton,2022.2.2,59.793689124131475,
$currentCorrectResponse,$currentGoStim,,,,,,,,,1,0,1,0,4,3,19,0,,,,,,,,,3495.035012539476,go,squareblack.png,right,0.25,,,,,,,,,,,,,,,,0.0017736293375492096,0.48961707949638367,,3497.5371430516243,test,2,,,,,,,,,3495.0537870042026,3495.5672113634646,3495.550463695079,3495.550463695079,3495.8007521294057,3496.3013373315334,3496.551779117435,3497.5557410754263,right,1,0.25,0.7273974195122719,,,,,,,,,,,s009,001,2024-07-12_15h45.17.522,simplestop_skeleton,2022.2.2,59.793689124131475,
None,None,,,,,,,,,1,0,1,0,5,0,20,2,,,,,,,,,3497.5375672206283,stop,squareblack.png,right,0.25,,,,,,,,,,,,,,,,0.0011840686202049255,0.49013685062527657,0.7400180026888847,3500.0403629802167,test,2,,,,,,,,,3497.5557410754263,3498.0704232119024,3498.0532711036503,3498.0532711036503,3498.3035439029336,3498.804144382477,3499.0544856265187,3500.0592057816684,None,0,0.3,,,,,,,,,,,,s009,001,2024-07-12_15h45.17.522,simplestop_skeleton,2022.2.2,59.793689124131475,
$currentCorrectResponse,$currentGoStim,,,,,,,,,1,0,1,0,5,1,21,0,,,,,,,,,3500.0408161208034,go,squareblack.png,right,0.3,,,,,,,,,,,,,,,,0.00135020911693573,0.4897061698138714,,3502.542912989855,test,2,,,,,,,,,3500.0592057816684,3500.5727276429534,3500.55642484501,3500.55642484501,3500.8565194755793,3501.3569405414164,3501.5573518797755,3502.5626246258616,right,1,0.3,0.7552947923541069,,,,,,,,,,,s009,001,2024-07-12_15h45.17.522,simplestop_skeleton,2022.2.2,59.793689124131475,
None,None,,,,,,,,,1,0,1,0,5,2,22,2,,,,,,,,,3502.543338149786,go,circleblack.png,left,0.3,,,,,,,,,,,,,,,,0.0019703954458236694,0.4897097274661064,,3505.0454822331667,test,2,,,,,,,,,3502.5626246258616,3503.075587514788,3503.0589280351996,3503.0589280351996,3503.3590937666595,3503.8597907684743,3504.0599177107215,3505.0646287351847,left,1,0.3,0.6362650170922279,,,,,,,,,,,s009,001,2024-07-12_15h45.17.522,simplestop_skeleton,2022.2.2,59.793689124131475,
None,None,,,,,,,,,1,0,1,0,5,3,23,2,,,,,,,,,3505.0459150485694,stop,squareblack.png,right,0.3,,,,,,,,,,,,,,,,0.0017527639865875244,0.48976534605026245,0.7901257798075676,3507.5485516302288,test,2,,,,,,,,,3505.0646287351847,3505.5782340206206,3505.561561346054,3505.561561346054,3505.861939676106,3506.362474221736,3506.563153989613,3507.567693207413,None,0,0.35,,,,,,,,,,,,s009,001,2024-07-12_15h45.17.522,simplestop_skeleton,2022.2.2,59.793689124131475,
None,None,,,,,,,,,1,0,1,0,6,0,24,3,,,,,,,,,3507.5489897988737,go,circleblack.png,left,0.35,,,,,,,,,,,,,,,,0.0018904022872447968,0.48965537920594215,,3510.0511592812836,test,2,,,,,,,,,3507.567693207413,3508.0813566818833,3508.0642588213086,3508.0642588213086,3508.4148728735745,3508.9156113266945,3509.0653950870037,3510.070760808885,left,1,0.35,0.6634480841457844,,,,,,,,,,,s009,001,2024-07-12_15h45.17.522,simplestop_skeleton,2022.2.2,59.793689124131475,
None,None,,,,,,,,,1,0,1,0,6,1,25,3,,,,,,,,,3510.051590744406,go,squareblack.png,right,0.35,,,,,,,,,,,,,,,,0.0018398836255073547,0.4894433580338955,,3512.5538838393986,test,2,,,,,,,,,3510.070760808885,3510.5837724357843,3510.5674004368484,3510.5674004368484,3510.918055832386,3511.4180956445634,3511.568194486201,3512.573188766837,right,1,0.35,0.6649848707020283,,,,,,,,,,,s009,001,2024-07-12_15h45.17.522,simplestop_skeleton,2022.2.2,59.793689124131475,
None,None,,,,,,,,,1,0,1,0,6,2,26,2,,,,,,,,,3512.554328728467,go,circleblack.png,left,0.35,,,,,,,,,,,,,,,,0.0017437189817428589,0.4898330867290497,,3515.056885909289,test,2,,,,,,,,,3512.573188766837,3513.0867266505957,3513.0699836947024,3513.0699836947024,3513.420286182314,3513.921462647617,3514.0712519176304,3515.0760564282537,left,1,0.35,0.6987726055085659,,,,,,,,,,,s009,001,2024-07-12_15h45.17.522,simplestop_skeleton,2022.2.2,59.793689124131475,
None,None,,,,,,,,,1,0,1,0,6,3,27,1,,,,,,,,,3515.0573299899697,go,squareblack.png,right,0.35,,,,,,,,,,,,,,,,0.001713685691356659,0.48938823491334915,,3517.559162158519,test,2,,,,,,,,,3515.0760564282537,3515.5893824510276,3515.572851896286,3515.572851896286,3515.923020925373,3516.423763182014,3516.573665842414,3517.578478116542,right,1,0.35,0.656352061778307,,,,,,,,,,,s009,001,2024-07-12_15h45.17.522,simplestop_skeleton,2022.2.2,59.793689124131475,
$currentCorrectResponse,$currentGoStim,,,,,,,,,1,0,1,0,7,0,28,0,,,,,,,,,3517.55959398672,go,circleblack.png,left,0.35,,,,,,,,,,,,,,,,0.0017889104783535004,0.48973188921809196,,3520.061838619411,test,2,,,,,,,,,3517.578478116542,3518.091963559389,3518.075474873185,3518.075474873185,3518.4258744195104,3518.926297158003,3519.0764098353684,3520.080727469176,left,1,0.35,0.5899929255247116,,,,,,,,,,,s009,001,2024-07-12_15h45.17.522,simplestop_skeleton,2022.2.2,59.793689124131475,
None,None,,,,,,,,,1,0,1,0,7,1,29,2,,,,,,,,,3520.0622854605317,stop,circleblack.png,left,0.35,,,,,,,,,,,,,,,,0.0012830793857574463,0.4899921156466007,0.8401658311486244,3522.5650084018707,test,2,,,,,,,,,3520.080727469176,3520.594817366451,3520.5781868323684,3520.5781868323684,3520.9285205341876,3521.4290333986282,3521.5794013664126,3522.5839728862047,None,0,0.4,,,,,,,,,,,,s009,001,2024-07-12_15h45.17.522,simplestop_skeleton,2022.2.2,59.793689124131475,
None,None,,,,,,,,,1,0,1,0,7,2,30,2,,,,,,,,,3522.5654493160546,stop,squareblack.png,right,0.4,,,,,,,,,,,,,,,,0.0016588009893894196,0.48974646255373955,0.8901502266526222,3525.067672930658,test,2,,,,,,,,,3522.5839728862047,3523.097588572651,3523.0809957645833,3523.0809957645833,3523.4812527894974,3523.9820586182177,3524.081958979368,3525.087595574558,right,1,0.35,0.46460988000035286,,,,,,,,,,,s009,001,2024-07-12_15h45.17.522,simplestop_skeleton,2022.2.2,59.793689124131475,
$currentCorrectResponse,$currentGoStim,,,,,,,,,1,0,1,0,7,3,31,0,,,,,,,,,3525.0681062862277,go,circleblack.png,left,0.35,,,,,,,,,,,,,,,,0.0018596388399600983,0.4893536940217018,,3527.5704979524016,test,2,,,,,,,,,3525.087595574558,3525.6002913080156,3525.58405264467,3525.58405264467,3525.9340228922665,3526.4347534403205,3526.584890305996,3527.589679211378,left,1,0.35,0.7085660323500633,,,,,,,,,,,s009,001,2024-07-12_15h45.17.522,simplestop_skeleton,2022.2.2,59.793689124131475,
None,None,,,,,,,,,1,0,1,0,8,0,32,1,,,,,,,,,3527.570935755968,go,squareblack.png,right,0.35,,,,,,,,,,,,,,,,0.001697733998298645,0.4899621419608593,,3530.0733054727316,test,2,,,,,,,,,3527.589679211378,3528.10304928571,3528.0864329375327,3528.0864329375327,3528.436990007758,3528.9376228936017,3529.087680861354,3530.0928664691746,right,1,0.35,0.7482514269649982,,,,,,,,,,,s009,001,2024-07-12_15h45.17.522,simplestop_skeleton,2022.2.2,59.793689124131475,
$currentCorrectResponse,$currentGoStim,,,,,,,,,1,0,1,0,8,1,33,0,,,,,,,,,3530.0737552568316,stop,circleblack.png,left,0.35,,,,,,,,,,,,,,,,0.0020139068365097046,0.48951496183872223,0.8399595245718956,3532.5759893879294,test,2,,,,,,,,,3530.0928664691746,3530.6062142774463,3530.5893366858363,3530.5893366858363,3530.939836975187,3531.4402159564197,3531.590534798801,3532.5953402630985,None,0,0.4,,,,,,,,,,,,s009,001,2024-07-12_15h45.17.522,simplestop_skeleton,2022.2.2,59.793689124131475,
None,None,,,,,,,,,1,0,1,0,8,2,34,1,,,,,,,,,3532.576423946768,go,squareblack.png,right,0.4,,,,,,,,,,,,,,,,0.0017667748034000397,0.489601518958807,,3535.078775744885,test,2,,,,,,,,,3532.5953402630985,3533.1088771149516,3533.0919537059963,3533.0919537059963,3533.4923943057656,3533.9931165501475,3534.0934659279883,3535.097751427442,right,1,0.4,0.698618933558464,,,,,,,,,,,s009,001,2024-07-12_15h45.17.522,simplestop_skeleton,2022.2.2,59.793689124131475,
None,None,,,,,,,,,1,0,1,0,8,3,35,2,,,,,,,,,3535.079219482839,stop,squareblack.png,right,0.4,,,,,,,,,,,,,,,,0.001316271722316742,0.489620428532362,0.8900371082127094,3537.581690210849,test,2,,,,,,,,,3535.097751427442,3535.6114705652,3535.5948441699147,3535.5948441699147,3535.995112158358,3536.495817348361,3536.595866587013,3537.601261984557,None,0,0.45,,,,,,,,,,,,s009,001,2024-07-12_15h45.17.522,simplestop_skeleton,2022.2.2,59.793689124131475,
None,None,,,,,,,,,1,0,1,0,9,0,36,1,,,,,,,,,3537.582128856331,stop,circleblack.png,left,0.45,,,,,,,,,,,,,,,,0.0019664838910102844,0.4894075505435467,0.9399673901498318,3540.0841019414365,test,2,,,,,,,,,3537.601261984557,3538.114325635135,3538.0975586250424,3538.0975586250424,3538.548044551164,3539.048691276461,3539.0987230725586,3540.1034578196704,None,0,0.5,,,,,,,,,,,,s009,001,2024-07-12_15h45.17.522,simplestop_skeleton,2022.2.2,59.793689124131475,
None,None,,,,,,,,,1,0,1,0,9,1,37,3,,,,,,,,,3540.0845418572426,stop,squareblack.png,right,0.5,,,,,,,,,,,,,,,,0.0016120821237564087,0.49017849564552307,0.9905115552246571,3542.5870703607798,test,2,,,,,,,,,3540.1034578196704,3540.6168762668967,3540.6002257578075,3540.6002257578075,3541.10078542307,3541.601317152381,3541.601317152381,3542.6057140380144,None,0,0.55,,,,,,,,,,,,s009,001,2024-07-12_15h45.17.522,simplestop_skeleton,2022.2.2,59.793689124131475,
None,None,,,,,,,,,1,0,1,0,9,2,38,1,,,,,,,,,3542.5874986574054,stop,squareblack.png,right,0.55,,,,,,,,,,,,,,,,0.001279149204492569,0.4897899329662323,1.0402923300862312,3545.089874610305,test,2,,,,,,,,,3542.6057140380144,3543.1199397705495,3543.1030110269785,3543.1030110269785,3543.6539194509387,3544.1542337462306,3544.104118142277,3545.1093567423522,right,1,0.5,0.5412301868200302,,,,,,,,,,,s009,001,2024-07-12_15h45.17.522,simplestop_skeleton,2022.2.2,59.793689124131475,
$currentCorrectResponse,$currentGoStim,,,,,,,,,1,0,1,0,9,3,39,0,,,,,,,,,3545.090315014124,go,circleblack.png,left,0.5,,,,,,,,,,,,,,,,0.0019358955323696136,0.4893827624619007,,3547.5923438072205,test,2,,,,,,,,,3545.1093567423522,3545.6225755140185,3545.6057863123715,3545.6057863123715,3546.106380008161,3546.6062018461525,3546.6062018461525,3547.611486032605,left,1,0.5,0.46798236668109894,,,,,,,,,,,s009,001,2024-07-12_15h45.17.522,simplestop_skeleton,2022.2.2,59.793689124131475,
None,None,,,,,,,,,1,0,1,0,10,0,40,3,,,,,,,,,3547.592788979411,go,circleblack.png,left,0.5,,,,,,,,,,,,,,,,0.0012862533330917358,0.489660881459713,,3550.0953858196735,test,2,,,,,,,,,3547.611486032605,3548.125661663711,3548.10845804587,3548.10845804587,3548.6089911200106,3549.1095004342496,3549.1095004342496,3550.11439909786,left,1,0.5,0.5681808032095432,,,,,,,,,,,s009,001,2024-07-12_15h45.17.522,simplestop_skeleton,2022.2.2,59.793689124131475,
None,None,,,,,,,,,1,0,1,0,10,1,41,3,,,,,,,,,3550.095817606896,stop,circleblack.png,left,0.5,,,,,,,,,,,,,,,,0.0013873763382434845,0.4894249327480793,0.9898488223552704,3552.598767157644,test,2,,,,,,,,,3550.11439909786,3550.627886775881,3550.611224401742,3550.611224401742,3551.111688300967,3551.6123905330896,3551.6123905330896,3552.6171996220946,left,1,0.45,0.6242493577301502,,,,,,,,,,,s009,001,2024-07-12_15h45.17.522,simplestop_skeleton,2022.2.2,59.793689124131475,
$currentCorrectResponse,$currentGoStim,,,,,,,,,1,0,1,0,10,2,42,0,,,,,,,,,3552.599201951176,go,circleblack.png,left,0.45,,,,,,,,,,,,,,,,0.0013420209288597107,0.489092443138361,,3555.1006914041936,test,2,,,,,,,,,3552.6171996220946,3553.1308892183006,3553.114170230925,3553.114170230925,3553.5645394697785,3554.0651230327785,3554.115459460765,3555.1200005821884,left,1,0.45,0.8619519099593163,,,,,,,,,,,s009,001,2024-07-12_15h45.17.522,simplestop_skeleton,2022.2.2,59.793689124131475,
$currentCorrectResponse,$currentGoStim,,,,,,,,,1,0,1,0,10,3,43,0,,,,,,,,,3555.1011201143265,go,squareblack.png,right,0.45,,,,,,,,,,,,,,,,0.001657739281654358,0.4900677092373371,,3557.6035535745323,test,2,,,,,,,,,3555.1200005821884,3555.6335987448692,3555.616780806333,3555.616780806333,3556.0674361921847,3556.5677553266287,3556.6179573722184,3557.6224069409072,right,1,0.45,0.6758545599877834,,,,,,,,,,,s009,001,2024-07-12_15h45.17.522,simplestop_skeleton,2022.2.2,59.793689124131475,
$currentCorrectResponse,$currentGoStim,,,,,,,,,1,0,1,0,11,0,44,0,,,,,,,,,3557.603978615254,go,squareblack.png,right,0.45,,,,,,,,,,,,,,,,0.001247793436050415,0.4896622970700264,,3560.1064524427056,test,2,,,,,,,,,3557.6224069409072,3558.1362198255956,3558.119845330715,3558.119845330715,3558.5702804476023,3559.0707895234227,3559.120662357658,3560.125830296427,right,1,0.45,0.6926685757935047,,,,,,,,,,,s009,001,2024-07-12_15h45.17.522,simplestop_skeleton,2022.2.2,59.793689124131475,
None,None,,,,,,,,,1,0,1,0,11,1,45,1,,,,,,,,,3560.1068829260767,go,squareblack.png,right,0.45,,,,,,,,,,,,,,,,0.0013395249843597412,0.4898073449730873,,3562.6091737262905,test,2,,,,,,,,,3560.125830296427,3560.6390407904983,3560.622364036739,3560.622364036739,3561.0729819461703,3561.5733931027353,3561.623583547771,3562.6281368993223,right,1,0.45,0.6114638485014439,,,,,,,,,,,s009,001,2024-07-12_15h45.17.522,simplestop_skeleton,2022.2.2,59.793689124131475,
None,None,,,,,,,,,1,0,1,0,11,2,46,1,,,,,,,,,3562.609614275396,go,squareblack.png,right,0.45,,,,,,,,,,,,,,,,0.0013856738805770874,0.48959504440426826,,3565.112071827054,test,2,,,,,,,,,3562.6281368993223,3563.141809500754,3563.125105306506,3563.125105306506,3563.5758237726986,3564.076152201742,3564.1264678500593,3565.131507437676,right,1,0.45,0.6378000192344189,,,,,,,,,,,s009,001,2024-07-12_15h45.17.522,simplestop_skeleton,2022.2.2,59.793689124131475,
None,None,,,,,,,,,1,0,1,0,11,3,47,1,,,,,,,,,3565.112508572638,go,circleblack.png,left,0.45,,,,,,,,,,,,,,,,0.0019401311874389648,0.4895264208316803,,3567.614617805928,test,2,,,,,,,,,3565.131507437676,3565.6444193199277,3565.6278990618885,3565.6278990618885,3566.078627549112,3566.578893825412,3566.628962237388,3567.6303724236786,left,1,0.45,0.6186060421168804,,,,,,,,,,,s009,001,2024-07-12_15h45.17.522,simplestop_skeleton,2022.2.2,59.793689124131475,
,,,,,,,,,,1,0,1,0,,,,,,,,,,,,,,,,,,,,,,,,,,,,,,,,,,,,,,,,,,,,,,,,,,,,,,,,,,,3567.6303724236786,3567.6303724236786,return,9.875045392662287,"[{'fileName': 'squareblack.png', 'correct_response': 'right', 'condition': 'go'}, {'fileName': 'circleblack.png', 'correct_response': 'left', 'condition': 'go'}, {'fileName': 'squareblack.png', 'correct_response': 'right', 'condition': 'go'}, {'fileName': 'circleblack.png', 'correct_response': 'left', 'condition': 'stop'}, {'fileName': 'squareblack.png', 'correct_response': 'right', 'condition': 'stop'}, {'fileName': 'squareblack.png', 'correct_response': 'right', 'condition': 'stop'}, {'fileName': 'squareblack.png', 'correct_response': 'right', 'condition': 'go'}, {'fileName': 'circleblack.png', 'correct_response': 'left', 'condition': 'stop'}, {'fileName': 'circleblack.png', 'correct_response': 'left', 'condition': 'go'}, {'fileName': 'circleblack.png', 'correct_response': 'left', 'condition': 'go'}, {'fileName': 'squareblack.png', 'correct_response': 'right', 'condition': 'go'}, {'fileName': 'circleblack.png', 'correct_response': 'left', 'condition': 'go'}, {'fileName': 'circleblack.png', 'correct_response': 'left', 'condition': 'stop'}, {'fileName': 'squareblack.png', 'correct_response': 'right', 'condition': 'go'}, {'fileName': 'squareblack.png', 'correct_response': 'right', 'condition': 'go'}, {'fileName': 'circleblack.png', 'correct_response': 'left', 'condition': 'go'}, {'fileName': 'circleblack.png', 'correct_response': 'left', 'condition': 'go'}, {'fileName': 'squareblack.png', 'correct_response': 'right', 'condition': 'stop'}, {'fileName': 'circleblack.png', 'correct_response': 'left', 'condition': 'stop'}, {'fileName': 'circleblack.png', 'correct_response': 'left', 'condition': 'go'}, {'fileName': 'squareblack.png', 'correct_response': 'right', 'condition': 'go'}, {'fileName': 'squareblack.png', 'correct_response': 'right', 'condition': 'stop'}, {'fileName': 'squareblack.png', 'correct_response': 'right', 'condition': 'go'}, {'fileName': 'circleblack.png', 'correct_response': 'left', 'condition': 'go'}, {'fileName': 'squareblack.png', 'correct_response': 'right', 'condition': 'go'}, {'fileName': 'squareblack.png', 'correct_response': 'right', 'condition': 'go'}, {'fileName': 'circleblack.png', 'correct_response': 'left', 'condition': 'go'}, {'fileName': 'squareblack.png', 'correct_response': 'right', 'condition': 'stop'}, {'fileName': 'circleblack.png', 'correct_response': 'left', 'condition': 'go'}, {'fileName': 'squareblack.png', 'correct_response': 'right', 'condition': 'go'}, {'fileName': 'circleblack.png', 'correct_response': 'left', 'condition': 'go'}, {'fileName': 'circleblack.png', 'correct_response': 'left', 'condition': 'stop'}, {'fileName': 'circleblack.png', 'correct_response': 'left', 'condition': 'go'}, {'fileName': 'squareblack.png', 'correct_response': 'right', 'condition': 'go'}, {'fileName': 'circleblack.png', 'correct_response': 'left', 'condition': 'stop'}, {'fileName': 'squareblack.png', 'correct_response': 'right', 'condition': 'stop'}, {'fileName': 'circleblack.png', 'correct_response': 'left', 'condition': 'go'}, {'fileName': 'squareblack.png', 'correct_response': 'right', 'condition': 'go'}, {'fileName': 'squareblack.png', 'correct_response': 'right', 'condition': 'go'}, {'fileName': 'squareblack.png', 'correct_response': 'right', 'condition': 'go'}, {'fileName': 'squareblack.png', 'correct_response': 'right', 'condition': 'stop'}, {'fileName': 'circleblack.png', 'correct_response': 'left', 'condition': 'stop'}, {'fileName': 'squareblack.png', 'correct_response': 'right', 'condition': 'go'}, {'fileName': 'circleblack.png', 'correct_response': 'left', 'condition': 'stop'}, {'fileName': 'circleblack.png', 'correct_response': 'left', 'condition': 'go'}, {'fileName': 'circleblack.png', 'correct_response': 'left', 'condition': 'go'}, {'fileName': 'circleblack.png', 'correct_response': 'left', 'condition': 'go'}, {'fileName': 'squareblack.png', 'correct_response': 'right', 'condition': 'stop'}]",,,,,,s009,001,2024-07-12_15h45.17.522,simplestop_skeleton,2022.2.2,59.793689124131475,
None,None,,,,,,,,,2,0,2,0,0,0,0,1,,,,,,,,,3577.5172408372164,go,squareblack.png,right,0.45,,,,,,,,,,,,,,,,0.0017566606402397156,0.4979098029434681,,3580.0284345038235,test,3,,,,,,,,,3577.5361018925905,3578.0415417961776,3578.0415417961776,3578.0415417961776,3578.491937980056,3578.9927819743752,3579.0427101291716,3580.0478105656803,right,1,0.45,0.42616529017686844,,,,,,,,,,,s009,001,2024-07-12_15h45.17.522,simplestop_skeleton,2022.2.2,59.793689124131475,
None,None,,,,,,,,,2,0,2,0,0,1,1,3,,,,,,,,,3580.028971940279,go,circleblack.png,left,0.45,,,,,,,,,,,,,,,,0.0018724054098129272,0.4894312508404255,,3582.531046539545,test,3,,,,,,,,,3580.0478105656803,3580.561013597995,3580.5443334914744,3580.5443334914744,3580.9949266687036,3581.4946954138577,3581.5453716404736,3582.5502223931253,left,1,0.45,0.36115362867712975,,,,,,,,,,,s009,001,2024-07-12_15h45.17.522,simplestop_skeleton,2022.2.2,59.793689124131475,
$currentCorrectResponse,$currentGoStim,,,,,,,,,2,0,2,0,0,2,2,0,,,,,,,,,3582.5314738824964,go,squareblack.png,right,0.45,,,,,,,,,,,,,,,,0.0017629750072956085,0.48978397622704506,,3585.0337466187775,test,3,,,,,,,,,3582.5502223931253,3583.0640367530286,3583.0470613241196,3583.0470613241196,3583.4978501573205,3583.998355537653,3584.0482860654593,3585.0532134585083,right,1,0.45,0.703267689794302,,,,,,,,,,,s009,001,2024-07-12_15h45.17.522,simplestop_skeleton,2022.2.2,59.793689124131475,
$currentCorrectResponse,$currentGoStim,,,,,,,,,2,0,2,0,0,3,3,0,,,,,,,,,3585.0341851115227,stop,circleblack.png,left,0.45,,,,,,,,,,,,,,,,0.0018207989633083344,0.48977968096733093,0.9403689987957478,3587.5367856882513,test,3,,,,,,,,,3585.0532134585083,3585.5668233819306,3585.5496893525124,3585.5496893525124,3586.000467840582,3586.5011091716588,3586.5511988699436,3587.5559289455414,left,1,0.4,0.3576405495405197,,,,,,,,,,,s009,001,2024-07-12_15h45.17.522,simplestop_skeleton,2022.2.2,59.793689124131475,
None,None,,,,,,,,,2,0,2,0,1,0,4,2,,,,,,,,,3587.5372224748135,stop,squareblack.png,right,0.4,,,,,,,,,,,,,,,,0.0017006061971187592,0.4895300716161728,0.8901813812553883,3590.039431799203,test,3,,,,,,,,,3587.5559289455414,3588.0691181868315,3588.052636437118,3588.052636437118,3588.453051302582,3588.953055292368,3589.0528409406543,3590.058191075921,right,1,0.35,0.43552980944514275,,,,,,,,,,,s009,001,2024-07-12_15h45.17.522,simplestop_skeleton,2022.2.2,59.793689124131475,
None,None,,,,,,,,,2,0,2,0,1,1,5,3,,,,,,,,,3590.0399148501456,stop,squareblack.png,right,0.35,,,,,,,,,,,,,,,,0.0012684762477874756,0.48974526301026344,0.8401796482503414,3592.5421844534576,test,3,,,,,,,,,3590.058191075921,3590.5719823911786,3590.555553626269,3590.555553626269,3590.905727915466,3591.4055675193667,3591.5558608174324,3592.5612314231694,right,1,0.3,0.4400923326611519,,,,,,,,,,,s009,001,2024-07-12_15h45.17.522,simplestop_skeleton,2022.2.2,59.793689124131475,
None,None,,,,,,,,,2,0,2,0,1,2,6,2,,,,,,,,,3592.5426248796284,go,squareblack.png,right,0.3,,,,,,,,,,,,,,,,0.001326046884059906,0.4895528666675091,,3595.044900715351,test,3,,,,,,,,,3592.5612314231694,3593.0748719237745,3593.0581479929388,3593.0581479929388,3593.358437381685,3593.858938090503,3594.0595605038106,3595.0643840804696,right,1,0.3,0.6604037918150425,,,,,,,,,,,s009,001,2024-07-12_15h45.17.522,simplestop_skeleton,2022.2.2,59.793689124131475,
None,None,,,,,,,,,2,0,2,0,1,3,7,1,,,,,,,,,3595.045324191451,stop,circleblack.png,left,0.3,,,,,,,,,,,,,,,,0.001958366483449936,0.48967400193214417,0.7901682555675507,3597.547769125551,test,3,,,,,,,,,3595.0643840804696,3595.577790774405,3595.560943122953,3595.560943122953,3595.861074142158,3596.361674565822,3596.562019791454,3597.5663229748607,None,0,0.35,,,,,,,,,,,,s009,001,2024-07-12_15h45.17.522,simplestop_skeleton,2022.2.2,59.793689124131475,
None,None,,,,,,,,,2,0,2,0,2,0,8,3,,,,,,,,,3597.548202190548,go,circleblack.png,left,0.35,,,,,,,,,,,,,,,,0.001291513442993164,0.489897258579731,,3600.0502925738692,test,3,,,,,,,,,3597.5663229748607,3598.080353833735,3598.0638325586915,3598.0638325586915,3598.4141151569784,3598.914805032313,3599.0634820386767,3600.069471400231,left,1,0.35,0.6504099406301975,,,,,,,,,,,s009,001,2024-07-12_15h45.17.522,simplestop_skeleton,2022.2.2,59.793689124131475,
None,None,,,,,,,,,2,0,2,0,2,1,9,3,,,,,,,,,3600.0507278218865,go,circleblack.png,left,0.35,,,,,,,,,,,,,,,,0.0013434328138828278,0.48967931792140007,,3602.5530688390136,test,3,,,,,,,,,3600.069471400231,3600.583123072982,3600.566286318004,3600.566286318004,3600.9167719706893,3601.4174789898098,3601.567524369806,3602.572276737541,left,1,0.35,0.6902383975684643,,,,,,,,,,,s009,001,2024-07-12_15h45.17.522,simplestop_skeleton,2022.2.2,59.793689124131475,
None,None,,,,,,,,,2,0,2,0,2,2,10,3,,,,,,,,,3602.5534937232733,go,squareblack.png,right,0.35,,,,,,,,,,,,,,,,0.0017210282385349274,0.48990584164857864,,3605.0561246164143,test,3,,,,,,,,,3602.572276737541,3603.085874322802,3603.069187387824,3603.069187387824,3603.419936668128,3603.919972501695,3604.070447124541,3605.0753601640463,right,1,0.35,0.8957165069878101,,,,,,,,,,,s009,001,2024-07-12_15h45.17.522,simplestop_skeleton,2022.2.2,59.793689124131475,
None,None,,,,,,,,,2,0,2,0,2,3,11,3,,,,,,,,,3605.0565522052348,go,circleblack.png,left,0.35,,,,,,,,,,,,,,,,0.0019024014472961426,0.48972388729453087,,3607.5587180256844,test,3,,,,,,,,,3605.0753601640463,3605.5885596312582,3605.5720750764012,3605.5720750764012,3605.922273185104,3606.422943919897,3606.5734080486,3607.5777219608426,left,1,0.35,0.611306294798851,,,,,,,,,,,s009,001,2024-07-12_15h45.17.522,simplestop_skeleton,2022.2.2,59.793689124131475,
None,None,,,,,,,,,2,0,2,0,3,0,12,1,,,,,,,,,3607.559242539108,stop,circleblack.png,left,0.35,,,,,,,,,,,,,,,,0.0013537369668483734,0.4898068606853485,0.8401161283254623,3610.0615578107536,test,3,,,,,,,,,3607.5777219608426,3608.091601986438,3608.0750122889876,3608.0750122889876,3608.425155226141,3608.926040034741,3609.0759091489017,3610.080826766789,None,0,0.4,,,,,,,,,,,,s009,001,2024-07-12_15h45.17.522,simplestop_skeleton,2022.2.2,59.793689124131475,
None,None,,,,,,,,,2,0,2,0,3,1,13,2,,,,,,,,,3610.0619888044894,go,squareblack.png,right,0.4,,,,,,,,,,,,,,,,0.001647714525461197,0.48974670842289925,,3612.564208958298,test,3,,,,,,,,,3610.080826766789,3610.594190556556,3610.577575173229,3610.577575173229,3610.978248793632,3611.478832360357,3611.5787267535925,3612.582700576633,right,1,0.4,0.676642045378685,,,,,,,,,,,s009,001,2024-07-12_15h45.17.522,simplestop_skeleton,2022.2.2,59.793689124131475,
None,None,,,,,,,,,2,0,2,0,3,2,14,2,,,,,,,,,3612.564652018249,go,squareblack.png,right,0.4,,,,,,,,,,,,,,,,0.0011909343302249908,0.48992735520005226,,3615.0669136866927,test,3,,,,,,,,,3612.582700576633,3613.0968308262527,3613.080291952938,3613.080291952938,3613.4807587862015,3613.9808107428253,3614.08067734167,3615.08646941185,right,1,0.4,0.45160870254039764,,,,,,,,,,,s009,001,2024-07-12_15h45.17.522,simplestop_skeleton,2022.2.2,59.793689124131475,
None,None,,,,,,,,,2,0,2,0,3,3,15,2,,,,,,,,,3615.0673502609134,go,circleblack.png,left,0.4,,,,,,,,,,,,,,,,0.0019164159893989563,0.48954787105321884,,3617.5696079209447,test,3,,,,,,,,,3615.08646941185,3615.599765751511,3615.5831010751426,3615.5831010751426,3615.983458146453,3616.484043095261,3616.584327362478,3617.5886733196676,left,1,0.4,1.0076011754572392,,,,,,,,,,,s009,001,2024-07-12_15h45.17.522,simplestop_skeleton,2022.2.2,59.793689124131475,
$currentCorrectResponse,$currentGoStim,,,,,,,,,2,0,2,0,4,0,16,0,,,,,,,,,3617.5700377114117,go,circleblack.png,left,0.4,,,,,,,,,,,,,,,,0.0013722442090511322,0.48962341248989105,,3620.0723625980318,test,3,,,,,,,,,3617.5886733196676,3618.1023936271667,3618.0857290029526,3618.0857290029526,3618.486113399267,3618.9862536229193,3619.0863258503377,3620.091376427561,left,1,0.4,0.5018683560192585,,,,,,,,,,,s009,001,2024-07-12_15h45.17.522,simplestop_skeleton,2022.2.2,59.793689124131475,
None,None,,,,,,,,,2,0,2,0,4,1,17,1,,,,,,,,,3620.0728024989367,stop,squareblack.png,right,0.4,,,,,,,,,,,,,,,,0.0016516856849193573,0.4896918460726738,0.8903649151325226,3622.575438413769,test,3,,,,,,,,,3620.091376427561,3620.6051247380674,3620.5883442275226,3620.5883442275226,3620.9887997992337,3621.489448994398,3621.5895045883954,3622.595029488206,None,0,0.45,,,,,,,,,,,,s009,001,2024-07-12_15h45.17.522,simplestop_skeleton,2022.2.2,59.793689124131475,
None,None,,,,,,,,,2,0,2,0,4,2,18,2,,,,,,,,,3622.57588731125,stop,circleblack.png,left,0.45,,,,,,,,,,,,,,,,0.0018878579139709473,0.48938364163041115,0.9401058480143547,3625.0781044326723,test,3,,,,,,,,,3622.595029488206,3623.1080097295344,3623.091410666704,3623.091410666704,3623.541839491576,3624.0427333898842,3624.092607334256,3625.097241256386,left,1,0.4,0.5291494354605675,,,,,,,,,,,s009,001,2024-07-12_15h45.17.522,simplestop_skeleton,2022.2.2,59.793689124131475,
$currentCorrectResponse,$currentGoStim,,,,,,,,,2,0,2,0,4,3,19,0,,,,,,,,,3625.0785425007343,go,circleblack.png,left,0.4,,,,,,,,,,,,,,,,0.0014052018523216248,0.48950180783867836,,3627.5806266330183,test,3,,,,,,,,,3625.097241256386,3625.6106322966516,3625.594184987247,3625.594184987247,3625.9946439377964,3626.4948426932096,3626.5945568680763,3627.5997125692666,left,1,0.4,0.6157626770436764,,,,,,,,,,,s009,001,2024-07-12_15h45.17.522,simplestop_skeleton,2022.2.2,59.793689124131475,
None,None,,,,,,,,,2,0,2,0,5,0,20,3,,,,,,,,,3627.5810560658574,go,squareblack.png,right,0.4,,,,,,,,,,,,,,,,0.001605495810508728,0.489691786468029,,3630.0833812579513,test,3,,,,,,,,,3627.5997125692666,3628.113480694592,3628.096736162901,3628.096736162901,3628.497070904821,3628.9976561255753,3629.097712688148,3630.1024638339877,right,1,0.4,0.8529447950422764,,,,,,,,,,,s009,001,2024-07-12_15h45.17.522,simplestop_skeleton,2022.2.2,59.793689124131475,
None,None,,,,,,,,,2,0,2,0,5,1,21,2,,,,,,,,,3630.0838302262127,stop,squareblack.png,right,0.4,,,,,,,,,,,,,,,,0.0013135075569152832,0.489379595965147,0.8899855054914951,3632.586201503873,test,3,,,,,,,,,3630.1024638339877,3630.6162122786045,3630.5994352921844,3630.5994352921844,3630.9998689852655,3631.5000716671348,3631.6002235151827,3632.60487479344,None,0,0.45,,,,,,,,,,,,s009,001,2024-07-12_15h45.17.522,simplestop_skeleton,2022.2.2,59.793689124131475,
None,None,,,,,,,,,2,0,2,0,5,2,22,1,,,,,,,,,3632.5866477265954,go,squareblack.png,right,0.45,,,,,,,,,,,,,,,,0.0011936314404010773,0.4897730126976967,,3635.088880620897,test,3,,,,,,,,,3632.60487479344,3633.1189422756433,3633.102488901466,3633.102488901466,3633.5527950040996,3634.05332358554,3634.1035142727196,3635.108460340649,right,1,0.45,0.7350283674895763,,,,,,,,,,,s009,001,2024-07-12_15h45.17.522,simplestop_skeleton,2022.2.2,59.793689124131475,
$currentCorrectResponse,$currentGoStim,,,,,,,,,2,0,2,0,5,3,23,0,,,,,,,,,3635.089305534959,go,circleblack.png,left,0.45,,,,,,,,,,,,,,,,0.0019143782556056976,0.4897766709327698,,3637.5917497761548,test,3,,,,,,,,,3635.108460340649,3635.621669370681,3635.605290181935,3635.605290181935,3636.0556460022926,3636.55645243451,3636.6060279011726,3637.6108898185194,left,1,0.45,0.739053301513195,,,,,,,,,,,s009,001,2024-07-12_15h45.17.522,simplestop_skeleton,2022.2.2,59.793689124131475,
None,None,,,,,,,,,2,0,2,0,6,0,24,2,,,,,,,,,3637.592177480459,go,squareblack.png,right,0.45,,,,,,,,,,,,,,,,0.0017049983143806458,0.48960166424512863,,3640.0943997576833,test,3,,,,,,,,,3637.6108898185194,3638.1245150379837,3638.10785234347,3638.10785234347,3638.558222938329,3639.0586374923587,3639.1088423617184,3640.113364353776,right,1,0.45,0.7794972322881222,,,,,,,,,,,s009,001,2024-07-12_15h45.17.522,simplestop_skeleton,2022.2.2,59.793689124131475,
$currentCorrectResponse,$currentGoStim,,,,,,,,,2,0,2,0,6,1,25,0,,,,,,,,,3640.0948408171535,go,squareblack.png,right,0.45,,,,,,,,,,,,,,,,0.0012047253549098969,0.48983747512102127,,3642.5972685553133,test,3,,,,,,,,,3640.113364353776,3640.627184100449,3640.6104993857443,3640.6104993857443,3641.0611189864576,3641.5609196275473,3641.6110348962247,3642.6167563013732,right,1,0.45,0.4256355054676533,,,,,,,,,,,s009,001,2024-07-12_15h45.17.522,simplestop_skeleton,2022.2.2,59.793689124131475,
$currentCorrectResponse,$currentGoStim,,,,,,,,,2,0,2,0,6,2,26,0,,,,,,,,,3642.597697608173,go,circleblack.png,left,0.45,,,,,,,,,,,,,,,,0.0019422322511672974,0.48982956260442734,,3645.102855529636,test,3,,,,,,,,,3642.6167563013732,3643.1299801431596,3643.1131965108216,3643.1131965108216,3643.563835490495,3644.0639944188297,3644.1137414202094,3645.122437443584,left,1,0.45,0.4897956997156143,,,,,,,,,,,s009,001,2024-07-12_15h45.17.522,simplestop_skeleton,2022.2.2,59.793689124131475,
None,None,,,,,,,,,2,0,2,0,6,3,27,1,,,,,,,,,3645.1033471673727,stop,squareblack.png,right,0.45,,,,,,,,,,,,,,,,0.0017830468714237213,0.48593519255518913,0.9363223724067211,3647.6026296019554,test,3,,,,,,,,,3645.122437443584,3645.6328272745013,3645.6161199957132,3645.6161199957132,3646.0669782944024,3646.5670645721257,3646.617354493588,3647.6218799501657,None,0,0.5,,,,,,,,,,,,s009,001,2024-07-12_15h45.17.522,simplestop_skeleton,2022.2.2,59.793689124131475,
None,None,,,,,,,,,2,0,2,0,7,0,28,3,,,,,,,,,3647.6030690930784,go,circleblack.png,left,0.5,,,,,,,,,,,,,,,,0.001768447458744049,0.489843487739563,,3650.10545392707,test,3,,,,,,,,,3647.6218799501657,3648.1354969218373,3648.119343113154,3648.119343113154,3648.61931200698,3649.119355980307,3649.119355980307,3650.1248450912535,left,1,0.5,0.5764377042651176,,,,,,,,,,,s009,001,2024-07-12_15h45.17.522,simplestop_skeleton,2022.2.2,59.793689124131475,
None,None,,,,,,,,,2,0,2,0,7,1,29,1,,,,,,,,,3650.105879690498,go,squareblack.png,right,0.5,,,,,,,,,,,,,,,,0.0017293281853199005,0.48980820178985596,,3652.608340393752,test,3,,,,,,,,,3650.1248450912535,3650.638175357133,3650.6216696575284,3650.6216696575284,3651.122061405331,3651.622626438737,3651.622626438737,3652.6275173276663,right,1,0.5,0.8762625604867935,,,,,,,,,,,s009,001,2024-07-12_15h45.17.522,simplestop_skeleton,2022.2.2,59.793689124131475,
None,None,,,,,,,,,2,0,2,0,7,2,30,2,,,,,,,,,3652.6087874136865,go,circleblack.png,left,0.5,,,,,,,,,,,,,,,,0.0017512217164039612,0.489633459597826,,3655.1110405512154,test,3,,,,,,,,,3652.6275173276663,3653.1412525214255,3653.124527234584,3653.124527234584,3653.6250922493637,3654.1249837577343,3654.1249837577343,3655.129913315177,left,1,0.5,0.6829183027148247,,,,,,,,,,,s009,001,2024-07-12_15h45.17.522,simplestop_skeleton,2022.2.2,59.793689124131475,
None,None,,,,,,,,,2,0,2,0,7,3,31,1,,,,,,,,,3655.111464943737,stop,circleblack.png,left,0.5,,,,,,,,,,,,,,,,0.0015921108424663544,0.48996202647686005,0.9904760494828224,3657.613939628005,test,3,,,,,,,,,3655.129913315177,3655.6438613533974,3655.6270550377667,3655.6270550377667,3656.127673819661,3656.627680350095,3656.627680350095,3657.633142154664,left,1,0.45,0.5955045819282532,,,,,,,,,,,s009,001,2024-07-12_15h45.17.522,simplestop_skeleton,2022.2.2,59.793689124131475,
None,None,,,,,,,,,2,0,2,0,8,0,32,3,,,,,,,,,3657.614372909069,go,circleblack.png,left,0.45,,,,,,,,,,,,,,,,0.001405235379934311,0.48955345153808594,,3660.116663776338,test,3,,,,,,,,,3657.633142154664,3658.1470105201006,3658.1301677823067,3658.1301677823067,3658.580563802272,3659.080828398466,3659.129642713815,3660.1362692452967,left,1,0.45,0.6730451174080372,,,,,,,,,,,s009,001,2024-07-12_15h45.17.522,simplestop_skeleton,2022.2.2,59.793689124131475,
None,None,,,,,,,,,2,0,2,0,8,1,33,3,,,,,,,,,3660.117100376636,go,squareblack.png,right,0.45,,,,,,,,,,,,,,,,0.0019369535148143768,0.4896753244102001,,3662.6195014752448,test,3,,,,,,,,,3660.1362692452967,3660.649376630783,3660.632682837546,3660.632682837546,3661.0831306502223,3661.583803411573,3661.6338133104146,3662.638565249741,right,1,0.45,0.7746200151741505,,,,,,,,,,,s009,001,2024-07-12_15h45.17.522,simplestop_skeleton,2022.2.2,59.793689124131475,
None,None,,,,,,,,,2,0,2,0,8,2,34,1,,,,,,,,,3662.619947526604,stop,circleblack.png,left,0.45,,,,,,,,,,,,,,,,0.0017424821853637695,0.4897371269762516,0.940085981041193,3665.1219966448843,test,3,,,,,,,,,3662.638565249741,3663.1520478986204,3663.1354044638574,3663.1354044638574,3663.585764501244,3664.0864997021854,3664.1363248601556,3665.1414651349187,None,0,0.5,,,,,,,,,,,,s009,001,2024-07-12_15h45.17.522,simplestop_skeleton,2022.2.2,59.793689124131475,
$currentCorrectResponse,$currentGoStim,,,,,,,,,2,0,2,0,8,3,35,0,,,,,,,,,3665.1224438101053,stop,squareblack.png,right,0.5,,,,,,,,,,,,,,,,0.001698177307844162,0.48973872512578964,0.9899633787572384,3667.6250939927995,test,3,,,,,,,,,3665.1414651349187,3665.6547287516296,3665.6379669606686,3665.6379669606686,3666.138581622392,3666.6391732543707,3666.6391732543707,3667.644488170743,None,0,0.55,,,,,,,,,,,,s009,001,2024-07-12_15h45.17.522,simplestop_skeleton,2022.2.2,59.793689124131475,
None,None,,,,,,,,,2,0,2,0,9,0,36,2,,,,,,,,,3667.6255310848355,go,circleblack.png,left,0.55,,,,,,,,,,,,,,,,0.0019328705966472626,0.4894059747457504,,3670.127767007798,test,3,,,,,,,,,3667.644488170743,3668.1575639918447,3668.141349930316,3668.141349930316,3668.6915793679655,3669.1908886246383,3669.1411894857883,3670.1471593789756,left,1,0.55,0.6754425391554832,,,,,,,,,,,s009,001,2024-07-12_15h45.17.522,simplestop_skeleton,2022.2.2,59.793689124131475,
None,None,,,,,,,,,2,0,2,0,9,1,37,1,,,,,,,,,3670.1282089576125,go,squareblack.png,right,0.55,,,,,,,,,,,,,,,,0.001766011118888855,0.48932846263051033,,3672.6303476840258,test,3,,,,,,,,,3670.1471593789756,3670.660270765424,3670.6437665484846,3670.6437665484846,3671.19453773275,3671.6949153728783,3671.6451088152826,3672.649235405028,right,1,0.55,0.7630484998226166,,,,,,,,,,,s009,001,2024-07-12_15h45.17.522,simplestop_skeleton,2022.2.2,59.793689124131475,
None,None,,,,,,,,,2,0,2,0,9,2,38,3,,,,,,,,,3672.6308001056314,go,squareblack.png,right,0.55,,,,,,,,,,,,,,,,0.0012560449540615082,0.48981497064232826,,3675.1334909386933,test,3,,,,,,,,,3672.649235405028,3673.1633016243577,3673.1464036405087,3673.1464036405087,3673.696900434792,3674.1966714672744,3674.1475799679756,3675.152301080525,right,1,0.55,0.7280714027583599,,,,,,,,,,,s009,001,2024-07-12_15h45.17.522,simplestop_skeleton,2022.2.2,59.793689124131475,
$currentCorrectResponse,$currentGoStim,,,,,,,,,2,0,2,0,9,3,39,0,,,,,,,,,3675.133939653635,go,squareblack.png,right,0.55,,,,,,,,,,,,,,,,0.0013306885957717896,0.48938462138175964,,3677.6359026134014,test,3,,,,,,,,,3675.152301080525,3675.665765617043,3675.6491935141385,3675.6491935141385,3676.199746865779,3676.700408667326,3676.65063790977,3677.654632896185,right,1,0.55,0.7756025083363056,,,,,,,,,,,s009,001,2024-07-12_15h45.17.522,simplestop_skeleton,2022.2.2,59.793689124131475,
None,None,,,,,,,,,2,0,2,0,10,0,40,1,,,,,,,,,3677.6363483704627,stop,squareblack.png,right,0.55,,,,,,,,,,,,,,,,0.0012410171329975128,0.48982684686779976,1.0407184176146984,3680.1387856937945,test,3,,,,,,,,,3677.654632896185,3678.1686881780624,3678.151968561113,3678.151968561113,3678.7025570832193,3679.2033556625247,3679.153148598969,3680.1581753902137,right,1,0.5,0.4014190137386322,,,,,,,,,,,s009,001,2024-07-12_15h45.17.522,simplestop_skeleton,2022.2.2,59.793689124131475,
None,None,,,,,,,,,2,0,2,0,10,1,41,1,,,,,,,,,3680.1392257101834,stop,circleblack.png,left,0.5,,,,,,,,,,,,,,,,0.001953989267349243,0.4895957335829735,0.9904153756797314,3682.641754478216,test,3,,,,,,,,,3680.1581753902137,3680.6715480722487,3680.654825191945,3680.654825191945,3681.1552842371166,3681.6559934690595,3681.6559934690595,3682.6613219231367,None,0,0.55,,,,,,,,,,,,s009,001,2024-07-12_15h45.17.522,simplestop_skeleton,2022.2.2,59.793689124131475,
None,None,,,,,,,,,2,0,2,0,10,2,42,3,,,,,,,,,3682.64219301939,go,squareblack.png,right,0.55,,,,,,,,,,,,,,,,0.0018038302659988403,0.4893283471465111,,3685.144088961184,test,3,,,,,,,,,3682.6613219231367,3683.1739468872547,3683.157243195921,3683.157243195921,3683.7079344168305,3684.2084508128464,3684.158557318151,3685.163519024849,right,1,0.55,0.8901799321174622,,,,,,,,,,,s009,001,2024-07-12_15h45.17.522,simplestop_skeleton,2022.2.2,59.793689124131475,
None,None,,,,,,,,,2,0,2,0,10,3,43,2,,,,,,,,,3685.144528966397,stop,circleblack.png,left,0.55,,,,,,,,,,,,,,,,0.001876581460237503,0.4894573837518692,1.0400409065186977,3687.6469184830785,test,3,,,,,,,,,3685.163519024849,3685.6768331229687,3685.6602001301944,3685.6602001301944,3686.210816103965,3686.710084505379,3686.6610838137567,3687.6662604622543,left,1,0.5,0.6947221159934998,,,,,,,,,,,s009,001,2024-07-12_15h45.17.522,simplestop_skeleton,2022.2.2,59.793689124131475,
$currentCorrectResponse,$currentGoStim,,,,,,,,,2,0,2,0,11,0,44,0,,,,,,,,,3687.647343609482,go,circleblack.png,left,0.5,,,,,,,,,,,,,,,,0.0013666637241840363,0.4895550236105919,,3690.150026578456,test,3,,,,,,,,,3687.6662604622543,3688.179855681956,3688.16285572201,3688.16285572201,3688.6636146195233,3689.1644660159945,3689.1644660159945,3690.168968845159,left,1,0.5,0.828037153929472,,,,,,,,,,,s009,001,2024-07-12_15h45.17.522,simplestop_skeleton,2022.2.2,59.793689124131475,
$currentCorrectResponse,$currentGoStim,,,,,,,,,2,0,2,0,11,1,45,0,,,,,,,,,3690.150467570871,go,circleblack.png,left,0.5,,,,,,,,,,,,,,,,0.0014231689274311066,0.4897433631122112,,3692.6523798257113,test,3,,,,,,,,,3690.168968845159,3690.6825701370835,3690.6657425016165,3690.6657425016165,3691.166570197791,3691.6667692251503,3691.6667692251503,3692.6716644391418,left,1,0.5,0.8149225823581219,,,,,,,,,,,s009,001,2024-07-12_15h45.17.522,simplestop_skeleton,2022.2.2,59.793689124131475,
None,None,,,,,,,,,2,0,2,0,11,2,46,2,,,,,,,,,3692.652806468308,go,circleblack.png,left,0.5,,,,,,,,,,,,,,,,0.0013587363064289093,0.4901248775422573,,3695.155718229711,test,3,,,,,,,,,3692.6716644391418,3693.1853714324534,3693.1687738746405,3693.1687738746405,3693.6690813079476,3694.169774841517,3694.169774841517,3695.1754427179694,left,1,0.5,0.7856999337673187,,,,,,,,,,,s009,001,2024-07-12_15h45.17.522,simplestop_skeleton,2022.2.2,59.793689124131475,
$currentCorrectResponse,$currentGoStim,,,,,,,,,2,0,2,0,11,3,47,0,,,,,,,,,3695.156144823879,stop,squareblack.png,right,0.5,,,,,,,,,,,,,,,,0.0018972568213939667,0.48895079270005226,0.9897782653570175,3697.6580174192786,test,3,,,,,,,,,3695.1754427179694,3695.6882529370487,3695.671342767775,3695.671342767775,3696.172148182988,3696.6726686432958,3696.6726686432958,3697.6736158318818,None,0,0.55,,,,,,,,,,,,s009,001,2024-07-12_15h45.17.522,simplestop_skeleton,2022.2.2,59.793689124131475,
