corrGoResp,shape,practiceBlocks.thisRepN,practiceBlocks.thisTrialN,practiceBlocks.thisN,practiceBlocks.thisIndex,practiceTrials.thisRepN,practiceTrials.thisTrialN,practiceTrials.thisN,practiceTrials.thisIndex,stopBlocks.thisRepN,stopBlocks.thisTrialN,stopBlocks.thisN,stopBlocks.thisIndex,testTrials.thisRepN,testTrials.thisTrialN,testTrials.thisN,testTrials.thisIndex,stopPracTrialList,Test Block: 1,welcome.started,start_exp.started,start_exp.keys,start_exp.rt,instrStopText.started,start_prac.started,StartTrialTimeStamp,trialType,goStim,correctResponse,ssd,fixation.started,rules.started,goStim.started,goResp.started,fixation.stopped,stopSignal.started,stopSignal.stopped,goStim.stopped,goResp.stopped,rules.stopped,goResp.keys,goResp.corr,text.started,rules_2.started,fixationOnset,goStimOnset,stopSignalOnset,EndTrialTimeStamp,Phase,Block,goResp.rt,text.stopped,rules_2.stopped,text_5.started,key_resp_3.started,key_resp_3.keys,key_resp_3.rt,key_resp.started,testText.started,test_fixation.started,goStim_test.started,goResp_test.started,test_fixation.stopped,stopSignal_test.started,stopSignal_test.stopped,goStim_test.stopped,goResp_test.stopped,goResp_test.keys,goResp_test.corr,goResp_test.rt,EndingSSD,text_6.started,key_resp_4.started,key_resp_4.keys,key_resp_4.rt,Test Block: 2,Test Block: 3,ending_text.started,end_resp.started,end_resp.keys,end_resp.rt,participant,session,date,expName,psychopyVersion,frameRate,
,,,,,,,,,,,,,,,,,,"[{'fileName': 'squareblack.png', 'correct_response': 'right', 'condition': 'go'}, {'fileName': 'squareblack.png', 'correct_response': 'right', 'condition': 'stop'}, {'fileName': 'circleblack.png', 'correct_response': 'left', 'condition': 'go'}, {'fileName': 'squareblack.png', 'correct_response': 'right', 'condition': 'go'}, {'fileName': 'squareblack.png', 'correct_response': 'right', 'condition': 'stop'}, {'fileName': 'squareblack.png', 'correct_response': 'right', 'condition': 'go'}, {'fileName': 'circleblack.png', 'correct_response': 'left', 'condition': 'stop'}, {'fileName': 'circleblack.png', 'correct_response': 'left', 'condition': 'go'}, {'fileName': 'circleblack.png', 'correct_response': 'left', 'condition': 'stop'}, {'fileName': 'circleblack.png', 'correct_response': 'left', 'condition': 'go'}, {'fileName': 'circleblack.png', 'correct_response': 'left', 'condition': 'go'}, {'fileName': 'squareblack.png', 'correct_response': 'right', 'condition': 'go'}, {'fileName': 'squareblack.png', 'correct_response': 'right', 'condition': 'stop'}, {'fileName': 'squareblack.png', 'correct_response': 'right', 'condition': 'go'}, {'fileName': 'squareblack.png', 'correct_response': 'right', 'condition': 'go'}, {'fileName': 'circleblack.png', 'correct_response': 'left', 'condition': 'go'}, {'fileName': 'circleblack.png', 'correct_response': 'left', 'condition': 'go'}, {'fileName': 'circleblack.png', 'correct_response': 'left', 'condition': 'stop'}, {'fileName': 'squareblack.png', 'correct_response': 'right', 'condition': 'go'}, {'fileName': 'circleblack.png', 'correct_response': 'left', 'condition': 'stop'}, {'fileName': 'circleblack.png', 'correct_response': 'left', 'condition': 'go'}, {'fileName': 'squareblack.png', 'correct_response': 'right', 'condition': 'stop'}, {'fileName': 'squareblack.png', 'correct_response': 'right', 'condition': 'go'}, {'fileName': 'circleblack.png', 'correct_response': 'left', 'condition': 'go'}]","[{'fileName': 'squareblack.png', 'correct_response': 'right', 'condition': 'go'}, {'fileName': 'squareblack.png', 'correct_response': 'right', 'condition': 'stop'}, {'fileName': 'squareblack.png', 'correct_response': 'right', 'condition': 'stop'}, {'fileName': 'squareblack.png', 'correct_response': 'right', 'condition': 'go'}, {'fileName': 'circleblack.png', 'correct_response': 'left', 'condition': 'stop'}, {'fileName': 'circleblack.png', 'correct_response': 'left', 'condition': 'go'}, {'fileName': 'squareblack.png', 'correct_response': 'right', 'condition': 'go'}, {'fileName': 'circleblack.png', 'correct_response': 'left', 'condition': 'go'}, {'fileName': 'circleblack.png', 'correct_response': 'left', 'condition': 'stop'}, {'fileName': 'circleblack.png', 'correct_response': 'left', 'condition': 'go'}, {'fileName': 'circleblack.png', 'correct_response': 'left', 'condition': 'go'}, {'fileName': 'squareblack.png', 'correct_response': 'right', 'condition': 'go'}, {'fileName': 'squareblack.png', 'correct_response': 'right', 'condition': 'stop'}, {'fileName': 'squareblack.png', 'correct_response': 'right', 'condition': 'stop'}, {'fileName': 'squareblack.png', 'correct_response': 'right', 'condition': 'go'}, {'fileName': 'circleblack.png', 'correct_response': 'left', 'condition': 'go'}, {'fileName': 'squareblack.png', 'correct_response': 'right', 'condition': 'go'}, {'fileName': 'squareblack.png', 'correct_response': 'right', 'condition': 'go'}, {'fileName': 'circleblack.png', 'correct_response': 'left', 'condition': 'go'}, {'fileName': 'circleblack.png', 'correct_response': 'left', 'condition': 'go'}, {'fileName': 'squareblack.png', 'correct_response': 'right', 'condition': 'go'}, {'fileName': 'circleblack.png', 'correct_response': 'left', 'condition': 'stop'}, {'fileName': 'circleblack.png', 'correct_response': 'left', 'condition': 'go'}, {'fileName': 'circleblack.png', 'correct_response': 'left', 'condition': 'stop'}, {'fileName': 'squareblack.png', 'correct_response': 'right', 'condition': 'stop'}, {'fileName': 'circleblack.png', 'correct_response': 'left', 'condition': 'go'}, {'fileName': 'squareblack.png', 'correct_response': 'right', 'condition': 'stop'}, {'fileName': 'circleblack.png', 'correct_response': 'left', 'condition': 'go'}, {'fileName': 'circleblack.png', 'correct_response': 'left', 'condition': 'go'}, {'fileName': 'circleblack.png', 'correct_response': 'left', 'condition': 'stop'}, {'fileName': 'circleblack.png', 'correct_response': 'left', 'condition': 'stop'}, {'fileName': 'squareblack.png', 'correct_response': 'right', 'condition': 'go'}, {'fileName': 'squareblack.png', 'correct_response': 'right', 'condition': 'go'}, {'fileName': 'squareblack.png', 'correct_response': 'right', 'condition': 'go'}, {'fileName': 'squareblack.png', 'correct_response': 'right', 'condition': 'go'}, {'fileName': 'circleblack.png', 'correct_response': 'left', 'condition': 'go'}, {'fileName': 'circleblack.png', 'correct_response': 'left', 'condition': 'stop'}, {'fileName': 'squareblack.png', 'correct_response': 'right', 'condition': 'stop'}, {'fileName': 'circleblack.png', 'correct_response': 'left', 'condition': 'stop'}, {'fileName': 'squareblack.png', 'correct_response': 'right', 'condition': 'go'}, {'fileName': 'circleblack.png', 'correct_response': 'left', 'condition': 'go'}, {'fileName': 'circleblack.png', 'correct_response': 'left', 'condition': 'go'}, {'fileName': 'squareblack.png', 'correct_response': 'right', 'condition': 'go'}, {'fileName': 'squareblack.png', 'correct_response': 'right', 'condition': 'go'}, {'fileName': 'circleblack.png', 'correct_response': 'left', 'condition': 'go'}, {'fileName': 'circleblack.png', 'correct_response': 'left', 'condition': 'go'}, {'fileName': 'squareblack.png', 'correct_response': 'right', 'condition': 'stop'}, {'fileName': 'squareblack.png', 'correct_response': 'right', 'condition': 'go'}]",356.1074497811496,356.1074497811496,return,1.6848565004765987,,,,,,,,,,,,,,,,,,,,,,,,,,,,,,,,,,,,,,,,,,,,,,,,,,,,,,,,,,,s024,001,2024-08-05_09h20.22.529,simplestop_skeleton,2022.2.2,60.14871620739568,
$currentCorrectResponse,$currentGoStim,0,0,0,0,0,0,0,0,,,,,,,,,,,,,,,357.833563875407,357.833563875407,463.6228817105293,go,squareblack.png,right,0.35,463.6464786976576,463.6464786976576,464.13479095697403,464.13479095697403,464.15197851136327,464.4855307638645,464.9858516007662,465.13612846285105,466.13720804080367,466.15623857080936,None,0,466.15623857080936,466.15623857080936,0.002743825316429138,0.4853033013641834,0.835789330303669,466.6554608680308,practice,1,,,,,,,,,,,,,,,,,,,,,,,,,,,,,,,,s024,001,2024-08-05_09h20.22.529,simplestop_skeleton,2022.2.2,60.14871620739568,
$currentCorrectResponse,$currentGoStim,0,0,0,0,0,1,1,0,,,,,,,,,,,,,,,,,466.6559936031699,stop,squareblack.png,right,0.35,466.6752159073949,466.6752159073949,467.17188921943307,467.17188921943307,467.1882034242153,467.52211690321565,468.0215568691492,468.1713220439851,469.17218493297696,469.18903183564544,right,1,469.18903183564544,469.18903183564544,0.0012922585010528564,0.4895894043147564,0.8399390354752541,469.6737567894161,practice,1,0.47309141606092453,,,,,,,,,,,,,,,,,,,,,,,,,,,,,,,s024,001,2024-08-05_09h20.22.529,simplestop_skeleton,2022.2.2,60.14871620739568,
None,None,0,0,0,0,0,2,2,3,,,,,,,,,,,,,,,,,469.6741889975965,go,circleblack.png,left,0.3,469.6976618357003,469.6976618357003,470.190050534904,470.190050534904,470.2067582421005,470.4903165772557,470.99091812595725,471.1911815106869,472.19225234538317,472.2089825235307,left,1,472.2089825235307,472.2089825235307,0.008086081594228745,0.4899190403521061,0.7901954054832458,472.69375532120466,practice,1,0.4128170423209667,,,,,,,,,,,,,,,,,,,,,,,,,,,,,,,s024,001,2024-08-05_09h20.22.529,simplestop_skeleton,2022.2.2,60.14871620739568,
None,None,0,0,0,0,0,3,3,1,,,,,,,,,,,,,,,,,472.69418505579233,go,squareblack.png,right,0.3,472.7120082266629,472.7120082266629,473.2100423723459,473.2100423723459,473.2266688682139,473.51044081896544,474.0108819119632,474.21146089956164,475.2122111655772,475.2122111655772,right,1,475.2122111655772,475.2122111655772,0.0017386674880981445,0.4899980463087559,0.7902170494198799,475.69700641557574,practice,1,0.350836843252182,475.7147761322558,475.7147761322558,,,,,,,,,,,,,,,,,,,,,,,,,,,,,s024,001,2024-08-05_09h20.22.529,simplestop_skeleton,2022.2.2,60.14871620739568,
None,None,0,0,0,0,1,0,4,2,,,,,,,,,,,,,,,,,475.6974621601403,stop,squareblack.png,right,0.3,475.7147761322558,475.7147761322558,476.213509503752,476.213509503752,476.23015097901225,476.5136684179306,477.0142614431679,477.2167018428445,478.21569579839706,478.21569579839706,right,1,478.21569579839706,478.21569579839706,0.0012370198965072632,0.49014704674482346,0.790292289108038,478.70060474425554,practice,1,0.3871281370520592,478.71875789761543,478.71875789761543,,,,,,,,,,,,,,,,,,,,,,,,,,,,,s024,001,2024-08-05_09h20.22.529,simplestop_skeleton,2022.2.2,60.14871620739568,
$currentCorrectResponse,$currentGoStim,0,0,0,0,1,1,5,0,,,,,,,,,,,,,,,,,478.7010617442429,go,squareblack.png,right,0.25,478.71875789761543,478.71875789761543,479.21687238663435,479.21687238663435,479.2335198074579,479.46696258336306,479.96749091520905,480.2184398211539,481.2189635038376,481.2189635038376,right,1,481.2189635038376,481.2189635038376,0.0011745616793632507,0.4889743812382221,0.739057183265686,481.7036818638444,practice,1,0.6063189283013344,481.722812179476,481.722812179476,,,,,,,,,,,,,,,,,,,,,,,,,,,,,s024,001,2024-08-05_09h20.22.529,simplestop_skeleton,2022.2.2,60.14871620739568,
None,None,0,0,0,0,1,2,6,1,,,,,,,,,,,,,,,,,481.7041058242321,stop,circleblack.png,left,0.25,481.722812179476,481.722812179476,482.2201816365123,482.2201816365123,482.236848462373,482.4705402739346,482.97089960053563,483.2211260981858,484.22217770293355,484.22217770293355,None,0,484.22217770293355,484.22217770293355,0.0025081858038902283,0.49021636694669724,0.740407407283783,484.7071581929922,practice,1,,484.72638608142734,484.72638608142734,,,,,,,,,,,,,,,,,,,,,,,,,,,,,s024,001,2024-08-05_09h20.22.529,simplestop_skeleton,2022.2.2,60.14871620739568,
None,None,0,0,0,0,1,3,7,3,,,,,,,,,,,,,,,,,484.70758267119527,go,circleblack.png,left,0.3,484.72638608142734,484.72638608142734,485.2233993895352,485.2233993895352,485.24004830792546,485.52381409332156,486.0241747498512,486.22438759356737,487.2254346124828,487.2254346124828,left,1,487.2254346124828,487.2254346124828,0.0014710091054439545,0.4890005514025688,0.7893698997795582,487.71026223525405,practice,1,0.48469431698322296,487.72826167568564,487.72826167568564,,,,,,,,,,,,,,,,,,,,,,,,,,,,,s024,001,2024-08-05_09h20.22.529,simplestop_skeleton,2022.2.2,60.14871620739568,
None,None,0,0,0,0,2,0,8,2,,,,,,,,,,,,,,,,,487.71078821644187,stop,circleblack.png,left,0.3,487.72826167568564,487.72826167568564,488.2267256490886,488.2267256490886,488.2435038499534,488.5272627286613,489.02750469371676,489.22772623226047,490.22885239496827,490.22885239496827,None,0,490.22885239496827,490.22885239496827,0.0015659332275390625,0.49007242918014526,0.79042898863554,490.7136556468904,practice,1,,490.73126385733485,490.73126385733485,,,,,,,,,,,,,,,,,,,,,,,,,,,,,s024,001,2024-08-05_09h20.22.529,simplestop_skeleton,2022.2.2,60.14871620739568,
None,None,0,0,0,0,2,1,9,2,,,,,,,,,,,,,,,,,490.71411088854074,go,circleblack.png,left,0.35,490.73126385733485,490.73126385733485,491.2300771996379,491.2300771996379,491.24666852504015,491.58054288476706,492.08092511817813,492.23097122088075,493.2323507927358,493.2323507927358,left,1,493.2323507927358,493.2323507927358,0.0012381747364997864,0.4899710789322853,0.8405367285013199,493.71685587987304,practice,1,0.6946849524974823,493.74837458506227,493.74837458506227,,,,,,,,,,,,,,,,,,,,,,,,,,,,,s024,001,2024-08-05_09h20.22.529,simplestop_skeleton,2022.2.2,60.14871620739568,
$currentCorrectResponse,$currentGoStim,0,0,0,0,2,2,10,0,,,,,,,,,,,,,,,,,493.7173024378717,go,circleblack.png,left,0.35,493.74837458506227,493.74837458506227,494.2341999858618,494.2341999858618,494.2508789822459,494.58546455577016,495.1007745862007,495.2342690862715,496.2372718974948,496.2539576180279,left,1,496.2539576180279,496.2539576180279,0.0012243054807186127,0.49139056727290154,0.8422802202403545,496.7532667480409,practice,1,0.4600895680487156,,,,,,,,,,,,,,,,,,,,,,,,,,,,,,,s024,001,2024-08-05_09h20.22.529,simplestop_skeleton,2022.2.2,60.14871620739568,
None,None,0,0,0,0,2,3,11,3,,,,,,,,,,,,,,,,,496.75368751212955,go,squareblack.png,right,0.35,496.77569384127855,496.77569384127855,497.2698360607028,497.2698360607028,497.2865515090525,497.6213980987668,498.12101654708385,498.27098143845797,499.2729476802051,499.2900051176548,right,1,499.2900051176548,499.2900051176548,0.007113002240657806,0.4904355853796005,0.8420438803732395,499.7739786282182,practice,1,0.43487127125263214,499.7926109917462,499.7926109917462,,,,,,,,,,,,,,,,,,,,,,,,,,,,,s024,001,2024-08-05_09h20.22.529,simplestop_skeleton,2022.2.2,60.14871620739568,
None,None,0,0,0,0,3,0,12,3,,,,,,,,,,,,,,,,,499.7744231671095,stop,squareblack.png,right,0.35,499.7926109917462,499.7926109917462,500.28988068923354,500.28988068923354,500.3066334351897,500.64031126350164,501.14099334180355,501.2911028191447,502.29216101393104,502.29216101393104,right,1,502.29216101393104,502.29216101393104,0.0012635216116905212,0.4891390688717365,0.8394916728138924,502.7770708054304,practice,1,0.3853483647108078,,,,,,,,,,,,,,,,,,,,,,,,,,,,,,,s024,001,2024-08-05_09h20.22.529,simplestop_skeleton,2022.2.2,60.14871620739568,
None,None,0,0,0,0,3,1,13,1,,,,,,,,,,,,,,,,,502.77759873867035,go,squareblack.png,right,0.3,502.79612302035093,502.79612302035093,503.29322953149676,503.29322953149676,503.3099847212434,503.593653883785,504.0942384414375,504.29450261592865,505.29590310528874,505.29590310528874,left,0,505.29590310528874,505.29590310528874,0.0013338811695575714,0.4890303276479244,0.789419274777174,505.7809262536466,practice,1,0.4979671500623226,,,,,,,,,,,,,,,,,,,,,,,,,,,,,,,s024,001,2024-08-05_09h20.22.529,simplestop_skeleton,2022.2.2,60.14871620739568,
None,None,0,0,0,0,3,2,14,1,,,,,,,,,,,,,,,,,505.78157499432564,go,squareblack.png,right,0.3,505.80185328796506,505.80185328796506,506.2964861318469,506.2964861318469,506.3131956756115,506.5968962237239,507.0976485647261,507.2977837473154,508.29872700199485,508.3154844865203,right,1,508.3154844865203,508.3154844865203,0.00218779593706131,0.4866509325802326,0.7870135866105556,508.80040780827403,practice,1,0.41596754267811775,,,,,,,,,,,,,,,,,,,,,,,,,,,,,,,s024,001,2024-08-05_09h20.22.529,simplestop_skeleton,2022.2.2,60.14871620739568,
$currentCorrectResponse,$currentGoStim,0,0,0,0,3,3,15,0,,,,,,,,,,,,,,,,,508.80085983127356,go,circleblack.png,left,0.3,508.8243650868535,508.8243650868535,509.3165310807526,509.3165310807526,509.33314226940274,509.6169367209077,510.1179255582392,510.3177390098572,511.3189306668937,511.3355985842645,left,1,511.3355985842645,511.3355985842645,0.007970154285430908,0.4895685315132141,0.7898443751037121,511.8203229010105,practice,1,0.6457192301750183,511.8385783098638,511.8385783098638,,,,,,,,,,,,,,,,,,,,,,,,,,,,,s024,001,2024-08-05_09h20.22.529,simplestop_skeleton,2022.2.2,60.14871620739568,
None,None,0,0,0,0,4,0,16,2,,,,,,,,,,,,,,,,,511.82076231762767,go,circleblack.png,left,0.3,511.8385783098638,511.8385783098638,512.3365954756737,512.3365954756737,512.3532036095858,512.6369138434529,513.1374019607902,513.3378250561655,514.338651444763,514.338651444763,left,1,514.338651444763,514.338651444763,0.0013994239270687103,0.48959187790751457,0.7900957725942135,514.8244239091873,practice,1,0.6912806853652,,,,,,,,,,,,,,,,,,,,,,,,,,,,,,,s024,001,2024-08-05_09h20.22.529,simplestop_skeleton,2022.2.2,60.14871620739568,
None,None,0,0,0,0,4,1,17,1,,,,,,,,,,,,,,,,,514.8248557932675,stop,circleblack.png,left,0.3,514.8435348756611,514.8435348756611,515.3416749797761,515.3416749797761,515.3567583411932,515.6401447020471,516.1406993754208,516.3410354331136,517.3420481868088,517.3587373308837,left,1,517.3587373308837,517.3587373308837,0.001543242484331131,0.49075518175959587,0.7891378365457058,517.8434277325869,practice,1,0.48455090820789337,517.8633163943887,517.8633163943887,,,,,,,,,,,,,,,,,,,,,,,,,,,,,s024,001,2024-08-05_09h20.22.529,simplestop_skeleton,2022.2.2,60.14871620739568,
None,None,0,0,0,0,4,2,18,3,,,,,,,,,,,,,,,,,517.8438418991864,go,squareblack.png,right,0.25,517.8633163943887,517.8633163943887,518.3600341007113,518.3600341007113,518.3766891881824,518.610306058079,519.1111874245107,519.3610632307827,520.3619845993817,520.3788236863911,right,1,520.3788236863911,520.3788236863911,0.0035653263330459595,0.4900776334106922,0.7402249984443188,520.8639705553651,practice,1,0.4311637170612812,,,,,,,,,,,,,,,,,,,,,,,,,,,,,,,s024,001,2024-08-05_09h20.22.529,simplestop_skeleton,2022.2.2,60.14871620739568,
None,None,0,0,0,0,4,3,19,1,,,,,,,,,,,,,,,,,520.8643907271326,stop,circleblack.png,left,0.25,520.8836224004626,520.8836224004626,521.3800320886075,521.3800320886075,521.3968615494668,521.6300985589623,522.1305752247572,522.3808763809502,523.3820448704064,523.3986838385463,None,0,523.3986838385463,523.3986838385463,0.0017272457480430603,0.48935841396450996,0.7398095205426216,523.8835432082415,practice,1,,523.9149891063571,523.9149891063571,,,,,,,,,,,,,,,,,,,,,,,,,,,,,s024,001,2024-08-05_09h20.22.529,simplestop_skeleton,2022.2.2,60.14871620739568,
None,None,0,0,0,0,5,0,20,2,,,,,,,,,,,,,,,,,523.8839580118656,go,circleblack.png,left,0.3,523.9149891063571,523.9149891063571,524.3999286144972,524.3999286144972,524.4165766611695,524.7005222961307,525.2008053846657,525.4008326716721,526.4022415801883,526.4188821353018,left,1,526.4188821353018,526.4188821353018,0.0012226440012454987,0.49030235037207603,0.7908865623176098,526.9034278616309,practice,1,0.5775889605283737,526.9266928397119,526.9266928397119,,,,,,,,,,,,,,,,,,,,,,,,,,,,,s024,001,2024-08-05_09h20.22.529,simplestop_skeleton,2022.2.2,60.14871620739568,
None,None,0,0,0,0,5,1,21,3,,,,,,,,,,,,,,,,,526.9038510657847,stop,squareblack.png,right,0.3,526.9266928397119,526.9266928397119,527.4199625886977,527.4199625886977,527.4365588836372,527.7202684953809,528.220719628036,528.4209513701499,529.4239818751812,529.4407540671527,None,0,529.4407540671527,529.4407540671527,0.00741041824221611,0.49010230600833893,0.7905823327600956,529.940210159868,practice,1,,,,,,,,,,,,,,,,,,,,,,,,,,,,,,,,s024,001,2024-08-05_09h20.22.529,simplestop_skeleton,2022.2.2,60.14871620739568,
$currentCorrectResponse,$currentGoStim,0,0,0,0,5,2,22,0,,,,,,,,,,,,,,,,,529.9406603351235,go,squareblack.png,right,0.35,529.9572613351047,529.9572613351047,530.456530585885,530.456530585885,530.456530585885,530.8070189505816,531.3074961826205,531.4575923494995,532.4608316496015,532.4608316496015,right,1,532.4608316496015,532.4608316496015,0.0011666268110275269,0.49018290638923645,0.8405443578958511,532.9599222131073,practice,1,0.48069414868950844,,,,,,,,,,,,,,,,,,,,,,,,,,,,,,,s024,001,2024-08-05_09h20.22.529,simplestop_skeleton,2022.2.2,60.14871620739568,
None,None,0,0,0,0,5,3,23,2,,,,,,,,,,,,,,,,,532.9603710919619,go,circleblack.png,left,0.35,532.9782820157707,532.9782820157707,533.4764871299267,533.4764871299267,533.4931741096079,533.8269360437989,534.3276172056794,534.4777773804963,535.4798556007445,535.4798556007445,left,1,535.4798556007445,535.4798556007445,0.0018393844366073608,0.4902728833258152,0.8407008424401283,535.9654897712171,practice,1,0.5562799535691738,535.9830538928509,535.9830538928509,,,,,,,,,,,,,,,,,,,,,,,,,,,,,s024,001,2024-08-05_09h20.22.529,simplestop_skeleton,2022.2.2,60.14871620739568,
,,0,0,0,0,,,,,,,,,,,,,"[{'fileName': 'circleblack.png', 'correct_response': 'left', 'condition': 'go'}, {'fileName': 'circleblack.png', 'correct_response': 'left', 'condition': 'stop'}, {'fileName': 'squareblack.png', 'correct_response': 'right', 'condition': 'go'}, {'fileName': 'squareblack.png', 'correct_response': 'right', 'condition': 'go'}, {'fileName': 'squareblack.png', 'correct_response': 'right', 'condition': 'go'}, {'fileName': 'circleblack.png', 'correct_response': 'left', 'condition': 'stop'}, {'fileName': 'circleblack.png', 'correct_response': 'left', 'condition': 'go'}, {'fileName': 'squareblack.png', 'correct_response': 'right', 'condition': 'stop'}, {'fileName': 'circleblack.png', 'correct_response': 'left', 'condition': 'go'}, {'fileName': 'squareblack.png', 'correct_response': 'right', 'condition': 'stop'}, {'fileName': 'circleblack.png', 'correct_response': 'left', 'condition': 'go'}, {'fileName': 'squareblack.png', 'correct_response': 'right', 'condition': 'go'}, {'fileName': 'squareblack.png', 'correct_response': 'right', 'condition': 'go'}, {'fileName': 'circleblack.png', 'correct_response': 'left', 'condition': 'go'}, {'fileName': 'circleblack.png', 'correct_response': 'left', 'condition': 'go'}, {'fileName': 'squareblack.png', 'correct_response': 'right', 'condition': 'stop'}, {'fileName': 'circleblack.png', 'correct_response': 'left', 'condition': 'stop'}, {'fileName': 'squareblack.png', 'correct_response': 'right', 'condition': 'stop'}, {'fileName': 'squareblack.png', 'correct_response': 'right', 'condition': 'go'}, {'fileName': 'circleblack.png', 'correct_response': 'left', 'condition': 'stop'}, {'fileName': 'circleblack.png', 'correct_response': 'left', 'condition': 'go'}, {'fileName': 'squareblack.png', 'correct_response': 'right', 'condition': 'go'}, {'fileName': 'circleblack.png', 'correct_response': 'left', 'condition': 'go'}, {'fileName': 'squareblack.png', 'correct_response': 'right', 'condition': 'go'}]",,,,,,,,,,,,,,,,,,,,,,,,,,,,,,,,,,,,535.9830538928509,535.9830538928509,return,14.341594886034727,,,,,,,,,,,,,,,,,,,,,,,,,s024,001,2024-08-05_09h20.22.529,simplestop_skeleton,2022.2.2,60.14871620739568,
None,None,,,,,,,,,0,0,0,0,0,0,0,3,,,,,,,,,564.4130266904831,go,squareblack.png,right,0.35,,,,,,,,,,,,,,,0.0023809894919395447,0.4888964891433716,,566.9160737358034,test,1,,,,,,,,550.346906106919,550.346906106919,564.4341401793063,564.9294248186052,564.9294248186052,564.9459549412131,565.2798513583839,565.78033253178,565.9309108145535,566.9353368878365,right,1,0.5295345708727837,0.35,,,,,,,,,,,s024,001,2024-08-05_09h20.22.529,simplestop_skeleton,2022.2.2,60.14871620739568,
$currentCorrectResponse,$currentGoStim,,,,,,,,,0,0,0,0,0,1,1,0,,,,,,,,,566.9166081175208,stop,squareblack.png,right,0.35,,,,,,,,,,,,,,,0.001350264996290207,0.48945964500308037,0.8403446115553379,569.4174911528826,test,1,,,,,,,,,,566.9353368878365,567.4320619292557,567.4320619292557,567.4489373974502,567.7830178551376,568.2984082140028,568.432145498693,569.434661950916,right,1,0.3351774588227272,0.3,,,,,,,,,,,s024,001,2024-08-05_09h20.22.529,simplestop_skeleton,2022.2.2,60.14871620739568,
None,None,,,,,,,,,0,0,0,0,0,2,2,3,,,,,,,,,569.4179268106818,stop,squareblack.png,right,0.3,,,,,,,,,,,,,,,0.0011883378028869629,0.48950762301683426,0.7899321801960468,571.9212716110051,test,1,,,,,,,,,,569.434661950916,569.9336079582572,569.9336079582572,569.9502571187913,570.2342195287347,570.7342213466763,570.9345546327531,571.9395523481071,right,1,0.40343911573290825,0.25,,,,,,,,,,,s024,001,2024-08-05_09h20.22.529,simplestop_skeleton,2022.2.2,60.14871620739568,
$currentCorrectResponse,$currentGoStim,,,,,,,,,0,0,0,0,0,3,3,0,,,,,,,,,571.9217601418495,go,squareblack.png,right,0.25,,,,,,,,,,,,,,,0.001633182168006897,0.4876245819032192,,574.4239366650581,test,1,,,,,,,,,,571.9395523481071,572.4361461214721,572.4361461214721,572.4529057666659,572.6864020973444,573.1873347125947,573.4374344721437,574.4433768801391,right,1,0.5791132748126984,0.25,,,,,,,,,,,s024,001,2024-08-05_09h20.22.529,simplestop_skeleton,2022.2.2,60.14871620739568,
None,None,,,,,,,,,0,0,0,0,1,0,4,1,,,,,,,,,574.4243851751089,stop,circleblack.png,left,0.25,,,,,,,,,,,,,,,0.004521626979112625,0.4904945492744446,0.7390813082456589,576.9261646457016,test,1,,,,,,,,,,574.4433768801391,574.9409426935017,574.9409426935017,574.957477517426,575.1893030367792,575.6897742412984,575.9400614835322,576.9433938637376,None,0,,0.3,,,,,,,,,,,s024,001,2024-08-05_09h20.22.529,simplestop_skeleton,2022.2.2,60.14871620739568,
None,None,,,,,,,,,0,0,0,0,1,1,5,2,,,,,,,,,576.9268565699458,go,circleblack.png,left,0.3,,,,,,,,,,,,,,,0.001227308064699173,0.4890070892870426,,579.4283312112093,test,1,,,,,,,,,,576.9433938637376,577.4417318254709,577.4417318254709,577.4582712613046,577.7421952262521,578.2428554110229,578.4430285058916,579.4596098177135,left,1,0.3990911766886711,0.3,,,,,,,,,,,s024,001,2024-08-05_09h20.22.529,simplestop_skeleton,2022.2.2,60.14871620739568,
None,None,,,,,,,,,0,0,0,0,1,2,6,3,,,,,,,,,579.4287662692368,go,squareblack.png,right,0.3,,,,,,,,,,,,,,,0.001615721732378006,0.49192576855421066,,581.9313772507012,test,1,,,,,,,,,,579.4596098177135,579.9462931938469,579.9462931938469,579.9629596658051,580.2448301278055,580.7453124001622,580.9461217746139,581.9496644251049,right,1,0.5490672886371613,0.3,,,,,,,,,,,s024,001,2024-08-05_09h20.22.529,simplestop_skeleton,2022.2.2,60.14871620739568,
None,None,,,,,,,,,0,0,0,0,1,3,7,2,,,,,,,,,581.9319810904562,go,circleblack.png,left,0.3,,,,,,,,,,,,,,,0.0018310397863388062,0.4889114648103714,,584.4338677637279,test,1,,,,,,,,,,581.9496644251049,582.4471808746457,582.4471808746457,582.4638545513153,582.7473963089287,583.2482017911971,583.4484017714858,584.4507121667266,left,1,0.5066705495119095,0.3,,,,,,,,,,,s024,001,2024-08-05_09h20.22.529,simplestop_skeleton,2022.2.2,60.14871620739568,
None,None,,,,,,,,,0,0,0,0,2,0,8,1,,,,,,,,,584.4343000613153,stop,circleblack.png,left,0.3,,,,,,,,,,,,,,,0.001244913786649704,0.4916095398366451,0.7902357205748558,586.9371889978647,test,1,,,,,,,,,,584.4507121667266,584.9518957361579,584.9518957361579,584.9518957361579,585.2504719346762,585.7507650256157,585.9510858282447,586.9552420079708,None,0,,0.35,,,,,,,,,,,s024,001,2024-08-05_09h20.22.529,simplestop_skeleton,2022.2.2,60.14871620739568,
None,None,,,,,,,,,0,0,0,0,2,1,9,3,,,,,,,,,586.9377763308585,go,circleblack.png,left,0.35,,,,,,,,,,,,,,,0.0013106577098369598,0.4888891950249672,,589.4395697638392,test,1,,,,,,,,,,586.9552420079708,587.4528325460851,587.4528325460851,587.4693276174366,587.8031582832336,588.303762756288,588.4539450779557,589.4705358073115,left,1,0.3476841636002064,0.35,,,,,,,,,,,s024,001,2024-08-05_09h20.22.529,simplestop_skeleton,2022.2.2,60.14871620739568,
None,None,,,,,,,,,0,0,0,0,2,2,10,3,,,,,,,,,589.4400220662355,go,circleblack.png,left,0.35,,,,,,,,,,,,,,,0.0013109967112541199,0.4911750555038452,,591.942521199584,test,1,,,,,,,,,,589.4705358073115,589.9573627747595,589.9573627747595,589.9740287438035,590.3060595057905,590.8063707388937,590.956622812897,591.9652005247772,left,1,0.28683803230524063,0.35,,,,,,,,,,,s024,001,2024-08-05_09h20.22.529,simplestop_skeleton,2022.2.2,60.14871620739568,
None,None,,,,,,,,,0,0,0,0,2,3,11,2,,,,,,,,,591.9429752863944,go,squareblack.png,right,0.35,,,,,,,,,,,,,,,0.00711122527718544,0.48888353630900383,,594.4449056722224,test,1,,,,,,,,,,591.9652005247772,592.4583053179085,592.4583053179085,592.4748233668506,592.8086419515312,593.3096317611635,593.4594848975539,594.4617937728763,right,1,0.2670681066811085,0.35,,,,,,,,,,,s024,001,2024-08-05_09h20.22.529,simplestop_skeleton,2022.2.2,60.14871620739568,
$currentCorrectResponse,$currentGoStim,,,,,,,,,0,0,0,0,3,0,12,0,,,,,,,,,594.445340808481,stop,squareblack.png,right,0.35,,,,,,,,,,,,,,,0.0011798962950706482,0.49122529476881027,0.8401827700436115,596.9480842389166,test,1,,,,,,,,,,594.4617937728763,594.962746232748,594.962746232748,594.962746232748,595.311510656029,595.8120743185282,595.9621292427182,596.9681158699095,right,1,0.2579730898141861,0.3,,,,,,,,,,,s024,001,2024-08-05_09h20.22.529,simplestop_skeleton,2022.2.2,60.14871620739568,
None,None,,,,,,,,,0,0,0,0,3,1,13,1,,,,,,,,,596.9485299997032,stop,squareblack.png,right,0.3,,,,,,,,,,,,,,,0.0019249580800533295,0.4863932430744171,0.786759939044714,599.450609665364,test,1,,,,,,,,,,596.9681158699095,597.4636821299791,597.4636821299791,597.4804545529187,597.7640235759318,598.2649841867387,598.4650072976947,599.4670868702233,right,1,0.3660091795027256,0.25,,,,,,,,,,,s024,001,2024-08-05_09h20.22.529,simplestop_skeleton,2022.2.2,60.14871620739568,
None,None,,,,,,,,,0,0,0,0,3,2,14,1,,,,,,,,,599.4510512501001,go,squareblack.png,right,0.25,,,,,,,,,,,,,,,0.0011548995971679688,0.4898291081190109,,601.9536540135741,test,1,,,,,,,,,,599.4670868702233,599.9667067490518,599.9667067490518,599.9667067490518,600.2169896177948,600.7173537425697,600.9675227217376,601.9777074940503,right,1,0.4793727211654186,0.25,,,,,,,,,,,s024,001,2024-08-05_09h20.22.529,simplestop_skeleton,2022.2.2,60.14871620739568,
None,None,,,,,,,,,0,0,0,0,3,3,15,2,,,,,,,,,601.9540979973972,go,circleblack.png,left,0.25,,,,,,,,,,,,,,,0.008458591997623444,0.4888601526618004,,604.456077888608,test,1,,,,,,,,,,601.9777074940503,602.4691968671978,602.4691968671978,602.4860302731395,602.7195137366652,603.2201998569071,603.4704549312592,604.4732136428356,left,1,0.564838495105505,0.25,,,,,,,,,,,s024,001,2024-08-05_09h20.22.529,simplestop_skeleton,2022.2.2,60.14871620739568,
$currentCorrectResponse,$currentGoStim,,,,,,,,,0,0,0,0,4,0,16,0,,,,,,,,,604.4565366655588,go,squareblack.png,right,0.25,,,,,,,,,,,,,,,0.0016263686120510101,0.49082818627357483,,606.9591196216643,test,1,,,,,,,,,,604.4732136428356,604.9738938733935,604.9738938733935,604.9738938733935,605.224271774292,605.7396280579269,605.973145082593,606.9765876829624,right,1,0.6248452588915825,0.25,,,,,,,,,,,s024,001,2024-08-05_09h20.22.529,simplestop_skeleton,2022.2.2,60.14871620739568,
None,None,,,,,,,,,0,0,0,0,4,1,17,3,,,,,,,,,606.9595773890615,go,squareblack.png,right,0.25,,,,,,,,,,,,,,,0.0012346990406513214,0.48898402228951454,,609.4616631940007,test,1,,,,,,,,,,606.9765876829624,607.4748874418437,607.4748874418437,607.4914552383125,607.7250311262906,608.2281188555062,608.4777661859989,609.4838409088552,right,1,0.4829736538231373,0.25,,,,,,,,,,,s024,001,2024-08-05_09h20.22.529,simplestop_skeleton,2022.2.2,60.14871620739568,
$currentCorrectResponse,$currentGoStim,,,,,,,,,0,0,0,0,4,2,18,0,,,,,,,,,609.4621185772121,go,circleblack.png,left,0.25,,,,,,,,,,,,,,,0.007359225302934647,0.4896407909691334,,611.9663833379745,test,1,,,,,,,,,,609.4838409088552,609.9800662137568,609.9800662137568,609.9958496056497,610.2297110930085,610.7450306452811,610.9954147450626,611.9870156869292,left,1,0.3671647049486637,0.25,,,,,,,,,,,s024,001,2024-08-05_09h20.22.529,simplestop_skeleton,2022.2.2,60.14871620739568,
None,None,,,,,,,,,0,0,0,0,4,3,19,1,,,,,,,,,611.9668331444263,go,circleblack.png,left,0.25,,,,,,,,,,,,,,,0.002154037356376648,0.4866665303707123,,614.4672170132399,test,1,,,,,,,,,,611.9870156869292,612.4802738837898,612.4802738837898,612.4969225749373,612.7306641303003,613.2312665879726,613.4825512468815,614.4845315851271,left,1,0.3234541565179825,0.25,,,,,,,,,,,s024,001,2024-08-05_09h20.22.529,simplestop_skeleton,2022.2.2,60.14871620739568,
None,None,,,,,,,,,0,0,0,0,5,0,20,1,,,,,,,,,614.467665232718,go,squareblack.png,right,0.25,,,,,,,,,,,,,,,0.0016516856849193573,0.48941629007458687,,616.9713310822845,test,1,,,,,,,,,,614.4845315851271,614.9830057360232,614.9830057360232,614.999727346003,615.2345477715135,615.7340296879411,615.9841705709696,616.9899368919432,right,1,0.46924807503819466,0.25,,,,,,,,,,,s024,001,2024-08-05_09h20.22.529,simplestop_skeleton,2022.2.2,60.14871620739568,
None,None,,,,,,,,,0,0,0,0,5,1,21,3,,,,,,,,,616.9717893786728,stop,circleblack.png,left,0.25,,,,,,,,,,,,,,,0.0023625902831554413,0.4879503473639488,0.7380493804812431,619.4725729972124,test,1,,,,,,,,,,616.9899368919432,617.4861125089228,617.4861125089228,617.5028132013977,617.7362265847623,618.2366338558495,618.4884849861264,619.4892858974636,None,0,,0.3,,,,,,,,,,,s024,001,2024-08-05_09h20.22.529,simplestop_skeleton,2022.2.2,60.14871620739568,
None,None,,,,,,,,,0,0,0,0,5,2,22,1,,,,,,,,,619.4730236716568,go,circleblack.png,left,0.3,,,,,,,,,,,,,,,0.0012311562895774841,0.4895930141210556,,621.9776148311794,test,1,,,,,,,,,,619.4892858974636,619.9885386154056,619.9885386154056,619.9885386154056,620.2890359722078,620.7897247336805,620.9898441322148,621.9970245249569,left,1,0.2644828259944916,0.3,,,,,,,,,,,s024,001,2024-08-05_09h20.22.529,simplestop_skeleton,2022.2.2,60.14871620739568,
None,None,,,,,,,,,0,0,0,0,5,3,23,2,,,,,,,,,621.9780576564372,stop,circleblack.png,left,0.3,,,,,,,,,,,,,,,0.0015644505620002747,0.4850076995790005,0.7853132337331772,624.4786114953458,test,1,,,,,,,,,,621.9970245249569,622.491528082639,622.491528082639,622.5083338133991,622.7917285747826,623.2922572679818,623.4924201257527,624.5012337453663,right,0,0.32673652097582817,0.25,,,,,,,,,,,s024,001,2024-08-05_09h20.22.529,simplestop_skeleton,2022.2.2,60.14871620739568,
$currentCorrectResponse,$currentGoStim,,,,,,,,,0,0,0,0,6,0,24,0,,,,,,,,,624.4790783636272,stop,squareblack.png,right,0.25,,,,,,,,,,,,,,,0.007180210202932358,0.48852613940835,0.7388440519571304,626.9812708050013,test,1,,,,,,,,,,624.5012337453663,624.9940464757383,624.9940464757383,625.0108131058514,625.2443709112704,625.7450703456998,625.9953277818859,626.9994312152267,right,1,0.43283848837018013,0.2,,,,,,,,,,,s024,001,2024-08-05_09h20.22.529,simplestop_skeleton,2022.2.2,60.14871620739568,
$currentCorrectResponse,$currentGoStim,,,,,,,,,0,0,0,0,6,1,25,0,,,,,,,,,626.9817200899124,go,circleblack.png,left,0.2,,,,,,,,,,,,,,,0.0018730759620666504,0.48917726054787636,,629.4838886633515,test,1,,,,,,,,,,626.9994312152267,627.4970475174487,627.4970475174487,627.5136920586228,627.6973724812269,628.1976344920695,628.4979679323733,629.5022242106497,left,1,0.31937478482723236,0.2,,,,,,,,,,,s024,001,2024-08-05_09h20.22.529,simplestop_skeleton,2022.2.2,60.14871620739568,
$currentCorrectResponse,$currentGoStim,,,,,,,,,0,0,0,0,6,2,26,0,,,,,,,,,629.4843406118453,stop,squareblack.png,right,0.2,,,,,,,,,,,,,,,0.001739010214805603,0.4889679364860058,0.6891520395874977,631.986535385251,test,1,,,,,,,,,,629.5022242106497,629.9996152147651,629.9996152147651,630.0163387358189,630.1998882479966,630.701040148735,631.0009383969009,632.003860052675,left,0,0.3053033724427223,0.15,,,,,,,,,,,s024,001,2024-08-05_09h20.22.529,simplestop_skeleton,2022.2.2,60.14871620739568,
None,None,,,,,,,,,0,0,0,0,6,3,27,1,,,,,,,,,631.9869772195816,go,circleblack.png,left,0.15,,,,,,,,,,,,,,,0.0017554871737957,0.4896244890987873,,634.4912603422999,test,1,,,,,,,,,,632.003860052675,632.5024829991162,632.5024829991162,632.5192204713821,632.652739584446,633.1531415134668,633.5035248585045,634.5127174369991,left,1,0.3594558350741863,0.15,,,,,,,,,,,s024,001,2024-08-05_09h20.22.529,simplestop_skeleton,2022.2.2,60.14871620739568,
$currentCorrectResponse,$currentGoStim,,,,,,,,,0,0,0,0,7,0,28,0,,,,,,,,,634.4917265474796,go,circleblack.png,left,0.15,,,,,,,,,,,,,,,0.0020327940583229065,0.48558933287858963,,636.9920637272298,test,1,,,,,,,,,,634.5127174369991,635.0054938308895,635.0054938308895,635.0218594819307,635.155234169215,635.6558821573853,636.0075539536774,637.0086707249284,left,1,0.482240654528141,0.15,,,,,,,,,,,s024,001,2024-08-05_09h20.22.529,simplestop_skeleton,2022.2.2,60.14871620739568,
None,None,,,,,,,,,0,0,0,0,7,1,29,3,,,,,,,,,636.9925176165998,stop,circleblack.png,left,0.15,,,,,,,,,,,,,,,0.0012113451957702637,0.48978669568896294,0.6416598185896873,639.4958622045815,test,1,,,,,,,,,,637.0086707249284,637.5079861134291,637.5079861134291,637.5079861134291,637.6590740382671,638.1589491441846,638.508987236768,639.5161160044372,None,0,,0.2,,,,,,,,,,,s024,001,2024-08-05_09h20.22.529,simplestop_skeleton,2022.2.2,60.14871620739568,
None,None,,,,,,,,,0,0,0,0,7,2,30,2,,,,,,,,,639.4963150881231,stop,circleblack.png,left,0.2,,,,,,,,,,,,,,,0.001531653106212616,0.4880439303815365,0.688166905194521,641.9974982179701,test,1,,,,,,,,,,639.5161160044372,640.0108976215124,640.0108976215124,640.0275183171034,640.2108221165836,640.7114360593259,641.011838529259,642.0194441340864,None,0,,0.25,,,,,,,,,,,s024,001,2024-08-05_09h20.22.529,simplestop_skeleton,2022.2.2,60.14871620739568,
None,None,,,,,,,,,0,0,0,0,7,3,31,2,,,,,,,,,641.9979499988258,go,squareblack.png,right,0.25,,,,,,,,,,,,,,,0.006904639303684235,0.48930687457323074,,644.5010437890887,test,1,,,,,,,,,,642.0194441340864,642.5134822279215,642.5134822279215,642.5304280295968,642.7650521099567,643.2644114382565,643.5145811997354,644.5205836258829,right,1,0.4296559952199459,0.25,,,,,,,,,,,s024,001,2024-08-05_09h20.22.529,simplestop_skeleton,2022.2.2,60.14871620739568,
$currentCorrectResponse,$currentGoStim,,,,,,,,,0,0,0,0,8,0,32,0,,,,,,,,,644.5015137754381,go,squareblack.png,right,0.25,,,,,,,,,,,,,,,0.0024556145071983337,0.48776908963918686,,647.0031376853585,test,1,,,,,,,,,,644.5205836258829,645.0165431909263,645.0165431909263,645.0331277437508,645.2665005996823,645.7669966965914,646.0173425376415,647.0206802599132,right,1,0.6434694677591324,0.25,,,,,,,,,,,s024,001,2024-08-05_09h20.22.529,simplestop_skeleton,2022.2.2,60.14871620739568,
None,None,,,,,,,,,0,0,0,0,8,1,33,3,,,,,,,,,647.0035882368684,go,squareblack.png,right,0.25,,,,,,,,,,,,,,,0.0012743733823299408,0.48907072097063065,,649.5055865943432,test,1,,,,,,,,,,647.0206802599132,647.5189281776547,647.5189281776547,647.5356941372156,647.7693452350795,648.269886855036,648.5202570818365,649.5223972760141,right,1,0.3415292948484421,0.25,,,,,,,,,,,s024,001,2024-08-05_09h20.22.529,simplestop_skeleton,2022.2.2,60.14871620739568,
None,None,,,,,,,,,0,0,0,0,8,2,34,1,,,,,,,,,649.506019603461,go,squareblack.png,right,0.25,,,,,,,,,,,,,,,0.001221533864736557,0.49161868169903755,,652.0087553039193,test,1,,,,,,,,,,649.5223972760141,650.0236444324255,650.0236444324255,650.0236444324255,650.2721116319299,650.7725110501051,651.0228395313025,652.0327002257109,right,1,0.28863609582185745,0.25,,,,,,,,,,,s024,001,2024-08-05_09h20.22.529,simplestop_skeleton,2022.2.2,60.14871620739568,
None,None,,,,,,,,,0,0,0,0,8,3,35,2,,,,,,,,,652.0092116035521,go,circleblack.png,left,0.25,,,,,,,,,,,,,,,0.00816287100315094,0.48892097920179367,,654.5112671107054,test,1,,,,,,,,,,652.0327002257109,652.5244906619191,652.5244906619191,652.5412729158998,652.774873342365,653.276132337749,653.5273826755583,654.5279376097023,left,1,0.3505183085799217,0.25,,,,,,,,,,,s024,001,2024-08-05_09h20.22.529,simplestop_skeleton,2022.2.2,60.14871620739568,
None,None,,,,,,,,,0,0,0,0,9,0,36,3,,,,,,,,,654.5117174386978,stop,circleblack.png,left,0.25,,,,,,,,,,,,,,,0.0012224279344081879,0.4896611422300339,0.7407553717494011,657.0151277147233,test,1,,,,,,,,,,654.5279376097023,655.0272744223475,655.0272744223475,655.0272744223475,655.2785382904112,655.7783244214952,656.0284420140088,657.0335750803351,right,0,0.5243419334292412,0.2,,,,,,,,,,,s024,001,2024-08-05_09h20.22.529,simplestop_skeleton,2022.2.2,60.14871620739568,
None,None,,,,,,,,,0,0,0,0,9,1,37,1,,,,,,,,,657.0155856907368,stop,squareblack.png,right,0.2,,,,,,,,,,,,,,,0.002034321427345276,0.4881308823823929,0.6882099509239197,659.5168768689036,test,1,,,,,,,,,,657.0335750803351,657.5301818810403,657.5301818810403,657.5468493551016,657.7301608547568,658.2307833209634,658.5310583151877,659.5341797396541,right,1,0.3453988842666149,0.15,,,,,,,,,,,s024,001,2024-08-05_09h20.22.529,simplestop_skeleton,2022.2.2,60.14871620739568,
None,None,,,,,,,,,0,0,0,0,9,2,38,1,,,,,,,,,659.5173288434744,stop,circleblack.png,left,0.15,,,,,,,,,,,,,,,0.0017162933945655823,0.4896273612976074,0.6397355310618877,662.0205595046282,test,1,,,,,,,,,,659.5341797396541,660.032817158848,660.032817158848,660.049390103668,660.1829308830202,660.6836163662374,661.0340626202524,662.0381472744048,None,0,,0.2,,,,,,,,,,,s024,001,2024-08-05_09h20.22.529,simplestop_skeleton,2022.2.2,60.14871620739568,
$currentCorrectResponse,$currentGoStim,,,,,,,,,0,0,0,0,9,3,39,0,,,,,,,,,662.0210299193859,go,squareblack.png,right,0.2,,,,,,,,,,,,,,,0.0016688592731952667,0.48867252469062805,,664.5224561244249,test,1,,,,,,,,,,662.0381472744048,662.5357491485775,662.5357491485775,662.5524542853236,662.7359395362437,663.236319757998,663.5365418568254,664.5409944392741,right,1,0.3245745748281479,0.2,,,,,,,,,,,s024,001,2024-08-05_09h20.22.529,simplestop_skeleton,2022.2.2,60.14871620739568,
None,None,,,,,,,,,0,0,0,0,10,0,40,2,,,,,,,,,664.5228960029781,go,circleblack.png,left,0.2,,,,,,,,,,,,,,,0.001837950199842453,0.4891394078731537,,667.0249131470919,test,1,,,,,,,,,,664.5409944392741,665.038305785507,665.038305785507,665.0549590401351,665.2385392226279,665.7396711744368,666.039503339678,667.0418458357453,left,1,0.30169089511036873,0.2,,,,,,,,,,,s024,001,2024-08-05_09h20.22.529,simplestop_skeleton,2022.2.2,60.14871620739568,
None,None,,,,,,,,,0,0,0,0,10,1,41,2,,,,,,,,,667.025383811444,go,circleblack.png,left,0.2,,,,,,,,,,,,,,,0.0012362189590930939,0.49080610647797585,,669.5299048684537,test,1,,,,,,,,,,667.0418458357453,667.5419462621212,667.5419462621212,667.5419462621212,667.7431554198265,668.2585974298418,668.542069748044,669.5511047132313,left,1,0.4378652907907963,0.2,,,,,,,,,,,s024,001,2024-08-05_09h20.22.529,simplestop_skeleton,2022.2.2,60.14871620739568,
None,None,,,,,,,,,0,0,0,0,10,2,42,3,,,,,,,,,669.5303868316114,go,squareblack.png,right,0.2,,,,,,,,,,,,,,,0.0025092139840126038,0.48668112978339195,,672.0304171778262,test,1,,,,,,,,,,669.5511047132313,670.043823748827,670.043823748827,670.0604412034154,670.2439842410386,670.745340552181,671.0450173728168,672.0472276881337,right,1,0.27991416677832603,0.2,,,,,,,,,,,s024,001,2024-08-05_09h20.22.529,simplestop_skeleton,2022.2.2,60.14871620739568,
None,None,,,,,,,,,0,0,0,0,10,3,43,1,,,,,,,,,672.0308658629656,go,squareblack.png,right,0.2,,,,,,,,,,,,,,,0.0011629872024059296,0.489531222730875,,674.5342436656356,test,1,,,,,,,,,,672.0472276881337,672.546770401299,672.546770401299,672.546770401299,672.7480575963855,673.2474789060652,673.5477381199598,674.5559930093586,right,1,0.44712667167186737,0.2,,,,,,,,,,,s024,001,2024-08-05_09h20.22.529,simplestop_skeleton,2022.2.2,60.14871620739568,
None,None,,,,,,,,,0,0,0,0,11,0,44,2,,,,,,,,,674.5346989184618,go,circleblack.png,left,0.2,,,,,,,,,,,,,,,0.003179013729095459,0.4880755953490734,,677.0382770188153,test,1,,,,,,,,,,674.5559930093586,675.0494176596403,675.0494176596403,675.0662706382573,675.249555002898,675.7500079870224,676.0504436865449,677.0551236793399,left,1,0.46277450397610664,0.2,,,,,,,,,,,s024,001,2024-08-05_09h20.22.529,simplestop_skeleton,2022.2.2,60.14871620739568,
None,None,,,,,,,,,0,0,0,0,11,1,45,3,,,,,,,,,677.0387385375798,go,circleblack.png,left,0.2,,,,,,,,,,,,,,,0.001360967755317688,0.48754334077239037,,679.5395799614489,test,1,,,,,,,,,,677.0551236793399,677.5520384646952,677.5520384646952,677.5687253512442,677.7523375861347,678.2530275769532,678.5532586760819,679.5578457266092,left,1,0.3568486012518406,0.2,,,,,,,,,,,s024,001,2024-08-05_09h20.22.529,simplestop_skeleton,2022.2.2,60.14871620739568,
$currentCorrectResponse,$currentGoStim,,,,,,,,,0,0,0,0,11,2,46,0,,,,,,,,,679.5400397405028,stop,squareblack.png,right,0.2,,,,,,,,,,,,,,,0.00172337144613266,0.48832938075065613,0.688613522797823,682.0420885458589,test,1,,,,,,,,,,679.5578457266092,680.0549922063947,680.0549922063947,680.0717030763626,680.2553482912481,680.7555488608778,681.0559114255011,682.0596742779016,right,1,0.32059043645858765,0.15,,,,,,,,,,,s024,001,2024-08-05_09h20.22.529,simplestop_skeleton,2022.2.2,60.14871620739568,
None,None,,,,,,,,,0,0,0,0,11,3,47,2,,,,,,,,,682.0425418913364,go,squareblack.png,right,0.15,,,,,,,,,,,,,,,0.001170370727777481,0.4886072538793087,,684.5447152592242,test,1,,,,,,,,,,682.0596742779016,682.5576507225633,682.5576507225633,682.5742269717157,682.7077443115413,683.2084272503853,683.5589388683438,684.5729549564421,right,1,0.4878985248506069,0.15,,,,,,,,,,,s024,001,2024-08-05_09h20.22.529,simplestop_skeleton,2022.2.2,60.14871620739568,
,,,,,,,,,,0,0,0,0,,,,,,"[{'fileName': 'squareblack.png', 'correct_response': 'right', 'condition': 'go'}, {'fileName': 'circleblack.png', 'correct_response': 'left', 'condition': 'stop'}, {'fileName': 'circleblack.png', 'correct_response': 'left', 'condition': 'go'}, {'fileName': 'squareblack.png', 'correct_response': 'right', 'condition': 'go'}, {'fileName': 'circleblack.png', 'correct_response': 'left', 'condition': 'stop'}, {'fileName': 'squareblack.png', 'correct_response': 'right', 'condition': 'go'}, {'fileName': 'squareblack.png', 'correct_response': 'right', 'condition': 'go'}, {'fileName': 'squareblack.png', 'correct_response': 'right', 'condition': 'stop'}, {'fileName': 'circleblack.png', 'correct_response': 'left', 'condition': 'go'}, {'fileName': 'circleblack.png', 'correct_response': 'left', 'condition': 'go'}, {'fileName': 'squareblack.png', 'correct_response': 'right', 'condition': 'stop'}, {'fileName': 'circleblack.png', 'correct_response': 'left', 'condition': 'go'}, {'fileName': 'squareblack.png', 'correct_response': 'right', 'condition': 'go'}, {'fileName': 'circleblack.png', 'correct_response': 'left', 'condition': 'go'}, {'fileName': 'squareblack.png', 'correct_response': 'right', 'condition': 'go'}, {'fileName': 'circleblack.png', 'correct_response': 'left', 'condition': 'go'}, {'fileName': 'circleblack.png', 'correct_response': 'left', 'condition': 'go'}, {'fileName': 'circleblack.png', 'correct_response': 'left', 'condition': 'stop'}, {'fileName': 'squareblack.png', 'correct_response': 'right', 'condition': 'stop'}, {'fileName': 'circleblack.png', 'correct_response': 'left', 'condition': 'stop'}, {'fileName': 'squareblack.png', 'correct_response': 'right', 'condition': 'go'}, {'fileName': 'squareblack.png', 'correct_response': 'right', 'condition': 'stop'}, {'fileName': 'circleblack.png', 'correct_response': 'left', 'condition': 'go'}, {'fileName': 'squareblack.png', 'correct_response': 'right', 'condition': 'go'}, {'fileName': 'squareblack.png', 'correct_response': 'right', 'condition': 'stop'}, {'fileName': 'circleblack.png', 'correct_response': 'left', 'condition': 'go'}, {'fileName': 'circleblack.png', 'correct_response': 'left', 'condition': 'go'}, {'fileName': 'circleblack.png', 'correct_response': 'left', 'condition': 'go'}, {'fileName': 'squareblack.png', 'correct_response': 'right', 'condition': 'go'}, {'fileName': 'squareblack.png', 'correct_response': 'right', 'condition': 'go'}, {'fileName': 'circleblack.png', 'correct_response': 'left', 'condition': 'stop'}, {'fileName': 'circleblack.png', 'correct_response': 'left', 'condition': 'stop'}, {'fileName': 'squareblack.png', 'correct_response': 'right', 'condition': 'go'}, {'fileName': 'squareblack.png', 'correct_response': 'right', 'condition': 'go'}, {'fileName': 'squareblack.png', 'correct_response': 'right', 'condition': 'stop'}, {'fileName': 'circleblack.png', 'correct_response': 'left', 'condition': 'go'}, {'fileName': 'circleblack.png', 'correct_response': 'left', 'condition': 'stop'}, {'fileName': 'squareblack.png', 'correct_response': 'right', 'condition': 'stop'}, {'fileName': 'squareblack.png', 'correct_response': 'right', 'condition': 'go'}, {'fileName': 'squareblack.png', 'correct_response': 'right', 'condition': 'stop'}, {'fileName': 'squareblack.png', 'correct_response': 'right', 'condition': 'go'}, {'fileName': 'circleblack.png', 'correct_response': 'left', 'condition': 'go'}, {'fileName': 'squareblack.png', 'correct_response': 'right', 'condition': 'go'}, {'fileName': 'circleblack.png', 'correct_response': 'left', 'condition': 'go'}, {'fileName': 'circleblack.png', 'correct_response': 'left', 'condition': 'go'}, {'fileName': 'circleblack.png', 'correct_response': 'left', 'condition': 'go'}, {'fileName': 'circleblack.png', 'correct_response': 'left', 'condition': 'stop'}, {'fileName': 'squareblack.png', 'correct_response': 'right', 'condition': 'go'}]",,,,,,,,,,,,,,,,,,,,,,,,,,,,,,,,,,,,,,,,,,,,,,,,,,,,,684.5729549564421,684.5729549564421,return,31.57184972986579,,,,,,,s024,001,2024-08-05_09h20.22.529,simplestop_skeleton,2022.2.2,60.14871620739568,
$currentCorrectResponse,$currentGoStim,,,,,,,,,1,0,1,0,0,0,0,0,,,,,,,,,716.169499065727,go,squareblack.png,right,0.15,,,,,,,,,,,,,,,0.001823432743549347,0.48304369300603867,,718.6668086126447,test,2,,,,,,,,,,716.1893985308707,716.6802409440279,716.6802409440279,716.6970448344946,716.8304618261755,717.3307999596,717.6820985414088,718.6881410740316,right,1,0.9171432964503765,0.15,,,,,,,,,,,s024,001,2024-08-05_09h20.22.529,simplestop_skeleton,2022.2.2,60.14871620739568,
None,None,,,,,,,,,1,0,1,0,0,1,1,3,,,,,,,,,718.6673669777811,stop,circleblack.png,left,0.15,,,,,,,,,,,,,,,0.004444800317287445,0.4893849417567253,0.6396815963089466,721.1683633029461,test,2,,,,,,,,,,718.6881410740316,719.1830779537559,719.1830779537559,719.1997445039451,719.3331686779857,719.8488033823669,720.1826640404761,721.1851705983281,left,1,0.3272196911275387,0.1,,,,,,,,,,,s024,001,2024-08-05_09h20.22.529,simplestop_skeleton,2022.2.2,60.14871620739568,
$currentCorrectResponse,$currentGoStim,,,,,,,,,1,0,1,0,0,2,2,0,,,,,,,,,721.1687991023064,go,circleblack.png,left,0.1,,,,,,,,,,,,,,,0.0013596154749393463,0.4913177080452442,,723.6726501211524,test,2,,,,,,,,,,721.1851705983281,721.685165092349,721.685165092349,721.685165092349,721.7855144031346,722.284989386797,722.6852141954005,723.6945063732564,left,1,0.30601199343800545,0.1,,,,,,,,,,,s024,001,2024-08-05_09h20.22.529,simplestop_skeleton,2022.2.2,60.14871620739568,
None,None,,,,,,,,,1,0,1,0,0,3,3,2,,,,,,,,,723.6730959378183,go,squareblack.png,right,0.1,,,,,,,,,,,,,,,0.0038620159029960632,0.48748879134655,,726.1737126782537,test,2,,,,,,,,,,723.6945063732564,724.187108643353,724.187108643353,724.2038045115769,724.2869541011751,724.7875319346786,725.1890223994851,726.1912286691368,right,1,0.26927050948143005,0.1,,,,,,,,,,,s024,001,2024-08-05_09h20.22.529,simplestop_skeleton,2022.2.2,60.14871620739568,
None,None,,,,,,,,,1,0,1,0,1,0,4,1,,,,,,,,,726.1741564534605,stop,circleblack.png,left,0.1,,,,,,,,,,,,,,,0.0017986297607421875,0.48956527560949326,0.5895391069352627,728.6764592789114,test,2,,,,,,,,,,726.1912286691368,726.6896036155522,726.6896036155522,726.7063181735575,726.7898623235524,727.290394987911,727.6910653226078,728.7076662480831,None,0,,0.15,,,,,,,,,,,s024,001,2024-08-05_09h20.22.529,simplestop_skeleton,2022.2.2,60.14871620739568,
None,None,,,,,,,,,1,0,1,0,1,1,5,2,,,,,,,,,728.6768909394741,go,squareblack.png,right,0.15,,,,,,,,,,,,,,,0.0015919692814350128,0.49153439328074455,,731.179612506181,test,2,,,,,,,,,,728.7076662480831,729.194267757237,729.194267757237,729.2093656286597,729.3427208997309,729.8431215286255,730.193454194814,731.1971620619297,right,1,0.39742039889097214,0.15,,,,,,,,,,,s024,001,2024-08-05_09h20.22.529,simplestop_skeleton,2022.2.2,60.14871620739568,
$currentCorrectResponse,$currentGoStim,,,,,,,,,1,0,1,0,1,2,6,0,,,,,,,,,731.1800772771239,go,squareblack.png,right,0.15,,,,,,,,,,,,,,,0.0012472309172153473,0.48887767642736435,,733.682096708566,test,2,,,,,,,,,,731.1971620619297,731.6952781192958,731.6952781192958,731.7117848545313,731.8452585674822,732.3458989262581,732.6964850313962,733.6986781470478,left,0,0.33103172108531,0.15,,,,,,,,,,,s024,001,2024-08-05_09h20.22.529,simplestop_skeleton,2022.2.2,60.14871620739568,
None,None,,,,,,,,,1,0,1,0,1,3,7,3,,,,,,,,,733.6825630366802,stop,squareblack.png,right,0.15,,,,,,,,,,,,,,,0.0011789686977863312,0.49153434857726097,0.6419125720858574,736.186664685607,test,2,,,,,,,,,,733.6986781470478,734.1989698633552,734.1989698633552,734.1989698633552,734.350091457367,734.8652893006802,735.1990036033094,736.2150617390871,None,0,,0.2,,,,,,,,,,,s024,001,2024-08-05_09h20.22.529,simplestop_skeleton,2022.2.2,60.14871620739568,
$currentCorrectResponse,$currentGoStim,,,,,,,,,1,0,1,0,2,0,8,0,,,,,,,,,736.1871198043227,go,circleblack.png,left,0.2,,,,,,,,,,,,,,,0.007680438458919525,0.4844351001083851,,738.6873100213706,test,2,,,,,,,,,,736.2150617390871,736.700631711632,736.700631711632,736.7173138558865,736.9008833579719,737.4014481082559,737.7017890997231,738.7043818458915,left,1,0.31023814901709557,0.2,,,,,,,,,,,s024,001,2024-08-05_09h20.22.529,simplestop_skeleton,2022.2.2,60.14871620739568,
None,None,,,,,,,,,1,0,1,0,2,1,9,3,,,,,,,,,738.6879375092685,go,circleblack.png,left,0.2,,,,,,,,,,,,,,,0.0012234337627887726,0.48982398584485054,,741.1909072250128,test,2,,,,,,,,,,738.7043818458915,739.203689660877,739.203689660877,739.203689660877,739.404445823282,739.9044272787869,740.2045589499176,741.2086762338877,left,1,0.37735772132873535,0.2,,,,,,,,,,,s024,001,2024-08-05_09h20.22.529,simplestop_skeleton,2022.2.2,60.14871620739568,
None,None,,,,,,,,,1,0,1,0,2,2,10,2,,,,,,,,,741.1913542300463,stop,squareblack.png,right,0.2,,,,,,,,,,,,,,,0.0017656758427619934,0.48885326087474823,0.6890007853507996,743.6932852007449,test,2,,,,,,,,,,741.2086762338877,741.7064154557884,741.7064154557884,741.7230896539986,741.9066459275782,742.4069281928241,742.7072662450373,743.7115076258779,right,1,0.36265410110354424,0.15,,,,,,,,,,,s024,001,2024-08-05_09h20.22.529,simplestop_skeleton,2022.2.2,60.14871620739568,
None,None,,,,,,,,,1,0,1,0,2,3,11,2,,,,,,,,,743.6937894746661,go,circleblack.png,left,0.15,,,,,,,,,,,,,,,0.0019199289381504059,0.4887617379426956,,746.1956523284316,test,2,,,,,,,,,,743.7115076258779,744.2090338803828,744.2090338803828,744.2258695736527,744.35917930305,744.8600297868252,745.2101587057114,746.2143163494766,left,1,0.4387087933719158,0.15,,,,,,,,,,,s024,001,2024-08-05_09h20.22.529,simplestop_skeleton,2022.2.2,60.14871620739568,
None,None,,,,,,,,,1,0,1,0,3,0,12,3,,,,,,,,,746.19608938694,go,squareblack.png,right,0.15,,,,,,,,,,,,,,,0.0016826391220092773,0.4902428574860096,,748.7004997618496,test,2,,,,,,,,,,746.2143163494766,746.7135611437261,746.7135611437261,746.7135611437261,746.8637085333467,747.3791539520025,747.7128324173391,748.7220307178795,right,1,0.5206268131732941,0.15,,,,,,,,,,,s024,001,2024-08-05_09h20.22.529,simplestop_skeleton,2022.2.2,60.14871620739568,
None,None,,,,,,,,,1,0,1,0,3,1,13,3,,,,,,,,,748.7009570635855,go,circleblack.png,left,0.15,,,,,,,,,,,,,,,0.002519886940717697,0.4863605387508869,,751.2013188451529,test,2,,,,,,,,,,748.7220307178795,749.214484360069,749.214484360069,749.2312267012894,749.364653263241,749.8654033876956,750.2168717943132,751.2188447453082,left,1,0.3564227633178234,0.15,,,,,,,,,,,s024,001,2024-08-05_09h20.22.529,simplestop_skeleton,2022.2.2,60.14871620739568,
None,None,,,,,,,,,1,0,1,0,3,2,14,2,,,,,,,,,751.2017644569278,go,squareblack.png,right,0.15,,,,,,,,,,,,,,,0.0017518885433673859,0.48943333700299263,,753.7047291733325,test,2,,,,,,,,,,751.2188447453082,751.7172282487154,751.7172282487154,751.7346539199352,751.8684249408543,752.3681504949927,752.7183294296265,753.7227878794074,right,1,0.3672943413257599,0.15,,,,,,,,,,,s024,001,2024-08-05_09h20.22.529,simplestop_skeleton,2022.2.2,60.14871620739568,
None,None,,,,,,,,,1,0,1,0,3,3,15,3,,,,,,,,,753.705178860575,go,circleblack.png,left,0.15,,,,,,,,,,,,,,,0.001817893236875534,0.48887433111667633,,756.2071267291903,test,2,,,,,,,,,,753.7227878794074,754.2201711349189,754.2201711349189,754.2368013001978,754.3703516721725,754.8708163499832,755.2211175300181,756.225257422775,left,1,0.3822632171213627,0.15,,,,,,,,,,,s024,001,2024-08-05_09h20.22.529,simplestop_skeleton,2022.2.2,60.14871620739568,
None,None,,,,,,,,,1,0,1,0,4,0,16,1,,,,,,,,,756.2075699344277,go,circleblack.png,left,0.15,,,,,,,,,,,,,,,0.0014159195125102997,0.4887787513434887,,758.70970159024,test,2,,,,,,,,,,756.225257422775,756.7227601446211,756.7227601446211,756.7395237721503,756.8728880807757,757.3742150478065,757.7240401394665,758.7262935340405,left,1,0.3978894539177418,0.15,,,,,,,,,,,s024,001,2024-08-05_09h20.22.529,simplestop_skeleton,2022.2.2,60.14871620739568,
None,None,,,,,,,,,1,0,1,0,4,1,17,1,,,,,,,,,758.7101578377187,stop,circleblack.png,left,0.15,,,,,,,,,,,,,,,0.0012161657214164734,0.4906471185386181,0.6418392919003963,761.2146094962955,test,2,,,,,,,,,,758.7262935340405,759.2273921780288,759.2273921780288,759.2273921780288,759.3775554336607,759.8930493593216,760.226635619998,761.2392534650862,left,1,0.34333743527531624,0.1,,,,,,,,,,,s024,001,2024-08-05_09h20.22.529,simplestop_skeleton,2022.2.2,60.14871620739568,
None,None,,,,,,,,,1,0,1,0,4,2,18,1,,,,,,,,,761.2150632068515,stop,squareblack.png,right,0.1,,,,,,,,,,,,,,,0.007339924573898315,0.485233873128891,0.5852356441318989,763.7153500802815,test,2,,,,,,,,,,761.2392534650862,761.7283384874463,761.7283384874463,761.7450088486075,761.8283861875534,762.328929875046,762.7305183634162,763.7336066551507,None,0,,0.15,,,,,,,,,,,s024,001,2024-08-05_09h20.22.529,simplestop_skeleton,2022.2.2,60.14871620739568,
None,None,,,,,,,,,1,0,1,0,4,3,19,3,,,,,,,,,763.7161225676537,stop,circleblack.png,left,0.15,,,,,,,,,,,,,,,0.0017324239015579224,0.4886128678917885,0.6388577222824097,766.2187702693045,test,2,,,,,,,,,,763.7336066551507,764.2315219901502,764.2315219901502,764.2480286322534,764.3812352903187,764.881901152432,765.2321882322431,766.2390769533813,None,0,,0.2,,,,,,,,,,,s024,001,2024-08-05_09h20.22.529,simplestop_skeleton,2022.2.2,60.14871620739568,
None,None,,,,,,,,,1,0,1,0,5,0,20,1,,,,,,,,,766.2192055694759,go,squareblack.png,right,0.2,,,,,,,,,,,,,,,0.002332109957933426,0.4870625473558903,,768.7206949703395,test,2,,,,,,,,,,766.2390769533813,766.7340438105166,766.7340438105166,766.7510310634971,766.9343278557062,767.4346236810088,767.7348757609725,768.7380628921092,right,1,0.40067434683442116,0.2,,,,,,,,,,,s024,001,2024-08-05_09h20.22.529,simplestop_skeleton,2022.2.2,60.14871620739568,
None,None,,,,,,,,,1,0,1,0,5,1,21,1,,,,,,,,,768.7211328111589,stop,squareblack.png,right,0.2,,,,,,,,,,,,,,,0.001155860722064972,0.4891958646476269,0.6895489133894444,771.2236560322344,test,2,,,,,,,,,,768.7380628921092,769.2367836870253,769.2367836870253,769.2532142661512,769.4368061460555,769.9374632239342,770.237860172987,771.2416854985058,right,1,0.36188823357224464,0.15,,,,,,,,,,,s024,001,2024-08-05_09h20.22.529,simplestop_skeleton,2022.2.2,60.14871620739568,
None,None,,,,,,,,,1,0,1,0,5,2,22,2,,,,,,,,,771.2241009771824,go,circleblack.png,left,0.15,,,,,,,,,,,,,,,0.0018002428114414215,0.4908999241888523,,773.7283251211047,test,2,,,,,,,,,,771.2416854985058,771.7411350235343,771.7411350235343,771.7411350235343,771.8913008086383,772.4067250862718,772.7403916195035,773.7506539337337,left,1,0.3924131654202938,0.15,,,,,,,,,,,s024,001,2024-08-05_09h20.22.529,simplestop_skeleton,2022.2.2,60.14871620739568,
$currentCorrectResponse,$currentGoStim,,,,,,,,,1,0,1,0,5,3,23,0,,,,,,,,,773.7287898287177,go,squareblack.png,right,0.15,,,,,,,,,,,,,,,0.0028171315789222717,0.4857146255671978,,776.2287463843822,test,2,,,,,,,,,,773.7506539337337,774.242242988199,774.242242988199,774.2587700076401,774.3922391571105,774.8927786201239,775.2440386638045,776.2457221373916,right,1,0.40962236002087593,0.15,,,,,,,,,,,s024,001,2024-08-05_09h20.22.529,simplestop_skeleton,2022.2.2,60.14871620739568,
None,None,,,,,,,,,1,0,1,0,6,0,24,3,,,,,,,,,776.2291721589863,stop,squareblack.png,right,0.15,,,,,,,,,,,,,,,0.0013375133275985718,0.4897432513535023,0.6399447731673717,778.7315844297409,test,2,,,,,,,,,,776.2457221373916,776.7448990643024,776.7448990643024,776.7448990643024,776.8950120285153,777.3975449278951,777.7461979575455,778.7491189017892,None,0,,0.2,,,,,,,,,,,s024,001,2024-08-05_09h20.22.529,simplestop_skeleton,2022.2.2,60.14871620739568,
None,None,,,,,,,,,1,0,1,0,6,1,25,2,,,,,,,,,778.7320134006441,go,circleblack.png,left,0.2,,,,,,,,,,,,,,,0.001835741102695465,0.4915440082550049,,781.2346674352884,test,2,,,,,,,,,,778.7491189017892,779.2495791614056,779.2495791614056,779.2495791614056,779.4497772566974,779.9650099687278,780.2487137131393,781.2522729448974,left,1,0.37051116675138474,0.2,,,,,,,,,,,s024,001,2024-08-05_09h20.22.529,simplestop_skeleton,2022.2.2,60.14871620739568,
None,None,,,,,,,,,1,0,1,0,6,2,26,2,,,,,,,,,781.2351411432028,go,circleblack.png,left,0.2,,,,,,,,,,,,,,,0.001309949904680252,0.4889383614063263,,783.7372980862856,test,2,,,,,,,,,,781.2522729448974,781.7503465339541,781.7503465339541,781.767046675086,781.9505035802722,782.4510396569967,782.7526706121862,783.7542698606849,right,0,0.35095248371362686,0.2,,,,,,,,,,,s024,001,2024-08-05_09h20.22.529,simplestop_skeleton,2022.2.2,60.14871620739568,
$currentCorrectResponse,$currentGoStim,,,,,,,,,1,0,1,0,6,3,27,0,,,,,,,,,783.7377567254007,go,circleblack.png,left,0.2,,,,,,,,,,,,,,,0.001270495355129242,0.48991743847727776,,786.240785934031,test,2,,,,,,,,,,783.7542698606849,784.255468070507,784.255468070507,784.255468070507,784.4534435234964,784.9541305117309,785.2708881907165,786.2647143341601,left,1,0.3778205178678036,0.2,,,,,,,,,,,s024,001,2024-08-05_09h20.22.529,simplestop_skeleton,2022.2.2,60.14871620739568,
None,None,,,,,,,,,1,0,1,0,7,0,28,2,,,,,,,,,786.2412606962025,go,squareblack.png,right,0.2,,,,,,,,,,,,,,,0.00791442021727562,0.4877721481025219,,788.743125282228,test,2,,,,,,,,,,786.2647143341601,786.7560595199466,786.7560595199466,786.7727198265493,786.9562835097313,787.4566752538085,787.7569472379982,788.7607800923288,right,1,0.3061141073703766,0.2,,,,,,,,,,,s024,001,2024-08-05_09h20.22.529,simplestop_skeleton,2022.2.2,60.14871620739568,
$currentCorrectResponse,$currentGoStim,,,,,,,,,1,0,1,0,7,1,29,0,,,,,,,,,788.7435801625252,go,squareblack.png,right,0.2,,,,,,,,,,,,,,,0.0012581534683704376,0.4888601489365101,,791.2452587746084,test,2,,,,,,,,,,788.7607800923288,789.2586799412966,789.2586799412966,789.2754082717001,789.4588087461889,789.9609536342323,790.2618330195546,791.2625225149095,right,1,0.33013200387358665,0.2,,,,,,,,,,,s024,001,2024-08-05_09h20.22.529,simplestop_skeleton,2022.2.2,60.14871620739568,
None,None,,,,,,,,,1,0,1,0,7,2,30,2,,,,,,,,,791.2456940375268,stop,circleblack.png,left,0.2,,,,,,,,,,,,,,,0.0017791315913200378,0.49070821329951286,0.6919884346425533,793.7502681352198,test,2,,,,,,,,,,791.2625225149095,791.7623818516731,791.7623818516731,791.7623818516731,791.9634875245392,792.4624607972801,792.7625173665583,793.7707579620183,left,1,0.3747485727071762,0.15,,,,,,,,,,,s024,001,2024-08-05_09h20.22.529,simplestop_skeleton,2022.2.2,60.14871620739568,
$currentCorrectResponse,$currentGoStim,,,,,,,,,1,0,1,0,7,3,31,0,,,,,,,,,793.7507306151092,stop,circleblack.png,left,0.15,,,,,,,,,,,,,,,0.0022356510162353516,0.4870297685265541,0.6372605860233307,796.2508489601314,test,2,,,,,,,,,,793.7707579620183,794.2643293216825,794.2643293216825,794.2812262699008,794.4143069833517,794.9149173796177,795.265224929899,796.2688243351877,None,0,,0.2,,,,,,,,,,,s024,001,2024-08-05_09h20.22.529,simplestop_skeleton,2022.2.2,60.14871620739568,
$currentCorrectResponse,$currentGoStim,,,,,,,,,1,0,1,0,8,0,32,0,,,,,,,,,796.2513086386025,go,squareblack.png,right,0.2,,,,,,,,,,,,,,,0.0016515180468559265,0.4891411364078522,,798.7536463551223,test,2,,,,,,,,,,796.2688243351877,796.7669650800526,796.7669650800526,796.7835541665554,796.9670879282057,797.4678007401526,797.7681600451469,798.7703976966441,right,1,0.42339204996824265,0.2,,,,,,,,,,,s024,001,2024-08-05_09h20.22.529,simplestop_skeleton,2022.2.2,60.14871620739568,
None,None,,,,,,,,,1,0,1,0,8,1,33,3,,,,,,,,,798.7541395276785,go,squareblack.png,right,0.2,,,,,,,,,,,,,,,0.0011623874306678772,0.4913531467318535,,801.2582613192499,test,2,,,,,,,,,,798.7703976966441,799.2714982256293,799.2714982256293,799.2714982256293,799.4717476591468,799.9870591796935,800.2707092612982,801.2789880670607,right,1,0.35383809730410576,0.2,,,,,,,,,,,s024,001,2024-08-05_09h20.22.529,simplestop_skeleton,2022.2.2,60.14871620739568,
None,None,,,,,,,,,1,0,1,0,8,2,34,1,,,,,,,,,801.2588866986334,stop,squareblack.png,right,0.2,,,,,,,,,,,,,,,0.0020317472517490387,0.48645591363310814,0.6868383847177029,803.7593140900135,test,2,,,,,,,,,,801.2789880670607,801.7723766863346,801.7723766863346,801.789110545069,801.9726184159517,802.473113194108,802.7735772281885,803.776691749692,None,0,,0.25,,,,,,,,,,,s024,001,2024-08-05_09h20.22.529,simplestop_skeleton,2022.2.2,60.14871620739568,
$currentCorrectResponse,$currentGoStim,,,,,,,,,1,0,1,0,8,3,35,0,,,,,,,,,803.7597729749978,go,circleblack.png,left,0.25,,,,,,,,,,,,,,,0.0020096823573112488,0.48929712548851967,,806.2642715647817,test,2,,,,,,,,,,803.776691749692,804.2751577682793,804.2751577682793,804.291926395148,804.5256078541279,805.0263410843909,805.27648819983,806.2810725346208,left,1,0.3273887299001217,0.25,,,,,,,,,,,s024,001,2024-08-05_09h20.22.529,simplestop_skeleton,2022.2.2,60.14871620739568,
$currentCorrectResponse,$currentGoStim,,,,,,,,,1,0,1,0,9,0,36,0,,,,,,,,,806.2647021524608,stop,circleblack.png,left,0.25,,,,,,,,,,,,,,,0.0014064647257328033,0.48908698931336403,0.7377099953591824,808.7669960558414,test,2,,,,,,,,,,806.2810725346208,806.779871750623,806.779871750623,806.7965336553752,807.0284251719713,807.5287960842252,807.7790210545063,808.7893637940288,left,1,0.41784585639834404,0.2,,,,,,,,,,,s024,001,2024-08-05_09h20.22.529,simplestop_skeleton,2022.2.2,60.14871620739568,
None,None,,,,,,,,,1,0,1,0,9,1,37,1,,,,,,,,,808.7674785256386,stop,squareblack.png,right,0.2,,,,,,,,,,,,,,,0.0024762488901615143,0.48583579808473587,0.6859649643301964,811.2675032988191,test,2,,,,,,,,,,808.7893637940288,809.2807444706559,809.2807444706559,809.297573428601,809.4809565655887,809.9817664213479,810.2833542749286,811.2842336334288,None,0,,0.25,,,,,,,,,,,s024,001,2024-08-05_09h20.22.529,simplestop_skeleton,2022.2.2,60.14871620739568,
None,None,,,,,,,,,1,0,1,0,9,2,38,3,,,,,,,,,811.2679361067712,go,squareblack.png,right,0.25,,,,,,,,,,,,,,,0.001189902424812317,0.4895879589021206,,813.771722946316,test,2,,,,,,,,,,811.2842336334288,811.7835131287575,811.7835131287575,811.7835131287575,812.0338789150119,812.5345186814666,812.784803699702,813.7920186109841,left,0,0.48081187158823013,0.25,,,,,,,,,,,s024,001,2024-08-05_09h20.22.529,simplestop_skeleton,2022.2.2,60.14871620739568,
None,None,,,,,,,,,1,0,1,0,9,3,39,1,,,,,,,,,813.7721799612045,stop,squareblack.png,right,0.25,,,,,,,,,,,,,,,0.0015572309494018555,0.48938604444265366,0.7381283827126026,816.2754393853247,test,2,,,,,,,,,,813.7920186109841,814.2881543710828,814.2881543710828,814.3030250407755,814.5367753058672,815.037253446877,815.28744501248,816.2960096485913,right,1,0.3952258676290512,0.2,,,,,,,,,,,s024,001,2024-08-05_09h20.22.529,simplestop_skeleton,2022.2.2,60.14871620739568,
$currentCorrectResponse,$currentGoStim,,,,,,,,,1,0,1,0,10,0,40,0,,,,,,,,,816.2759181261063,go,squareblack.png,right,0.2,,,,,,,,,,,,,,,0.0019420944154262543,0.48610174655914307,,818.7757043018937,test,2,,,,,,,,,,816.2960096485913,816.7894382961094,816.7894382961094,816.8058069162071,816.9892901517451,817.4900070019066,817.7908061183989,818.798583753407,right,1,0.5129186548292637,0.2,,,,,,,,,,,s024,001,2024-08-05_09h20.22.529,simplestop_skeleton,2022.2.2,60.14871620739568,
None,None,,,,,,,,,1,0,1,0,10,1,41,2,,,,,,,,,818.7761643528938,go,circleblack.png,left,0.2,,,,,,,,,,,,,,,0.0079822838306427,0.4896347336471081,,821.2784532867372,test,2,,,,,,,,,,818.798583753407,819.2917732410133,819.2917732410133,819.3084338307381,819.4923142939806,819.9926443397999,820.2930812388659,821.2957684211433,left,1,0.36309512332081795,0.2,,,,,,,,,,,s024,001,2024-08-05_09h20.22.529,simplestop_skeleton,2022.2.2,60.14871620739568,
None,None,,,,,,,,,1,0,1,0,10,2,42,3,,,,,,,,,821.2790132090449,go,squareblack.png,right,0.2,,,,,,,,,,,,,,,0.0015925876796245575,0.4911829009652138,,823.7814542725682,test,2,,,,,,,,,,821.2957684211433,821.796315357089,821.796315357089,821.796315357089,821.9966711327434,822.5119640156627,822.7955088727176,823.7996914573014,right,1,0.33731162920594215,0.2,,,,,,,,,,,s024,001,2024-08-05_09h20.22.529,simplestop_skeleton,2022.2.2,60.14871620739568,
None,None,,,,,,,,,1,0,1,0,10,3,43,3,,,,,,,,,823.7818975485861,go,circleblack.png,left,0.2,,,,,,,,,,,,,,,0.0019100196659564972,0.4891715422272682,,826.2840370759368,test,2,,,,,,,,,,823.7996914573014,824.2972600571811,824.2972600571811,824.3140002377331,824.4975408501923,824.9980557002127,825.2993547990918,826.3152242526412,left,1,0.36352863535284996,0.2,,,,,,,,,,,s024,001,2024-08-05_09h20.22.529,simplestop_skeleton,2022.2.2,60.14871620739568,
None,None,,,,,,,,,1,0,1,0,11,0,44,1,,,,,,,,,826.2844839692116,go,circleblack.png,left,0.2,,,,,,,,,,,,,,,0.001234985888004303,0.48954084888100624,,828.7866634204984,test,2,,,,,,,,,,826.3152242526412,826.800091702491,826.800091702491,826.8167817667127,827.000403624028,827.5008712559938,827.8014398515224,828.8035770058632,left,1,0.3711066171526909,0.2,,,,,,,,,,,s024,001,2024-08-05_09h20.22.529,simplestop_skeleton,2022.2.2,60.14871620739568,
None,None,,,,,,,,,1,0,1,0,11,1,45,1,,,,,,,,,828.787107206881,go,circleblack.png,left,0.2,,,,,,,,,,,,,,,0.0012180283665657043,0.4899967797100544,,831.2897156439722,test,2,,,,,,,,,,828.8035770058632,829.3030048720539,829.3030048720539,829.3030048720539,829.5032663457096,830.0036497451365,830.3039631173015,831.307564701885,left,1,0.3639839254319668,0.2,,,,,,,,,,,s024,001,2024-08-05_09h20.22.529,simplestop_skeleton,2022.2.2,60.14871620739568,
None,None,,,,,,,,,1,0,1,0,11,2,46,1,,,,,,,,,831.2901777587831,stop,circleblack.png,left,0.2,,,,,,,,,,,,,,,0.0013044029474258423,0.48889224231243134,0.6891142651438713,833.7923543341458,test,2,,,,,,,,,,831.307564701885,831.8055466152728,831.8055466152728,831.8222792223096,832.0057581812143,832.5062913149595,832.8087896481156,833.814259134233,left,1,0.38012244179844856,0.15,,,,,,,,,,,s024,001,2024-08-05_09h20.22.529,simplestop_skeleton,2022.2.2,60.14871620739568,
None,None,,,,,,,,,1,0,1,0,11,3,47,2,,,,,,,,,833.792784858495,go,squareblack.png,right,0.15,,,,,,,,,,,,,,,0.007102262228727341,0.4895709864795208,,836.2958819009364,test,2,,,,,,,,,,833.814259134233,834.3083776459098,834.3083776459098,834.3251064047217,834.4602153971791,834.9592473842204,835.3094552457333,836.3149458877742,right,1,0.3594784215092659,0.15,,,,,,,,,,,s024,001,2024-08-05_09h20.22.529,simplestop_skeleton,2022.2.2,60.14871620739568,
,,,,,,,,,,1,0,1,0,,,,,,,,,,,,,,,,,,,,,,,,,,,,,,,,,,,,,,,,,,,,,,,,,,,,,,,,,,,836.3149458877742,836.3149458877742,return,33.201407078653574,"[{'fileName': 'squareblack.png', 'correct_response': 'right', 'condition': 'go'}, {'fileName': 'circleblack.png', 'correct_response': 'left', 'condition': 'go'}, {'fileName': 'circleblack.png', 'correct_response': 'left', 'condition': 'stop'}, {'fileName': 'squareblack.png', 'correct_response': 'right', 'condition': 'stop'}, {'fileName': 'squareblack.png', 'correct_response': 'right', 'condition': 'go'}, {'fileName': 'circleblack.png', 'correct_response': 'left', 'condition': 'go'}, {'fileName': 'circleblack.png', 'correct_response': 'left', 'condition': 'stop'}, {'fileName': 'squareblack.png', 'correct_response': 'right', 'condition': 'stop'}, {'fileName': 'circleblack.png', 'correct_response': 'left', 'condition': 'go'}, {'fileName': 'squareblack.png', 'correct_response': 'right', 'condition': 'go'}, {'fileName': 'squareblack.png', 'correct_response': 'right', 'condition': 'go'}, {'fileName': 'circleblack.png', 'correct_response': 'left', 'condition': 'go'}, {'fileName': 'squareblack.png', 'correct_response': 'right', 'condition': 'go'}, {'fileName': 'circleblack.png', 'correct_response': 'left', 'condition': 'go'}, {'fileName': 'circleblack.png', 'correct_response': 'left', 'condition': 'stop'}, {'fileName': 'squareblack.png', 'correct_response': 'right', 'condition': 'go'}, {'fileName': 'squareblack.png', 'correct_response': 'right', 'condition': 'go'}, {'fileName': 'circleblack.png', 'correct_response': 'left', 'condition': 'go'}, {'fileName': 'circleblack.png', 'correct_response': 'left', 'condition': 'go'}, {'fileName': 'circleblack.png', 'correct_response': 'left', 'condition': 'go'}, {'fileName': 'squareblack.png', 'correct_response': 'right', 'condition': 'stop'}, {'fileName': 'squareblack.png', 'correct_response': 'right', 'condition': 'go'}, {'fileName': 'circleblack.png', 'correct_response': 'left', 'condition': 'stop'}, {'fileName': 'squareblack.png', 'correct_response': 'right', 'condition': 'stop'}, {'fileName': 'circleblack.png', 'correct_response': 'left', 'condition': 'go'}, {'fileName': 'squareblack.png', 'correct_response': 'right', 'condition': 'go'}, {'fileName': 'circleblack.png', 'correct_response': 'left', 'condition': 'go'}, {'fileName': 'squareblack.png', 'correct_response': 'right', 'condition': 'stop'}, {'fileName': 'circleblack.png', 'correct_response': 'left', 'condition': 'go'}, {'fileName': 'squareblack.png', 'correct_response': 'right', 'condition': 'stop'}, {'fileName': 'squareblack.png', 'correct_response': 'right', 'condition': 'go'}, {'fileName': 'circleblack.png', 'correct_response': 'left', 'condition': 'go'}, {'fileName': 'squareblack.png', 'correct_response': 'right', 'condition': 'go'}, {'fileName': 'squareblack.png', 'correct_response': 'right', 'condition': 'go'}, {'fileName': 'circleblack.png', 'correct_response': 'left', 'condition': 'stop'}, {'fileName': 'circleblack.png', 'correct_response': 'left', 'condition': 'stop'}, {'fileName': 'circleblack.png', 'correct_response': 'left', 'condition': 'go'}, {'fileName': 'squareblack.png', 'correct_response': 'right', 'condition': 'go'}, {'fileName': 'squareblack.png', 'correct_response': 'right', 'condition': 'go'}, {'fileName': 'circleblack.png', 'correct_response': 'left', 'condition': 'go'}, {'fileName': 'squareblack.png', 'correct_response': 'right', 'condition': 'stop'}, {'fileName': 'squareblack.png', 'correct_response': 'right', 'condition': 'go'}, {'fileName': 'squareblack.png', 'correct_response': 'right', 'condition': 'stop'}, {'fileName': 'circleblack.png', 'correct_response': 'left', 'condition': 'go'}, {'fileName': 'circleblack.png', 'correct_response': 'left', 'condition': 'stop'}, {'fileName': 'circleblack.png', 'correct_response': 'left', 'condition': 'go'}, {'fileName': 'circleblack.png', 'correct_response': 'left', 'condition': 'stop'}, {'fileName': 'squareblack.png', 'correct_response': 'right', 'condition': 'go'}]",,,,,,s024,001,2024-08-05_09h20.22.529,simplestop_skeleton,2022.2.2,60.14871620739568,
None,None,,,,,,,,,2,0,2,0,0,0,0,3,,,,,,,,,869.5414146594703,go,squareblack.png,right,0.15,,,,,,,,,,,,,,,0.0015330910682678223,0.4971426911652088,,872.0531978718936,test,3,,,,,,,,,,869.5609976314008,870.065990190953,870.065990190953,870.065990190953,870.2161899805069,870.716698821634,871.0673684030771,872.0735265538096,right,1,0.38604889437556267,0.15,,,,,,,,,,,s024,001,2024-08-05_09h20.22.529,simplestop_skeleton,2022.2.2,60.14871620739568,
None,None,,,,,,,,,2,0,2,0,0,1,1,2,,,,,,,,,872.0537360571325,go,circleblack.png,left,0.15,,,,,,,,,,,,,,,0.0032517723739147186,0.48891276121139526,,874.5539060421288,test,3,,,,,,,,,,872.0735265538096,872.5687176883221,872.5687176883221,872.5857726149261,872.7188399210572,873.2195951491594,873.5685390047729,874.5707202889025,left,1,0.3800191469490528,0.15,,,,,,,,,,,s024,001,2024-08-05_09h20.22.529,simplestop_skeleton,2022.2.2,60.14871620739568,
$currentCorrectResponse,$currentGoStim,,,,,,,,,2,0,2,0,0,2,2,0,,,,,,,,,874.5543408319354,stop,circleblack.png,left,0.15,,,,,,,,,,,,,,,0.0012420564889907837,0.48966389521956444,0.6411784589290619,877.0576464869082,test,3,,,,,,,,,,874.5707202889025,875.0699740983546,875.0699740983546,875.0699740983546,875.2216976471245,875.7207971960306,876.071010902524,877.0836797505617,right,0,0.33599457517266273,0.1,,,,,,,,,,,s024,001,2024-08-05_09h20.22.529,simplestop_skeleton,2022.2.2,60.14871620739568,
None,None,,,,,,,,,2,0,2,0,0,3,3,1,,,,,,,,,877.058074798435,stop,squareblack.png,right,0.1,,,,,,,,,,,,,,,0.007642146199941635,0.48646262660622597,0.5864815562963486,879.5599706806242,test,3,,,,,,,,,,877.0836797505617,877.5729821361601,877.5729821361601,877.5895790196955,877.6730249449611,878.173321839422,878.5738420188427,879.5774789825082,None,0,,0.15,,,,,,,,,,,s024,001,2024-08-05_09h20.22.529,simplestop_skeleton,2022.2.2,60.14871620739568,
None,None,,,,,,,,,2,0,2,0,1,0,4,2,,,,,,,,,879.5604233369231,go,squareblack.png,right,0.15,,,,,,,,,,,,,,,0.0012426413595676422,0.4890013709664345,,882.0625490695238,test,3,,,,,,,,,,879.5774789825082,880.0754106789827,880.0754106789827,880.0921456739306,880.2257504872978,880.726997166872,881.0783004313707,882.0800717361271,right,1,0.384046982973814,0.15,,,,,,,,,,,s024,001,2024-08-05_09h20.22.529,simplestop_skeleton,2022.2.2,60.14871620739568,
None,None,,,,,,,,,2,0,2,0,1,1,5,2,,,,,,,,,882.0629871487617,go,circleblack.png,left,0.15,,,,,,,,,,,,,,,0.001843918114900589,0.4892996586859226,,884.5648903660476,test,3,,,,,,,,,,882.0800717361271,882.5782896280289,882.5782896280289,882.5949019789696,882.7294193916023,883.2291342765093,883.57931156829,884.5819442011416,left,1,0.27735019475221634,0.15,,,,,,,,,,,s024,001,2024-08-05_09h20.22.529,simplestop_skeleton,2022.2.2,60.14871620739568,
None,None,,,,,,,,,2,0,2,0,1,2,6,1,,,,,,,,,884.5653157271445,stop,circleblack.png,left,0.15,,,,,,,,,,,,,,,0.0012170225381851196,0.4900492802262306,0.6401846185326576,887.068157158792,test,3,,,,,,,,,,884.5819442011416,885.0812950879335,885.0812950879335,885.0812950879335,885.2314672991633,885.7317857183516,886.0821439065039,887.0860892422497,None,0,,0.2,,,,,,,,,,,s024,001,2024-08-05_09h20.22.529,simplestop_skeleton,2022.2.2,60.14871620739568,
$currentCorrectResponse,$currentGoStim,,,,,,,,,2,0,2,0,1,3,7,0,,,,,,,,,887.0686113573611,stop,squareblack.png,right,0.2,,,,,,,,,,,,,,,0.0016782432794570923,0.4889543615281582,0.6891599744558334,889.5705784410238,test,3,,,,,,,,,,887.0860892422497,887.5839300230145,887.5839300230145,887.6004210263491,887.7839823551476,888.2844895347953,888.5859004147351,889.5877900272608,None,0,,0.25,,,,,,,,,,,s024,001,2024-08-05_09h20.22.529,simplestop_skeleton,2022.2.2,60.14871620739568,
None,None,,,,,,,,,2,0,2,0,2,0,8,3,,,,,,,,,889.5710634440184,go,circleblack.png,left,0.25,,,,,,,,,,,,,,,0.0018471255898475647,0.4898364804685116,,892.0733578056097,test,3,,,,,,,,,,889.5877900272608,890.0868792012334,890.0868792012334,890.1034733504057,890.3379490673542,890.8376334570348,891.0878073461354,892.0903209298849,left,1,0.33842771127820015,0.25,,,,,,,,,,,s024,001,2024-08-05_09h20.22.529,simplestop_skeleton,2022.2.2,60.14871620739568,
None,None,,,,,,,,,2,0,2,0,2,1,9,3,,,,,,,,,892.0737957768142,go,squareblack.png,right,0.25,,,,,,,,,,,,,,,0.0016111135482788086,0.489937923848629,,894.5762677900493,test,3,,,,,,,,,,892.0903209298849,892.589362513274,892.589362513274,892.589362513274,892.8399020470679,893.3401365280151,893.5904169231653,894.5940143801272,right,1,0.2566881291568279,0.25,,,,,,,,,,,s024,001,2024-08-05_09h20.22.529,simplestop_skeleton,2022.2.2,60.14871620739568,
None,None,,,,,,,,,2,0,2,0,2,2,10,3,,,,,,,,,894.5768919177353,go,squareblack.png,right,0.25,,,,,,,,,,,,,,,0.0012464337050914764,0.4887084551155567,,897.0787415094674,test,3,,,,,,,,,,894.5940143801272,895.0920664966106,895.0920664966106,895.108821734786,895.3422908596694,895.8430707231164,896.0938129350543,897.096787173301,right,1,0.3470449931919575,0.25,,,,,,,,,,,s024,001,2024-08-05_09h20.22.529,simplestop_skeleton,2022.2.2,60.14871620739568,
None,None,,,,,,,,,2,0,2,0,2,3,11,2,,,,,,,,,897.0791766494513,go,circleblack.png,left,0.25,,,,,,,,,,,,,,,0.0017970241606235504,0.48942145705223083,,899.5814967527986,test,3,,,,,,,,,,897.096787173301,897.5948556810617,897.5948556810617,897.6115286871791,897.8451576270163,898.345817014575,898.5960758849978,899.5993835069239,left,1,0.34120840951800346,0.25,,,,,,,,,,,s024,001,2024-08-05_09h20.22.529,simplestop_skeleton,2022.2.2,60.14871620739568,
None,None,,,,,,,,,2,0,2,0,3,0,12,3,,,,,,,,,899.5819467417896,go,squareblack.png,right,0.25,,,,,,,,,,,,,,,0.001598358154296875,0.49139445275068283,,902.0862030237913,test,3,,,,,,,,,,899.5993835069239,900.0995674878359,900.0995674878359,900.0995674878359,900.3480388000607,900.8483328707516,901.0985948257148,902.1075590327382,right,1,0.38439079374074936,0.25,,,,,,,,,,,s024,001,2024-08-05_09h20.22.529,simplestop_skeleton,2022.2.2,60.14871620739568,
$currentCorrectResponse,$currentGoStim,,,,,,,,,2,0,2,0,3,1,13,0,,,,,,,,,902.0868857614696,go,circleblack.png,left,0.25,,,,,,,,,,,,,,,0.002466261386871338,0.4864020198583603,,904.5869874916971,test,3,,,,,,,,,,902.1075590327382,902.6003445088863,902.6003445088863,902.6170389614999,902.8507750667632,903.3511867932975,903.6013564132154,904.6039217188954,left,1,0.39385511726140976,0.25,,,,,,,,,,,s024,001,2024-08-05_09h20.22.529,simplestop_skeleton,2022.2.2,60.14871620739568,
$currentCorrectResponse,$currentGoStim,,,,,,,,,2,0,2,0,3,2,14,0,,,,,,,,,904.5874208137393,stop,circleblack.png,left,0.25,,,,,,,,,,,,,,,0.0012999996542930603,0.48973448574543,0.7400696836411953,907.0899057686329,test,3,,,,,,,,,,904.6039217188954,905.1031223088503,905.1031223088503,905.1031223088503,905.3533895462751,905.8541389815509,906.1043612286448,907.1071545258164,left,1,0.38710977137088776,0.2,,,,,,,,,,,s024,001,2024-08-05_09h20.22.529,simplestop_skeleton,2022.2.2,60.14871620739568,
None,None,,,,,,,,,2,0,2,0,3,3,15,1,,,,,,,,,907.0903466455638,go,squareblack.png,right,0.2,,,,,,,,,,,,,,,0.0016532763838768005,0.49139297753572464,,909.5946780219674,test,3,,,,,,,,,,907.1071545258164,907.607759218663,907.607759218663,907.607759218663,907.8080217726529,908.323291156441,908.6068943403661,909.6151860952377,right,1,0.34829769656062126,0.2,,,,,,,,,,,s024,001,2024-08-05_09h20.22.529,simplestop_skeleton,2022.2.2,60.14871620739568,
None,None,,,,,,,,,2,0,2,0,4,0,16,1,,,,,,,,,909.5951423719525,go,squareblack.png,right,0.2,,,,,,,,,,,,,,,0.0018931664526462555,0.48667552694678307,,912.0957726873457,test,3,,,,,,,,,,909.6151860952377,910.1087873652577,910.1087873652577,910.1253272630274,910.3089623041451,910.8093330264091,911.1110039576888,912.1144187785685,right,1,0.49378494173288345,0.2,,,,,,,,,,,s024,001,2024-08-05_09h20.22.529,simplestop_skeleton,2022.2.2,60.14871620739568,
None,None,,,,,,,,,2,0,2,0,4,1,17,3,,,,,,,,,912.0962152332067,go,circleblack.png,left,0.2,,,,,,,,,,,,,,,0.0020396001636981964,0.488696813583374,,914.5979883931577,test,3,,,,,,,,,,912.1144187785685,912.6114274039865,912.6114274039865,912.6280963718891,912.811690106988,913.3127284757793,913.6127659454942,914.6147091537714,left,1,0.3414900042116642,0.2,,,,,,,,,,,s024,001,2024-08-05_09h20.22.529,simplestop_skeleton,2022.2.2,60.14871620739568,
None,None,,,,,,,,,2,0,2,0,4,2,18,1,,,,,,,,,914.5984202176332,go,circleblack.png,left,0.2,,,,,,,,,,,,,,,0.0012315548956394196,0.49081914871931076,,917.101990185678,test,3,,,,,,,,,,914.6147091537714,915.1150501780212,915.1150501780212,915.1150501780212,915.3161528408527,915.8317798785865,916.115206066519,917.1226713135839,left,1,0.34141550958156586,0.2,,,,,,,,,,,s024,001,2024-08-05_09h20.22.529,simplestop_skeleton,2022.2.2,60.14871620739568,
None,None,,,,,,,,,2,0,2,0,4,3,19,2,,,,,,,,,917.1024349108338,go,circleblack.png,left,0.2,,,,,,,,,,,,,,,0.0015686973929405212,0.4879235364496708,,919.603992022574,test,3,,,,,,,,,,917.1226713135839,917.6171381063759,917.6171381063759,917.633866045624,917.817123554647,918.3176643885672,918.618016242981,919.6269355490804,left,1,0.3360431492328644,0.2,,,,,,,,,,,s024,001,2024-08-05_09h20.22.529,simplestop_skeleton,2022.2.2,60.14871620739568,
None,None,,,,,,,,,2,0,2,0,5,0,20,1,,,,,,,,,919.6044532991946,stop,squareblack.png,right,0.2,,,,,,,,,,,,,,,0.007337894290685654,0.4888162948191166,0.6892663612961769,922.1064854934812,test,3,,,,,,,,,,919.6269355490804,920.1195963472128,920.1195963472128,920.1363454051316,920.3200808726251,920.8227235488594,921.1226358227432,922.122976038605,right,1,0.31309541314840317,0.15,,,,,,,,,,,s024,001,2024-08-05_09h20.22.529,simplestop_skeleton,2022.2.2,60.14871620739568,
None,None,,,,,,,,,2,0,2,0,5,1,21,3,,,,,,,,,922.1069110520184,go,squareblack.png,right,0.15,,,,,,,,,,,,,,,0.0011821538209915161,0.48976580798625946,,924.6099210195243,test,3,,,,,,,,,,922.122976038605,922.6224367432296,922.6224367432296,922.6224367432296,922.7738416939974,923.2733646407723,923.6235526502132,924.6282255463302,right,1,0.36887046694755554,0.15,,,,,,,,,,,s024,001,2024-08-05_09h20.22.529,simplestop_skeleton,2022.2.2,60.14871620739568,
$currentCorrectResponse,$currentGoStim,,,,,,,,,2,0,2,0,5,2,22,0,,,,,,,,,924.610368669033,stop,circleblack.png,left,0.15,,,,,,,,,,,,,,,0.0019304826855659485,0.48867129534482956,0.6390896141529083,927.1122040934861,test,3,,,,,,,,,,924.6282255463302,925.1253673993051,925.1253673993051,925.1420620083809,925.2756540291011,925.7758248671889,926.1262738630176,927.1298721991479,None,0,,0.2,,,,,,,,,,,s024,001,2024-08-05_09h20.22.529,simplestop_skeleton,2022.2.2,60.14871620739568,
$currentCorrectResponse,$currentGoStim,,,,,,,,,2,0,2,0,5,3,23,0,,,,,,,,,927.1126719266176,stop,squareblack.png,right,0.2,,,,,,,,,,,,,,,0.001685958355665207,0.4890945851802826,0.6892509013414383,929.6148845031857,test,3,,,,,,,,,,927.1298721991479,927.6279634311795,927.6279634311795,927.6445818245411,927.8281407430768,928.3286340050399,928.6301208101213,929.6322313472629,right,1,0.336908046156168,0.15,,,,,,,,,,,s024,001,2024-08-05_09h20.22.529,simplestop_skeleton,2022.2.2,60.14871620739568,
$currentCorrectResponse,$currentGoStim,,,,,,,,,2,0,2,0,6,0,24,0,,,,,,,,,929.6153307519853,go,circleblack.png,left,0.15,,,,,,,,,,,,,,,0.0017911791801452637,0.48963531479239464,,932.1197051592171,test,3,,,,,,,,,,929.6322313472629,930.1308091506362,930.1308091506362,930.1473933793604,930.2809438817203,930.7815726585686,931.1320241875947,932.1376670002937,left,1,0.4507322981953621,0.15,,,,,,,,,,,s024,001,2024-08-05_09h20.22.529,simplestop_skeleton,2022.2.2,60.14871620739568,
None,None,,,,,,,,,2,0,2,0,6,1,25,2,,,,,,,,,932.1201502196491,go,squareblack.png,right,0.15,,,,,,,,,,,,,,,0.0022945962846279144,0.4872741289436817,,934.6206296496093,test,3,,,,,,,,,,932.1376670002937,932.6337026245892,932.6337026245892,932.6503053791821,932.7838791795075,933.2841610461473,933.6345315128565,934.6387212909758,right,1,0.43624942749738693,0.15,,,,,,,,,,,s024,001,2024-08-05_09h20.22.529,simplestop_skeleton,2022.2.2,60.14871620739568,
None,None,,,,,,,,,2,0,2,0,6,2,26,1,,,,,,,,,934.621074706316,go,circleblack.png,left,0.15,,,,,,,,,,,,,,,0.0018479079008102417,0.4888514056801796,,937.1229371167719,test,3,,,,,,,,,,934.6387212909758,935.1362377740443,935.1362377740443,935.1529546901584,935.2863518372178,935.7869681417942,936.137948486954,937.1402373164892,left,1,0.4596381112933159,0.15,,,,,,,,,,,s024,001,2024-08-05_09h20.22.529,simplestop_skeleton,2022.2.2,60.14871620739568,
None,None,,,,,,,,,2,0,2,0,6,3,27,1,,,,,,,,,937.1233879067004,stop,squareblack.png,right,0.15,,,,,,,,,,,,,,,0.0015890896320343018,0.489595003426075,0.6397418230772018,939.6263643465936,test,3,,,,,,,,,,937.1402373164892,937.6390194408596,937.6390194408596,937.6558025069535,937.7895583510399,938.2899184338748,938.6403611376882,939.6444383449852,None,0,,0.2,,,,,,,,,,,s024,001,2024-08-05_09h20.22.529,simplestop_skeleton,2022.2.2,60.14871620739568,
$currentCorrectResponse,$currentGoStim,,,,,,,,,2,0,2,0,7,0,28,0,,,,,,,,,939.626799441874,go,circleblack.png,left,0.2,,,,,,,,,,,,,,,0.001747630536556244,0.4907055161893368,,942.1304744593799,test,3,,,,,,,,,,939.6444383449852,940.1436271890998,940.1436271890998,940.1436271890998,940.342180993408,940.8424491100013,941.1427822895348,942.1513534747064,left,1,0.2762880139052868,0.2,,,,,,,,,,,s024,001,2024-08-05_09h20.22.529,simplestop_skeleton,2022.2.2,60.14871620739568,
None,None,,,,,,,,,2,0,2,0,7,1,29,2,,,,,,,,,942.1309520415962,stop,squareblack.png,right,0.2,,,,,,,,,,,,,,,0.0026594363152980804,0.48701484873890877,0.6870003715157509,944.6313572563231,test,3,,,,,,,,,,942.1513534747064,942.6445412561297,942.6445412561297,942.6611223444343,942.8446794040501,943.3453250601888,943.6477145366371,944.6481496021152,right,1,0.2640252225100994,0.15,,,,,,,,,,,s024,001,2024-08-05_09h20.22.529,simplestop_skeleton,2022.2.2,60.14871620739568,
None,None,,,,,,,,,2,0,2,0,7,2,30,1,,,,,,,,,944.6317971758544,go,squareblack.png,right,0.15,,,,,,,,,,,,,,,0.001166846603155136,0.48941827565431595,,947.1338977105916,test,3,,,,,,,,,,944.6481496021152,945.1473023369908,945.1473023369908,945.1473023369908,945.29737880826,945.7982916720212,946.1484740972519,947.1512437127531,right,1,0.41773805394768715,0.15,,,,,,,,,,,s024,001,2024-08-05_09h20.22.529,simplestop_skeleton,2022.2.2,60.14871620739568,
None,None,,,,,,,,,2,0,2,0,7,3,31,3,,,,,,,,,947.1343523561954,go,circleblack.png,left,0.15,,,,,,,,,,,,,,,0.0018037483096122742,0.49078870564699173,,949.6383177228272,test,3,,,,,,,,,,947.1512437127531,947.6509772390127,947.6509772390127,947.6509772390127,947.8019693084061,948.317648358643,948.65111066401,949.6580741330981,left,1,0.3723132461309433,0.15,,,,,,,,,,,s024,001,2024-08-05_09h20.22.529,simplestop_skeleton,2022.2.2,60.14871620739568,
$currentCorrectResponse,$currentGoStim,,,,,,,,,2,0,2,0,8,0,32,0,,,,,,,,,949.6387660205364,go,squareblack.png,right,0.15,,,,,,,,,,,,,,,0.0017515718936920166,0.48817773163318634,,952.1396394185722,test,3,,,,,,,,,,949.6580741330981,950.1528984867036,950.1528984867036,950.1696489304304,950.3033128753304,950.8034965544939,951.1539013199508,952.1573319509625,right,1,0.3273661956191063,0.15,,,,,,,,,,,s024,001,2024-08-05_09h20.22.529,simplestop_skeleton,2022.2.2,60.14871620739568,
None,None,,,,,,,,,2,0,2,0,8,1,33,2,,,,,,,,,952.1400828771293,go,squareblack.png,right,0.15,,,,,,,,,,,,,,,0.0012559778988361359,0.4890940897166729,,954.6422779932618,test,3,,,,,,,,,,952.1573319509625,952.6555806957185,952.6555806957185,952.6721935048699,952.8057225681841,953.3087103888392,953.6578415073454,954.6597976498306,right,1,0.37461574748158455,0.15,,,,,,,,,,,s024,001,2024-08-05_09h20.22.529,simplestop_skeleton,2022.2.2,60.14871620739568,
None,None,,,,,,,,,2,0,2,0,8,2,34,2,,,,,,,,,954.6427446454763,stop,circleblack.png,left,0.15,,,,,,,,,,,,,,,0.001858878880739212,0.4896348603069782,0.6398404166102409,957.1476125866175,test,3,,,,,,,,,,954.6597976498306,955.1582649461925,955.1582649461925,955.1750685758889,955.3086539246142,955.810934048146,956.1595840677619,957.164841607213,None,0,,0.2,,,,,,,,,,,s024,001,2024-08-05_09h20.22.529,simplestop_skeleton,2022.2.2,60.14871620739568,
$currentCorrectResponse,$currentGoStim,,,,,,,,,2,0,2,0,8,3,35,0,,,,,,,,,957.1480778194964,stop,circleblack.png,left,0.2,,,,,,,,,,,,,,,0.00206124410033226,0.48857709392905235,0.6888559833168983,959.6498278789222,test,3,,,,,,,,,,957.164841607213,957.6630990430713,957.6630990430713,957.679651632905,957.8631271012127,958.3786688894033,958.6620410606265,959.6704491637647,left,1,0.4118061810731888,0.15,,,,,,,,,,,s024,001,2024-08-05_09h20.22.529,simplestop_skeleton,2022.2.2,60.14871620739568,
None,None,,,,,,,,,2,0,2,0,9,0,36,2,,,,,,,,,959.6503015868366,go,circleblack.png,left,0.15,,,,,,,,,,,,,,,0.001880396157503128,0.48675818368792534,,962.1504319086671,test,3,,,,,,,,,,959.6704491637647,960.1639983095229,960.1639983095229,960.1806095838547,960.3140141963959,960.8145775906742,961.1662579849362,962.1674446240067,left,1,0.44462285563349724,0.15,,,,,,,,,,,s024,001,2024-08-05_09h20.22.529,simplestop_skeleton,2022.2.2,60.14871620739568,
$currentCorrectResponse,$currentGoStim,,,,,,,,,2,0,2,0,9,1,37,0,,,,,,,,,962.1508760862052,go,squareblack.png,right,0.15,,,,,,,,,,,,,,,0.0016538165509700775,0.4899057559669018,,964.6532873772085,test,3,,,,,,,,,,962.1674446240067,962.6665318198502,962.6665318198502,962.6665318198502,962.8166949786246,963.3174216113985,963.667797408998,964.6701171025634,right,1,0.3327011875808239,0.15,,,,,,,,,,,s024,001,2024-08-05_09h20.22.529,simplestop_skeleton,2022.2.2,60.14871620739568,
None,None,,,,,,,,,2,0,2,0,9,2,38,1,,,,,,,,,964.6538674719632,go,squareblack.png,right,0.15,,,,,,,,,,,,,,,0.0011768527328968048,0.4908524118363857,,967.1567755751312,test,3,,,,,,,,,,964.6701171025634,965.1708769910038,965.1708769910038,965.1708769910038,965.320400800556,965.8202001750469,966.170484226197,967.1750843413174,right,1,0.4523810036480427,0.15,,,,,,,,,,,s024,001,2024-08-05_09h20.22.529,simplestop_skeleton,2022.2.2,60.14871620739568,
None,None,,,,,,,,,2,0,2,0,9,3,39,2,,,,,,,,,967.157204117626,go,circleblack.png,left,0.15,,,,,,,,,,,,,,,0.0018889307975769043,0.48881247267127037,,969.6591827943921,test,3,,,,,,,,,,967.1750843413174,967.6724115796387,967.6724115796387,967.6889667324722,967.8225072324276,968.3228524699807,968.6731931939721,969.6773810051382,left,1,0.38769666478037834,0.15,,,,,,,,,,,s024,001,2024-08-05_09h20.22.529,simplestop_skeleton,2022.2.2,60.14871620739568,
None,None,,,,,,,,,2,0,2,0,10,0,40,2,,,,,,,,,969.6596688628197,stop,squareblack.png,right,0.15,,,,,,,,,,,,,,,0.0017101503908634186,0.48894837871193886,0.6389819160103798,972.1616866588593,test,3,,,,,,,,,,969.6773810051382,970.1748265661299,970.1748265661299,970.1915439106524,970.3250117227435,970.8259335532784,971.17615763098,972.1783697456121,None,0,,0.2,,,,,,,,,,,s024,001,2024-08-05_09h20.22.529,simplestop_skeleton,2022.2.2,60.14871620739568,
None,None,,,,,,,,,2,0,2,0,10,1,41,1,,,,,,,,,972.1621204800904,go,squareblack.png,right,0.2,,,,,,,,,,,,,,,0.0013114064931869507,0.490168783813715,,974.66439242661,test,3,,,,,,,,,,972.1783697456121,972.6798582412302,972.6798582412302,972.6798582412302,972.8785556331277,973.3785935267806,973.6788630969822,974.6812905594707,right,1,0.4387270323932171,0.2,,,,,,,,,,,s024,001,2024-08-05_09h20.22.529,simplestop_skeleton,2022.2.2,60.14871620739568,
$currentCorrectResponse,$currentGoStim,,,,,,,,,2,0,2,0,10,2,42,0,,,,,,,,,974.6648191176355,stop,squareblack.png,right,0.2,,,,,,,,,,,,,,,0.001186717301607132,0.49184058234095573,0.691867720335722,977.1691578254104,test,3,,,,,,,,,,974.6812905594707,975.1821541972458,975.1821541972458,975.1821541972458,975.3806926161051,975.8811097443104,976.1814920902252,977.1963607110083,None,0,,0.25,,,,,,,,,,,s024,001,2024-08-05_09h20.22.529,simplestop_skeleton,2022.2.2,60.14871620739568,
None,None,,,,,,,,,2,0,2,0,10,3,43,3,,,,,,,,,977.1696107201278,go,circleblack.png,left,0.25,,,,,,,,,,,,,,,0.00831325352191925,0.48639797419309616,,979.6707552745938,test,3,,,,,,,,,,977.1963607110083,977.6832839250565,977.6832839250565,977.7001162096858,977.9335942454636,978.4341582655907,978.684195253998,979.6900594756007,left,1,0.3283560909330845,0.25,,,,,,,,,,,s024,001,2024-08-05_09h20.22.529,simplestop_skeleton,2022.2.2,60.14871620739568,
None,None,,,,,,,,,2,0,2,0,11,0,44,3,,,,,,,,,979.6712157838047,stop,circleblack.png,left,0.25,,,,,,,,,,,,,,,0.0025046542286872864,0.4873049110174179,0.7376031130552292,982.1729284413159,test,3,,,,,,,,,,979.6900594756007,980.1860499121249,980.1860499121249,980.2026115693152,980.4362584389746,980.9377604238689,981.1888434998691,982.2037810795009,left,1,0.3748067319393158,0.2,,,,,,,,,,,s024,001,2024-08-05_09h20.22.529,simplestop_skeleton,2022.2.2,60.14871620739568,
None,None,,,,,,,,,2,0,2,0,11,1,45,3,,,,,,,,,982.1733632087708,go,circleblack.png,left,0.2,,,,,,,,,,,,,,,0.0012340061366558075,0.4900990128517151,,984.6753916926682,test,3,,,,,,,,,,982.2037810795009,982.6896918788552,982.6896918788552,982.7060135118663,982.8906281851232,983.3896311186254,983.689783833921,984.692291200161,left,1,0.48820507526397705,0.2,,,,,,,,,,,s024,001,2024-08-05_09h20.22.529,simplestop_skeleton,2022.2.2,60.14871620739568,
None,None,,,,,,,,,2,0,2,0,11,2,46,3,,,,,,,,,984.6758273988962,stop,circleblack.png,left,0.2,,,,,,,,,,,,,,,0.0012281350791454315,0.49157120659947395,0.6902635656297207,987.1785169504583,test,3,,,,,,,,,,984.692291200161,985.193163830787,985.193163830787,985.193163830787,985.3918887414038,985.8921922072768,986.1924136951566,987.201140601188,None,0,,0.25,,,,,,,,,,,s024,001,2024-08-05_09h20.22.529,simplestop_skeleton,2022.2.2,60.14871620739568,
None,None,,,,,,,,,2,0,2,0,11,3,47,1,,,,,,,,,987.1789802387357,go,squareblack.png,right,0.25,,,,,,,,,,,,,,,0.007256507873535156,0.4889846220612526,,989.680917814374,test,3,,,,,,,,,,987.201140601188,987.6941920593381,987.6941920593381,987.7108416594565,987.9448846466839,988.445056848228,988.6959634311497,989.6980832740664,right,1,0.3240273855626583,0.25,,,,,,,,,,,s024,001,2024-08-05_09h20.22.529,simplestop_skeleton,2022.2.2,60.14871620739568,
