corrGoResp,shape,practiceBlocks.thisRepN,practiceBlocks.thisTrialN,practiceBlocks.thisN,practiceBlocks.thisIndex,practiceTrials.thisRepN,practiceTrials.thisTrialN,practiceTrials.thisN,practiceTrials.thisIndex,stopBlocks.thisRepN,stopBlocks.thisTrialN,stopBlocks.thisN,stopBlocks.thisIndex,testTrials.thisRepN,testTrials.thisTrialN,testTrials.thisN,testTrials.thisIndex,stopPracTrialList,Test Block: 1,welcome.started,start_exp.started,start_exp.keys,start_exp.rt,instrStopText.started,start_prac.started,StartTrialTimeStamp,trialType,goStim,correctResponse,ssd,fixation.started,rules.started,goStim.started,goResp.started,fixation.stopped,stopSignal.started,stopSignal.stopped,goStim.stopped,goResp.stopped,rules.stopped,goResp.keys,goResp.corr,text.started,rules_2.started,fixationOnset,goStimOnset,stopSignalOnset,EndTrialTimeStamp,Phase,Block,goResp.rt,text.stopped,rules_2.stopped,text_5.started,key_resp_3.started,key_resp_3.keys,key_resp_3.rt,key_resp.started,testText.started,test_fixation.started,test_fixation.stopped,goStim_test.started,goResp_test.started,stopSignal_test.started,stopSignal_test.stopped,goStim_test.stopped,goResp_test.stopped,goResp_test.keys,goResp_test.corr,goResp_test.rt,EndingSSD,text_6.started,key_resp_4.started,key_resp_4.keys,key_resp_4.rt,Test Block: 2,Test Block: 3,ending_text.started,end_resp.started,end_resp.keys,end_resp.rt,participant,session,date,expName,psychopyVersion,frameRate,
,,,,,,,,,,,,,,,,,,"[{'fileName': 'squareblack.png', 'correct_response': 'right', 'condition': 'go'}, {'fileName': 'circleblack.png', 'correct_response': 'left', 'condition': 'go'}, {'fileName': 'squareblack.png', 'correct_response': 'right', 'condition': 'stop'}, {'fileName': 'squareblack.png', 'correct_response': 'right', 'condition': 'stop'}, {'fileName': 'squareblack.png', 'correct_response': 'right', 'condition': 'go'}, {'fileName': 'circleblack.png', 'correct_response': 'left', 'condition': 'stop'}, {'fileName': 'squareblack.png', 'correct_response': 'right', 'condition': 'go'}, {'fileName': 'squareblack.png', 'correct_response': 'right', 'condition': 'go'}, {'fileName': 'circleblack.png', 'correct_response': 'left', 'condition': 'go'}, {'fileName': 'circleblack.png', 'correct_response': 'left', 'condition': 'go'}, {'fileName': 'circleblack.png', 'correct_response': 'left', 'condition': 'stop'}, {'fileName': 'circleblack.png', 'correct_response': 'left', 'condition': 'go'}, {'fileName': 'squareblack.png', 'correct_response': 'right', 'condition': 'go'}, {'fileName': 'circleblack.png', 'correct_response': 'left', 'condition': 'go'}, {'fileName': 'squareblack.png', 'correct_response': 'right', 'condition': 'go'}, {'fileName': 'squareblack.png', 'correct_response': 'right', 'condition': 'go'}, {'fileName': 'circleblack.png', 'correct_response': 'left', 'condition': 'stop'}, {'fileName': 'circleblack.png', 'correct_response': 'left', 'condition': 'go'}, {'fileName': 'circleblack.png', 'correct_response': 'left', 'condition': 'go'}, {'fileName': 'circleblack.png', 'correct_response': 'left', 'condition': 'go'}, {'fileName': 'circleblack.png', 'correct_response': 'left', 'condition': 'stop'}, {'fileName': 'squareblack.png', 'correct_response': 'right', 'condition': 'stop'}, {'fileName': 'squareblack.png', 'correct_response': 'right', 'condition': 'stop'}, {'fileName': 'squareblack.png', 'correct_response': 'right', 'condition': 'go'}]","[{'fileName': 'circleblack.png', 'correct_response': 'left', 'condition': 'go'}, {'fileName': 'squareblack.png', 'correct_response': 'right', 'condition': 'go'}, {'fileName': 'squareblack.png', 'correct_response': 'right', 'condition': 'go'}, {'fileName': 'squareblack.png', 'correct_response': 'right', 'condition': 'go'}, {'fileName': 'squareblack.png', 'correct_response': 'right', 'condition': 'stop'}, {'fileName': 'circleblack.png', 'correct_response': 'left', 'condition': 'go'}, {'fileName': 'circleblack.png', 'correct_response': 'left', 'condition': 'go'}, {'fileName': 'squareblack.png', 'correct_response': 'right', 'condition': 'stop'}, {'fileName': 'squareblack.png', 'correct_response': 'right', 'condition': 'go'}, {'fileName': 'circleblack.png', 'correct_response': 'left', 'condition': 'go'}, {'fileName': 'circleblack.png', 'correct_response': 'left', 'condition': 'stop'}, {'fileName': 'circleblack.png', 'correct_response': 'left', 'condition': 'stop'}, {'fileName': 'circleblack.png', 'correct_response': 'left', 'condition': 'stop'}, {'fileName': 'squareblack.png', 'correct_response': 'right', 'condition': 'go'}, {'fileName': 'circleblack.png', 'correct_response': 'left', 'condition': 'stop'}, {'fileName': 'squareblack.png', 'correct_response': 'right', 'condition': 'go'}, {'fileName': 'squareblack.png', 'correct_response': 'right', 'condition': 'go'}, {'fileName': 'circleblack.png', 'correct_response': 'left', 'condition': 'go'}, {'fileName': 'squareblack.png', 'correct_response': 'right', 'condition': 'stop'}, {'fileName': 'circleblack.png', 'correct_response': 'left', 'condition': 'go'}, {'fileName': 'squareblack.png', 'correct_response': 'right', 'condition': 'go'}, {'fileName': 'squareblack.png', 'correct_response': 'right', 'condition': 'stop'}, {'fileName': 'circleblack.png', 'correct_response': 'left', 'condition': 'go'}, {'fileName': 'circleblack.png', 'correct_response': 'left', 'condition': 'go'}, {'fileName': 'squareblack.png', 'correct_response': 'right', 'condition': 'go'}, {'fileName': 'squareblack.png', 'correct_response': 'right', 'condition': 'go'}, {'fileName': 'squareblack.png', 'correct_response': 'right', 'condition': 'stop'}, {'fileName': 'squareblack.png', 'correct_response': 'right', 'condition': 'stop'}, {'fileName': 'circleblack.png', 'correct_response': 'left', 'condition': 'stop'}, {'fileName': 'circleblack.png', 'correct_response': 'left', 'condition': 'go'}, {'fileName': 'circleblack.png', 'correct_response': 'left', 'condition': 'go'}, {'fileName': 'circleblack.png', 'correct_response': 'left', 'condition': 'go'}, {'fileName': 'circleblack.png', 'correct_response': 'left', 'condition': 'stop'}, {'fileName': 'squareblack.png', 'correct_response': 'right', 'condition': 'go'}, {'fileName': 'squareblack.png', 'correct_response': 'right', 'condition': 'go'}, {'fileName': 'circleblack.png', 'correct_response': 'left', 'condition': 'go'}, {'fileName': 'squareblack.png', 'correct_response': 'right', 'condition': 'stop'}, {'fileName': 'circleblack.png', 'correct_response': 'left', 'condition': 'go'}, {'fileName': 'squareblack.png', 'correct_response': 'right', 'condition': 'go'}, {'fileName': 'circleblack.png', 'correct_response': 'left', 'condition': 'go'}, {'fileName': 'squareblack.png', 'correct_response': 'right', 'condition': 'stop'}, {'fileName': 'circleblack.png', 'correct_response': 'left', 'condition': 'go'}, {'fileName': 'squareblack.png', 'correct_response': 'right', 'condition': 'go'}, {'fileName': 'circleblack.png', 'correct_response': 'left', 'condition': 'stop'}, {'fileName': 'squareblack.png', 'correct_response': 'right', 'condition': 'go'}, {'fileName': 'circleblack.png', 'correct_response': 'left', 'condition': 'stop'}, {'fileName': 'circleblack.png', 'correct_response': 'left', 'condition': 'go'}, {'fileName': 'squareblack.png', 'correct_response': 'right', 'condition': 'go'}]",1012.2003979943693,1012.2003979943693,return,3.3466909304261208,,,,,,,,,,,,,,,,,,,,,,,,,,,,,,,,,,,,,,,,,,,,,,,,,,,,,,,,,,,s016,001,2024-07-22_12h03.07.879,simplestop_skeleton,2022.2.2,59.94793615396527,
None,None,0,0,0,0,0,0,0,1,,,,,,,,,,,,,,,1015.5924629978836,1015.5924629978836,1110.3380165174603,go,squareblack.png,right,0.35,1110.3799306713045,1110.3799306713045,1110.8472941964865,1110.8472941964865,1110.8807369209826,1111.1977585218847,1111.698183055967,1111.848398346454,1112.849333230406,1112.8849989026785,None,0,1112.8849989026785,1112.8849989026785,0.002803560346364975,0.4823233634233475,0.8325976431369781,1113.3845446109772,practice,1,,,,,,,,,,,,,,,,,,,,,,,,,,,,,,,,s016,001,2024-07-22_12h03.07.879,simplestop_skeleton,2022.2.2,59.94793615396527,
None,None,0,0,0,0,0,1,1,2,,,,,,,,,,,,,,,,,1113.3851430267096,go,circleblack.png,left,0.35,1113.4076339155436,1113.4076339155436,1113.9007585830986,1113.9007585830986,1113.9172719605267,1114.2509760931134,1114.7517262287438,1114.9017437286675,1115.9028782621026,1115.9196166060865,None,0,1115.9196166060865,1115.9196166060865,0.005087520927190781,0.48935259878635406,0.8397366143763065,1116.404285941273,practice,1,,,,,,,,,,,,,,,,,,,,,,,,,,,,,,,,s016,001,2024-07-22_12h03.07.879,simplestop_skeleton,2022.2.2,59.94793615396527,
$currentCorrectResponse,$currentGoStim,0,0,0,0,0,2,2,0,,,,,,,,,,,,,,,,,1116.4047502875328,stop,squareblack.png,right,0.35,1116.4247448444366,1116.4247448444366,1116.9191460311413,1116.9191460311413,1116.9358358494937,1117.2695206962526,1117.7710687294602,1117.9216182269156,1118.9227479957044,1118.9395209290087,right,1,1118.9395209290087,1118.9395209290087,0.0016983672976493835,0.48813309893012047,0.8386411741375923,1119.4242902323604,practice,1,0.49354128912091255,1119.444287724793,1119.444287724793,,,,,,,,,,,,,,,,,,,,,,,,,,,,,s016,001,2024-07-22_12h03.07.879,simplestop_skeleton,2022.2.2,59.94793615396527,
None,None,0,0,0,0,0,3,3,3,,,,,,,,,,,,,,,,,1119.4247095100582,stop,squareblack.png,right,0.3,1119.444287724793,1119.444287724793,1119.9405524171889,1119.9405524171889,1119.957587365061,1120.2408705949783,1120.74148517102,1120.9416505210102,1121.942765507847,1121.9596232660115,None,0,1121.9596232660115,1121.9596232660115,0.001291867345571518,0.4896293431520462,0.7901101969182491,1122.4441047646105,practice,1,,,,,,,,,,,,,,,,,,,,,,,,,,,,,,,,s016,001,2024-07-22_12h03.07.879,simplestop_skeleton,2022.2.2,59.94793615396527,
None,None,0,0,0,0,1,0,4,1,,,,,,,,,,,,,,,,,1122.4445428401232,go,squareblack.png,right,0.35,1122.4642241559923,1122.4642241559923,1122.9604803360999,1122.9604803360999,1122.9773901887238,1123.31091003865,1123.8116526268423,1123.9619052037597,1124.9627827070653,1124.9793962687254,None,0,1124.9793962687254,1124.9793962687254,0.001282036304473877,0.4900399148464203,0.8404828198254108,1125.4642489179969,practice,1,,1125.4847781583667,1125.4847781583667,,,,,,,,,,,,,,,,,,,,,,,,,,,,,s016,001,2024-07-22_12h03.07.879,simplestop_skeleton,2022.2.2,59.94793615396527,
None,None,0,0,0,0,1,1,5,1,,,,,,,,,,,,,,,,,1125.4646690189838,stop,circleblack.png,left,0.35,1125.4847781583667,1125.4847781583667,1125.9805907644331,1125.9805907644331,1125.9971050433815,1126.330849736929,1126.8314509391785,1126.9804658070207,1127.9828394167125,1127.9994577355683,left,1,1127.9994577355683,1127.9994577355683,0.0018176250159740448,0.49005890265107155,0.8403389751911163,1128.484198782593,practice,1,0.7148269526660442,1128.504386883229,1128.504386883229,,,,,,,,,,,,,,,,,,,,,,,,,,,,,s016,001,2024-07-22_12h03.07.879,simplestop_skeleton,2022.2.2,59.94793615396527,
None,None,0,0,0,0,1,2,6,2,,,,,,,,,,,,,,,,,1128.4846186898649,go,squareblack.png,right,0.3,1128.504386883229,1128.504386883229,1129.0007557608187,1129.0007557608187,1129.01743754372,1129.300757266581,1129.8015176393092,1130.0001987107098,1131.0027250163257,1131.0194984972477,right,1,1131.0194984972477,1131.0194984972477,0.001663699746131897,0.49013087898492813,0.7900916002690792,1131.5045276731253,practice,1,0.6181840263307095,1131.524213321507,1131.524213321507,,,,,,,,,,,,,,,,,,,,,,,,,,,,,s016,001,2024-07-22_12h03.07.879,simplestop_skeleton,2022.2.2,59.94793615396527,
None,None,0,0,0,0,1,3,7,2,,,,,,,,,,,,,,,,,1131.5049661509693,go,squareblack.png,right,0.3,1131.524213321507,1131.524213321507,1132.0205770805478,1132.0205770805478,1132.0375660657883,1132.3213109113276,1132.8217504248023,1133.020897038281,1134.0228059068322,1134.039477262646,right,1,1134.039477262646,1134.039477262646,0.0012890137732028961,0.4897398576140404,0.7898894511163235,1134.52428490296,practice,1,0.6730220951139927,,,,,,,,,,,,,,,,,,,,,,,,,,,,,,,s016,001,2024-07-22_12h03.07.879,simplestop_skeleton,2022.2.2,59.94793615396527,
None,None,0,0,0,0,2,0,8,3,,,,,,,,,,,,,,,,,1134.5247091501951,go,circleblack.png,left,0.3,1134.5443118810654,1134.5443118810654,1135.040837019682,1135.040837019682,1135.0574114769697,1135.3411437571049,1135.8414768576622,1136.0403535291553,1137.0429173894227,1137.0595620647073,left,1,1137.0595620647073,1137.0595620647073,0.0018659532070159912,0.49044960364699364,0.7902772575616837,1137.5443670116365,practice,1,0.6231598667800426,1137.5641696229577,1137.5641696229577,,,,,,,,,,,,,,,,,,,,,,,,,,,,,s016,001,2024-07-22_12h03.07.879,simplestop_skeleton,2022.2.2,59.94793615396527,
$currentCorrectResponse,$currentGoStim,0,0,0,0,2,1,9,0,,,,,,,,,,,,,,,,,1137.5447893738747,go,circleblack.png,left,0.3,1137.5641696229577,1137.5641696229577,1138.0606932602823,1138.0606932602823,1138.077577892691,1138.3613231927156,1138.8614755533636,1139.060264416039,1140.062998931855,1140.0796340480447,left,1,1140.0796340480447,1140.0796340480447,0.0012545287609100342,0.4899712912738323,0.7903143689036369,1140.564453996718,practice,1,0.6979718506336212,1140.5842779949307,1140.5842779949307,,,,,,,,,,,,,,,,,,,,,,,,,,,,,s016,001,2024-07-22_12h03.07.879,simplestop_skeleton,2022.2.2,59.94793615396527,
None,None,0,0,0,0,2,2,10,3,,,,,,,,,,,,,,,,,1140.5648654848337,stop,circleblack.png,left,0.3,1140.5842779949307,1140.5842779949307,1141.0807219967246,1141.0807219967246,1141.0973568037152,1141.3809430487454,1141.880040206015,1142.080282960087,1143.0827226266265,1143.0997109301388,left,1,1143.0997109301388,1143.0997109301388,0.0013275854289531708,0.48997362703084946,0.7903854288160801,1143.5842963345349,practice,1,0.49684111401438713,1143.6037653461099,1143.6037653461099,,,,,,,,,,,,,,,,,,,,,,,,,,,,,s016,001,2024-07-22_12h03.07.879,simplestop_skeleton,2022.2.2,59.94793615396527,
None,None,0,0,0,0,2,3,11,3,,,,,,,,,,,,,,,,,1143.584736701101,go,circleblack.png,left,0.25,1143.6037653461099,1143.6037653461099,1144.1005678474903,1144.1005678474903,1144.1173347644508,1144.3509255126119,1144.8513849377632,1145.1001847945154,1146.1028044074774,1146.1197175495327,left,1,1146.1197175495327,1146.1197175495327,0.0012790895998477936,0.4901493899524212,0.7404522262513638,1146.6044154949486,practice,1,0.5422359742224216,1146.6242217496037,1146.6242217496037,,,,,,,,,,,,,,,,,,,,,,,,,,,,,s016,001,2024-07-22_12h03.07.879,simplestop_skeleton,2022.2.2,59.94793615396527,
$currentCorrectResponse,$currentGoStim,0,0,0,0,3,0,12,0,,,,,,,,,,,,,,,,,1146.6048402637243,go,squareblack.png,right,0.25,1146.6242217496037,1146.6242217496037,1147.1207815408707,1147.1207815408707,1147.1375871673226,1147.3709556497633,1147.8700843378901,1148.1206990368664,1149.1228844448924,1149.1397204510868,right,1,1149.1397204510868,1149.1397204510868,0.0017008967697620392,0.49019303917884827,0.7403370179235935,1149.6242997385561,practice,1,0.3935996852815151,1149.644333794713,1149.644333794713,,,,,,,,,,,,,,,,,,,,,,,,,,,,,s016,001,2024-07-22_12h03.07.879,simplestop_skeleton,2022.2.2,59.94793615396527,
$currentCorrectResponse,$currentGoStim,0,0,0,0,3,1,13,0,,,,,,,,,,,,,,,,,1149.6247229799628,go,circleblack.png,left,0.25,1149.644333794713,1149.644333794713,1150.1409216672182,1150.1409216672182,1150.157972689718,1150.39087568596,1150.8899825625122,1151.1404012925923,1152.1431464478374,1152.1595206186175,left,1,1152.1595206186175,1152.1595206186175,0.001757550984621048,0.49001892283558846,0.7401637323200703,1152.6442452035844,practice,1,0.4565378278493881,1152.664106760174,1152.664106760174,,,,,,,,,,,,,,,,,,,,,,,,,,,,,s016,001,2024-07-22_12h03.07.879,simplestop_skeleton,2022.2.2,59.94793615396527,
None,None,0,0,0,0,3,2,14,3,,,,,,,,,,,,,,,,,1152.6446622349322,go,squareblack.png,right,0.25,1152.664106760174,1152.664106760174,1153.160725299269,1153.160725299269,1153.1773874759674,1153.4108843170106,1153.9114349894226,1154.1602171361446,1155.1630021557212,1155.1630021557212,right,1,1155.1630021557212,1155.1630021557212,0.0017551444470882416,0.49002522602677345,0.7403563782572746,1155.6475799418986,practice,1,0.49311599880456924,1155.6668874844909,1155.6668874844909,,,,,,,,,,,,,,,,,,,,,,,,,,,,,s016,001,2024-07-22_12h03.07.879,simplestop_skeleton,2022.2.2,59.94793615396527,
None,None,0,0,0,0,3,3,15,2,,,,,,,,,,,,,,,,,1155.6480140425265,go,squareblack.png,right,0.25,1155.6668874844909,1155.6668874844909,1156.164168253541,1156.164168253541,1156.180698171258,1156.4141142778099,1156.9148475639522,1157.163563452661,1158.166270621121,1158.166270621121,right,1,1158.166270621121,1158.166270621121,0.0011893697082996368,0.4902575984597206,0.7402942404150963,1158.6511645764112,practice,1,0.4914197213947773,1158.6714166589081,1158.6714166589081,,,,,,,,,,,,,,,,,,,,,,,,,,,,,s016,001,2024-07-22_12h03.07.879,simplestop_skeleton,2022.2.2,59.94793615396527,
$currentCorrectResponse,$currentGoStim,0,0,0,0,4,0,16,0,,,,,,,,,,,,,,,,,1158.6515830606222,stop,circleblack.png,left,0.25,1158.6714166589081,1158.6714166589081,1159.1675560548902,1159.1675560548902,1159.1839511170983,1159.4178282879293,1159.9167937934399,1160.1669436134398,1161.1695671379566,1161.1864473968744,left,1,1161.1864473968744,1161.1864473968744,0.001975521445274353,0.4898769408464432,0.7399664223194122,1161.6711070351303,practice,1,0.47190697863698006,,,,,,,,,,,,,,,,,,,,,,,,,,,,,,,s016,001,2024-07-22_12h03.07.879,simplestop_skeleton,2022.2.2,59.94793615396527,
None,None,0,0,0,0,4,1,17,2,,,,,,,,,,,,,,,,,1161.6715353764594,go,circleblack.png,left,0.2,1161.6907692588866,1161.6907692588866,1162.1873201578856,1162.1873201578856,1162.2039013542235,1162.3875916860998,1162.8880654722452,1163.1870285719633,1164.1893457472324,1164.2061069570482,left,1,1164.2061069570482,1164.2061069570482,0.0013900622725486755,0.4900239296257496,0.6901045143604279,1164.6910181492567,practice,1,0.5950293987989426,1164.710458572954,1164.710458572954,,,,,,,,,,,,,,,,,,,,,,,,,,,,,s016,001,2024-07-22_12h03.07.879,simplestop_skeleton,2022.2.2,59.94793615396527,
None,None,0,0,0,0,4,2,18,1,,,,,,,,,,,,,,,,,1164.6914357692003,go,circleblack.png,left,0.2,1164.710458572954,1164.710458572954,1165.2075885869563,1165.2075885869563,1165.2238228842616,1165.4085102118552,1165.9232349917293,1166.2069558687508,1167.209265589714,1167.2263290248811,left,1,1167.2263290248811,1167.2263290248811,0.0012545660138130188,0.4899027794599533,0.6904721520841122,1167.7106870375574,practice,1,0.4599817246198654,,,,,,,,,,,,,,,,,,,,,,,,,,,,,,,s016,001,2024-07-22_12h03.07.879,simplestop_skeleton,2022.2.2,59.94793615396527,
$currentCorrectResponse,$currentGoStim,0,0,0,0,4,3,19,0,,,,,,,,,,,,,,,,,1167.711109340191,go,circleblack.png,left,0.2,1167.7303230725229,1167.7303230725229,1168.2272992767394,1168.2272992767394,1168.243940256536,1168.4274762906134,1168.9280737638474,1169.2269829697907,1170.2281004749238,1170.2446820177138,left,1,1170.2446820177138,1170.2446820177138,0.001259397715330124,0.49021268635988235,0.6904889717698097,1170.7307150959969,practice,1,0.4555095136165619,,,,,,,,,,,,,,,,,,,,,,,,,,,,,,,s016,001,2024-07-22_12h03.07.879,simplestop_skeleton,2022.2.2,59.94793615396527,
None,None,0,0,0,0,5,0,20,3,,,,,,,,,,,,,,,,,1170.7311470396817,stop,circleblack.png,left,0.2,1170.7504783645272,1170.7504783645272,1171.2470806352794,1171.2470806352794,1171.264164276421,1171.4475146755576,1171.9479475729167,1172.2484967038035,1173.2497489713132,1173.2497489713132,None,0,1173.2497489713132,1173.2497489713132,0.0012718811631202698,0.49004272371530533,0.6904651969671249,1173.7345250435174,practice,1,,1173.7542041428387,1173.7542041428387,,,,,,,,,,,,,,,,,,,,,,,,,,,,,s016,001,2024-07-22_12h03.07.879,simplestop_skeleton,2022.2.2,59.94793615396527,
None,None,0,0,0,0,5,1,21,1,,,,,,,,,,,,,,,,,1173.734957728535,stop,squareblack.png,right,0.25,1173.7542041428387,1173.7542041428387,1174.250819284469,1174.250819284469,1174.2671723812819,1174.5009291805327,1175.001328792423,1175.2517822273076,1176.2527744472027,1176.2696639411151,None,0,1176.2696639411151,1176.2696639411151,0.0017221979796886444,0.4899241589009762,0.7401334643363953,1176.754252370447,practice,1,,1176.7739901579916,1176.7739901579916,,,,,,,,,,,,,,,,,,,,,,,,,,,,,s016,001,2024-07-22_12h03.07.879,simplestop_skeleton,2022.2.2,59.94793615396527,
None,None,0,0,0,0,5,2,22,2,,,,,,,,,,,,,,,,,1176.754678260535,stop,squareblack.png,right,0.3,1176.7739901579916,1176.7739901579916,1177.2690460160375,1177.2690460160375,1177.2856781706214,1177.5694858692586,1178.0712662413716,1178.2716637961566,1179.2726368196309,1179.2893023304641,None,0,1179.2893023304641,1179.2893023304641,0.001212380826473236,0.4885072857141495,0.7888825237751007,1179.7739417813718,practice,1,,1179.7931785359979,1179.7931785359979,,,,,,,,,,,,,,,,,,,,,,,,,,,,,s016,001,2024-07-22_12h03.07.879,simplestop_skeleton,2022.2.2,59.94793615396527,
None,None,0,0,0,0,5,3,23,1,,,,,,,,,,,,,,,,,1179.774355981499,go,squareblack.png,right,0.35,1179.7931785359979,1179.7931785359979,1180.290365215391,1180.290365215391,1180.3071990124881,1180.640837945044,1181.141451176256,1181.2901026904583,1182.2927170544863,1182.2927170544863,right,1,1182.2927170544863,1182.2927170544863,0.0011874288320541382,0.4904378093779087,0.8408531844615936,1182.7775720506907,practice,1,0.5857276767492294,1182.7946831174195,1182.7946831174195,,,,,,,,,,,,,,,,,,,,,,,,,,,,,s016,001,2024-07-22_12h03.07.879,simplestop_skeleton,2022.2.2,59.94793615396527,
,,0,0,0,0,,,,,,,,,,,,,"[{'fileName': 'squareblack.png', 'correct_response': 'right', 'condition': 'stop'}, {'fileName': 'circleblack.png', 'correct_response': 'left', 'condition': 'go'}, {'fileName': 'circleblack.png', 'correct_response': 'left', 'condition': 'stop'}, {'fileName': 'circleblack.png', 'correct_response': 'left', 'condition': 'stop'}, {'fileName': 'squareblack.png', 'correct_response': 'right', 'condition': 'stop'}, {'fileName': 'squareblack.png', 'correct_response': 'right', 'condition': 'go'}, {'fileName': 'squareblack.png', 'correct_response': 'right', 'condition': 'go'}, {'fileName': 'circleblack.png', 'correct_response': 'left', 'condition': 'go'}, {'fileName': 'circleblack.png', 'correct_response': 'left', 'condition': 'go'}, {'fileName': 'squareblack.png', 'correct_response': 'right', 'condition': 'go'}, {'fileName': 'squareblack.png', 'correct_response': 'right', 'condition': 'go'}, {'fileName': 'circleblack.png', 'correct_response': 'left', 'condition': 'go'}, {'fileName': 'squareblack.png', 'correct_response': 'right', 'condition': 'stop'}, {'fileName': 'squareblack.png', 'correct_response': 'right', 'condition': 'stop'}, {'fileName': 'circleblack.png', 'correct_response': 'left', 'condition': 'go'}, {'fileName': 'squareblack.png', 'correct_response': 'right', 'condition': 'go'}, {'fileName': 'circleblack.png', 'correct_response': 'left', 'condition': 'stop'}, {'fileName': 'circleblack.png', 'correct_response': 'left', 'condition': 'stop'}, {'fileName': 'circleblack.png', 'correct_response': 'left', 'condition': 'go'}, {'fileName': 'squareblack.png', 'correct_response': 'right', 'condition': 'go'}, {'fileName': 'squareblack.png', 'correct_response': 'right', 'condition': 'go'}, {'fileName': 'circleblack.png', 'correct_response': 'left', 'condition': 'go'}, {'fileName': 'circleblack.png', 'correct_response': 'left', 'condition': 'go'}, {'fileName': 'squareblack.png', 'correct_response': 'right', 'condition': 'go'}]",,,,,,,,,,,,,,,,,,,,,,,,,,,,,,,,,,,,1182.7946831174195,1182.7946831174195,return,3.828713070601225,,,,,,,,,,,,,,,,,,,,,,,,,s016,001,2024-07-22_12h03.07.879,simplestop_skeleton,2022.2.2,59.94793615396527,
None,None,,,,,,,,,0,0,0,0,0,0,0,2,,,,,,,,,1224.4158546701074,go,circleblack.png,left,0.35,,,,,,,,,,,,,,,0.002318684011697769,0.49732932448387146,,1226.9267610758543,test,1,,,,,,,,1186.6475629806519,1186.6475629806519,1224.4354982078075,1224.939810924232,1224.939810924232,1224.939810924232,1225.290433485061,1225.79086824134,1225.9411531090736,1226.9460912495852,left,1,0.7817628048360348,0.35,,,,,,,,,,,s016,001,2024-07-22_12h03.07.879,simplestop_skeleton,2022.2.2,59.94793615396527,
None,None,,,,,,,,,0,0,0,0,0,1,1,3,,,,,,,,,1226.927296847105,go,squareblack.png,right,0.35,,,,,,,,,,,,,,,0.001750703901052475,0.4893134608864784,,1229.4293315708637,test,1,,,,,,,,,,1226.9460912495852,1227.4591512791812,1227.4424058273435,1227.4424058273435,1227.792772617191,1228.2933302782476,1228.44222503528,1229.448644451797,right,1,0.5890665613114834,0.35,,,,,,,,,,,s016,001,2024-07-22_12h03.07.879,simplestop_skeleton,2022.2.2,59.94793615396527,
$currentCorrectResponse,$currentGoStim,,,,,,,,,0,0,0,0,0,2,2,0,,,,,,,,,1229.429776377976,go,squareblack.png,right,0.35,,,,,,,,,,,,,,,0.0013513639569282532,0.4892258830368519,,1231.9318277686834,test,1,,,,,,,,,,1229.448644451797,1229.9619405940175,1229.9451047293842,1229.9451047293842,1230.2955357953906,1230.7962031625211,1230.9452335461974,1231.9509828798473,right,1,0.6468044072389603,0.35,,,,,,,,,,,s016,001,2024-07-22_12h03.07.879,simplestop_skeleton,2022.2.2,59.94793615396527,
$currentCorrectResponse,$currentGoStim,,,,,,,,,0,0,0,0,0,3,3,0,,,,,,,,,1231.932266689837,go,squareblack.png,right,0.35,,,,,,,,,,,,,,,0.0013286620378494263,0.4896589666604996,,1234.4345128461719,test,1,,,,,,,,,,1231.9509828798473,1232.4650128372014,1232.4482308030128,1232.4482308030128,1232.7982786409557,1233.2978514172137,1233.447644032538,1234.4537053965032,right,1,0.5446771942079067,0.35,,,,,,,,,,,s016,001,2024-07-22_12h03.07.879,simplestop_skeleton,2022.2.2,59.94793615396527,
None,None,,,,,,,,,0,0,0,0,1,0,4,1,,,,,,,,,1234.4349507801235,stop,squareblack.png,right,0.35,,,,,,,,,,,,,,,0.0013433769345283508,0.4898192286491394,0.8398924432694912,1236.9374465085566,test,1,,,,,,,,,,1234.4537053965032,1234.9672854542732,1234.9507906995714,1234.9507906995714,1235.3010425455868,1235.8016968630254,1235.9503796100616,1236.9570557437837,right,1,0.6856411695480347,0.3,,,,,,,,,,,s016,001,2024-07-22_12h03.07.879,simplestop_skeleton,2022.2.2,59.94793615396527,
None,None,,,,,,,,,0,0,0,0,1,1,5,1,,,,,,,,,1236.9378788359463,go,circleblack.png,left,0.3,,,,,,,,,,,,,,,0.0019201822578907013,0.48960715904831886,,1239.4403817392886,test,1,,,,,,,,,,1236.9570557437837,1237.470395438373,1237.4536701329052,1237.4536701329052,1237.753845255822,1238.2532076649368,1238.4532255716622,1239.459444783628,left,1,0.4337962158024311,0.3,,,,,,,,,,,s016,001,2024-07-22_12h03.07.879,simplestop_skeleton,2022.2.2,59.94793615396527,
None,None,,,,,,,,,0,0,0,0,1,2,6,2,,,,,,,,,1239.4408335983753,go,circleblack.png,left,0.3,,,,,,,,,,,,,,,0.001423574984073639,0.48960208520293236,,1241.943192716688,test,1,,,,,,,,,,1239.459444783628,1239.973010469228,1239.9565391503274,1239.9565391503274,1240.2568176947534,1240.7574331611395,1240.9560801498592,1241.9630020819604,left,1,0.6182925924658775,0.3,,,,,,,,,,,s016,001,2024-07-22_12h03.07.879,simplestop_skeleton,2022.2.2,59.94793615396527,
None,None,,,,,,,,,0,0,0,0,1,3,7,3,,,,,,,,,1241.94362841174,stop,squareblack.png,right,0.3,,,,,,,,,,,,,,,0.0018313080072402954,0.48939625918865204,0.7898238301277161,1244.4460482858121,test,1,,,,,,,,,,1241.9630020819604,1242.4761102832854,1242.4593163728714,1242.4593163728714,1242.7594060599804,1243.259921927005,1243.4603738598526,1244.464859686792,None,0,,0.35,,,,,,,,,,,s016,001,2024-07-22_12h03.07.879,simplestop_skeleton,2022.2.2,59.94793615396527,
None,None,,,,,,,,,0,0,0,0,2,0,8,1,,,,,,,,,1244.4464787058532,go,squareblack.png,right,0.35,,,,,,,,,,,,,,,0.0013214386999607086,0.48966068774461746,,1246.9486335664988,test,1,,,,,,,,,,1244.464859686792,1244.9785763435066,1244.961957320571,1244.961957320571,1245.3121746890247,1245.8132602758706,1245.9616485722363,1246.9685973860323,right,1,0.6195218712091446,0.35,,,,,,,,,,,s016,001,2024-07-22_12h03.07.879,simplestop_skeleton,2022.2.2,59.94793615396527,
None,None,,,,,,,,,0,0,0,0,2,1,9,2,,,,,,,,,1246.949079785496,go,circleblack.png,left,0.35,,,,,,,,,,,,,,,0.0026983879506587982,0.489465594291687,,1249.45128371194,test,1,,,,,,,,,,1246.9685973860323,1247.4814276956022,1247.4647084213793,1247.4647084213793,1247.8148800954223,1248.3156656846404,1248.4645085036755,1249.4707520119846,left,1,0.6177316196262836,0.35,,,,,,,,,,,s016,001,2024-07-22_12h03.07.879,simplestop_skeleton,2022.2.2,59.94793615396527,
None,None,,,,,,,,,0,0,0,0,2,2,10,1,,,,,,,,,1249.4517285637558,stop,circleblack.png,left,0.35,,,,,,,,,,,,,,,0.0014713369309902191,0.4894084744155407,0.8401417843997478,1251.954184513539,test,1,,,,,,,,,,1249.4707520119846,1249.9841214045882,1249.9675020165741,1249.9675020165741,1250.3179512396455,1250.818409126252,1250.9685565680265,1251.9733417108655,None,0,,0.4,,,,,,,,,,,s016,001,2024-07-22_12h03.07.879,simplestop_skeleton,2022.2.2,59.94793615396527,
None,None,,,,,,,,,0,0,0,0,2,3,11,1,,,,,,,,,1251.9546453543007,stop,circleblack.png,left,0.4,,,,,,,,,,,,,,,0.0014810971915721893,0.48949721828103065,0.890080202370882,1254.456811800599,test,1,,,,,,,,,,1251.9733417108655,1252.4869911782444,1252.4701576121151,1252.4701576121151,1252.8705800808966,1253.369710687548,1253.4698620028794,1254.4759568795562,left,1,0.49746033921837807,0.35,,,,,,,,,,,s016,001,2024-07-22_12h03.07.879,simplestop_skeleton,2022.2.2,59.94793615396527,
None,None,,,,,,,,,0,0,0,0,3,0,12,1,,,,,,,,,1254.4572578594089,stop,circleblack.png,left,0.35,,,,,,,,,,,,,,,0.0014025531709194183,0.48943711444735527,0.8400051221251488,1256.959600623697,test,1,,,,,,,,,,1254.4759568795562,1254.9897068925202,1254.9728656895459,1254.9728656895459,1255.3232960402966,1255.8238745816052,1255.9740448519588,1256.9793085679412,None,0,,0.4,,,,,,,,,,,s016,001,2024-07-22_12h03.07.879,simplestop_skeleton,2022.2.2,59.94793615396527,
None,None,,,,,,,,,0,0,0,0,3,1,13,3,,,,,,,,,1256.9600640274584,go,squareblack.png,right,0.4,,,,,,,,,,,,,,,0.0018051564693450928,0.4895867183804512,,1259.4624448157847,test,1,,,,,,,,,,1256.9793085679412,1257.492364604026,1257.475613888353,1257.475613888353,1257.8763477057219,1258.3753597661853,1258.4755892194808,1259.4821783341467,right,1,0.6062720753252506,0.4,,,,,,,,,,,s016,001,2024-07-22_12h03.07.879,simplestop_skeleton,2022.2.2,59.94793615396527,
None,None,,,,,,,,,0,0,0,0,3,2,14,1,,,,,,,,,1259.4629139006138,stop,circleblack.png,left,0.4,,,,,,,,,,,,,,,0.0018855929374694824,0.4894879199564457,0.8897522389888763,1261.964188620448,test,1,,,,,,,,,,1259.4821783341467,1259.9950608946383,1259.9786770828068,1259.9786770828068,1260.378806591034,1260.879599943757,1260.9793981686234,1261.9817386977375,None,0,,0.45,,,,,,,,,,,s016,001,2024-07-22_12h03.07.879,simplestop_skeleton,2022.2.2,59.94793615396527,
None,None,,,,,,,,,0,0,0,0,3,3,15,1,,,,,,,,,1261.9649015851319,go,squareblack.png,right,0.45,,,,,,,,,,,,,,,0.0016357004642486572,0.4889851547777653,,1264.4681133031845,test,1,,,,,,,,,,1261.9817386977375,1262.4964940175414,1262.4798378758132,1262.4798378758132,1262.9309977404773,1263.4322489760816,1263.4821243919432,1264.4881486855447,right,1,0.6137785390019417,0.45,,,,,,,,,,,s016,001,2024-07-22_12h03.07.879,simplestop_skeleton,2022.2.2,59.94793615396527,
$currentCorrectResponse,$currentGoStim,,,,,,,,,0,0,0,0,4,0,16,0,,,,,,,,,1264.4685663208365,go,squareblack.png,right,0.45,,,,,,,,,,,,,,,0.0018034093081951141,0.48802054300904274,,1266.9710061140358,test,1,,,,,,,,,,1264.4881486855447,1265.0004779286683,1264.9838525950909,1264.9838525950909,1265.4343664608896,1265.9335458613932,1265.983530227095,1266.9906117841601,right,1,0.47963133454322815,0.45,,,,,,,,,,,s016,001,2024-07-22_12h03.07.879,simplestop_skeleton,2022.2.2,59.94793615396527,
None,None,,,,,,,,,0,0,0,0,4,1,17,2,,,,,,,,,1266.97146673128,go,circleblack.png,left,0.45,,,,,,,,,,,,,,,0.002816498279571533,0.4894614890217781,,1269.4734172150493,test,1,,,,,,,,,,1266.9906117841601,1267.5037533193827,1267.4866749309003,1267.4866749309003,1267.9373757056892,1268.4532070718706,1268.4870175346732,1269.4929424598813,left,1,0.6137851402163506,0.45,,,,,,,,,,,s016,001,2024-07-22_12h03.07.879,simplestop_skeleton,2022.2.2,59.94793615396527,
$currentCorrectResponse,$currentGoStim,,,,,,,,,0,0,0,0,4,2,18,0,,,,,,,,,1269.4738499559462,stop,squareblack.png,right,0.45,,,,,,,,,,,,,,,0.0017724856734275818,0.4881296306848526,0.940061904489994,1271.976127807051,test,1,,,,,,,,,,1269.4929424598813,1270.0047634467483,1269.9880762249231,1269.9880762249231,1270.4401144459844,1270.9406303837895,1270.9906143136322,1271.995583243668,None,0,,0.5,,,,,,,,,,,s016,001,2024-07-22_12h03.07.879,simplestop_skeleton,2022.2.2,59.94793615396527,
None,None,,,,,,,,,0,0,0,0,4,3,19,3,,,,,,,,,1271.9765734188259,go,circleblack.png,left,0.5,,,,,,,,,,,,,,,0.0017571225762367249,0.48959485813975334,,1274.478968206793,test,1,,,,,,,,,,1271.995583243668,1272.508830923587,1272.4924578219652,1272.4924578219652,1272.992852948606,1273.4919612333179,1273.4919612333179,1274.4982877671719,left,1,0.6434192806482315,0.5,,,,,,,,,,,s016,001,2024-07-22_12h03.07.879,simplestop_skeleton,2022.2.2,59.94793615396527,
None,None,,,,,,,,,0,0,0,0,5,0,20,1,,,,,,,,,1274.4794087596238,go,squareblack.png,right,0.5,,,,,,,,,,,,,,,0.001804996281862259,0.489573635160923,,1276.9818442352116,test,1,,,,,,,,,,1274.4982877671719,1275.0117286480963,1274.9949938952923,1274.9949938952923,1275.495770931244,1275.9960520491004,1275.9960520491004,1277.000776167959,right,1,0.7531249634921551,0.5,,,,,,,,,,,s016,001,2024-07-22_12h03.07.879,simplestop_skeleton,2022.2.2,59.94793615396527,
$currentCorrectResponse,$currentGoStim,,,,,,,,,0,0,0,0,5,1,21,0,,,,,,,,,1276.982361316681,stop,squareblack.png,right,0.5,,,,,,,,,,,,,,,0.0013329870998859406,0.4895092509686947,0.9900050647556782,1279.4848797619343,test,1,,,,,,,,,,1277.000776167959,1277.514773581177,1277.49781742692,1277.49781742692,1277.9987063519657,1278.5140676349401,1278.4975644238293,1279.504690386355,right,1,0.5013887621462345,0.45,,,,,,,,,,,s016,001,2024-07-22_12h03.07.879,simplestop_skeleton,2022.2.2,59.94793615396527,
None,None,,,,,,,,,0,0,0,0,5,2,22,2,,,,,,,,,1279.4853223115206,go,circleblack.png,left,0.45,,,,,,,,,,,,,,,0.0027334019541740417,0.48930011689662933,,1281.9870867058635,test,1,,,,,,,,,,1279.504690386355,1280.0170784331858,1280.0005266070366,1280.0005266070366,1280.4509503655136,1280.950179938227,1281.000224094838,1282.0063995160162,left,1,0.458290409296751,0.45,,,,,,,,,,,s016,001,2024-07-22_12h03.07.879,simplestop_skeleton,2022.2.2,59.94793615396527,
None,None,,,,,,,,,0,0,0,0,5,3,23,1,,,,,,,,,1281.9875386841595,go,circleblack.png,left,0.45,,,,,,,,,,,,,,,0.001391395926475525,0.48810626938939095,,1284.4900758862495,test,1,,,,,,,,,,1282.0063995160162,1282.5184157043695,1282.5017991103232,1282.5017991103232,1282.9538233838975,1283.4542137049139,1283.5044782347977,1284.5092496015131,left,1,0.4808489419519901,0.45,,,,,,,,,,,s016,001,2024-07-22_12h03.07.879,simplestop_skeleton,2022.2.2,59.94793615396527,
None,None,,,,,,,,,0,0,0,0,6,0,24,3,,,,,,,,,1284.4905271828175,go,squareblack.png,right,0.45,,,,,,,,,,,,,,,0.0016372054815292358,0.48954708501696587,,1286.992514193058,test,1,,,,,,,,,,1284.5092496015131,1285.0211798474193,1285.0046252980828,1285.0046252980828,1285.4559806995094,1285.956920530647,1286.0071326941252,1287.0114592723548,right,1,0.5075487866997719,0.45,,,,,,,,,,,s016,001,2024-07-22_12h03.07.879,simplestop_skeleton,2022.2.2,59.94793615396527,
None,None,,,,,,,,,0,0,0,0,6,1,25,3,,,,,,,,,1286.9929461069405,go,squareblack.png,right,0.45,,,,,,,,,,,,,,,0.0012504942715168,0.4896719194948673,,1289.4953266233206,test,1,,,,,,,,,,1287.0114592723548,1287.5252634510398,1287.5088345110416,1287.5088345110416,1287.959617961198,1288.4753172770143,1288.5084257796407,1289.5143322870135,right,1,0.44286561757326126,0.45,,,,,,,,,,,s016,001,2024-07-22_12h03.07.879,simplestop_skeleton,2022.2.2,59.94793615396527,
None,None,,,,,,,,,0,0,0,0,6,2,26,1,,,,,,,,,1289.4957732185721,stop,squareblack.png,right,0.45,,,,,,,,,,,,,,,0.0012827888131141663,0.48950618132948875,0.9400887675583363,1291.9983187653124,test,1,,,,,,,,,,1289.5143322870135,1290.028173122555,1290.0117382332683,1290.0117382332683,1290.4620159305632,1290.9610339775681,1291.0111864991486,1292.0173295550048,right,1,0.5228505283594131,0.4,,,,,,,,,,,s016,001,2024-07-22_12h03.07.879,simplestop_skeleton,2022.2.2,59.94793615396527,
$currentCorrectResponse,$currentGoStim,,,,,,,,,0,0,0,0,6,3,27,0,,,,,,,,,1291.998764719814,stop,squareblack.png,right,0.4,,,,,,,,,,,,,,,0.0012787915766239166,0.4896065630018711,0.8899229988455772,1294.501017536968,test,1,,,,,,,,,,1292.0173295550048,1292.5308505520225,1292.5143319144845,1292.5143319144845,1292.9148260168731,1293.4152397066355,1293.515187650919,1294.5206543169916,None,0,,0.45,,,,,,,,,,,s016,001,2024-07-22_12h03.07.879,simplestop_skeleton,2022.2.2,59.94793615396527,
None,None,,,,,,,,,0,0,0,0,7,0,28,2,,,,,,,,,1294.50147748366,stop,circleblack.png,left,0.45,,,,,,,,,,,,,,,0.0019686371088027954,0.4895678907632828,0.9400636851787567,1297.0039798617363,test,1,,,,,,,,,,1294.5206543169916,1295.0338679216802,1295.0169392116368,1295.0169392116368,1295.4674555547535,1295.9668362513185,1296.0167127735913,1297.0228580273688,left,1,0.5463128797709942,0.4,,,,,,,,,,,s016,001,2024-07-22_12h03.07.879,simplestop_skeleton,2022.2.2,59.94793615396527,
None,None,,,,,,,,,0,0,0,0,7,1,29,2,,,,,,,,,1297.0044286251068,go,circleblack.png,left,0.4,,,,,,,,,,,,,,,0.0013848841190338135,0.48960335552692413,,1299.5066226609051,test,1,,,,,,,,,,1297.0228580273688,1297.5365353897214,1297.5201795510948,1297.5201795510948,1297.9203396886587,1298.4209912121296,1298.5211083479226,1299.5259394980967,left,1,0.67826908826828,0.4,,,,,,,,,,,s016,001,2024-07-22_12h03.07.879,simplestop_skeleton,2022.2.2,59.94793615396527,
None,None,,,,,,,,,0,0,0,0,7,2,30,3,,,,,,,,,1299.5070685222745,go,circleblack.png,left,0.4,,,,,,,,,,,,,,,0.0014082938432693481,0.4901643954217434,,1302.0095073878765,test,1,,,,,,,,,,1299.5259394980967,1300.039642341435,1300.0231008008122,1300.0231008008122,1300.4216015823185,1300.9236369468272,1301.023925986141,1302.0285364463925,left,1,0.6359044089913368,0.4,,,,,,,,,,,s016,001,2024-07-22_12h03.07.879,simplestop_skeleton,2022.2.2,59.94793615396527,
None,None,,,,,,,,,0,0,0,0,7,3,31,2,,,,,,,,,1302.0099751465023,go,circleblack.png,left,0.4,,,,,,,,,,,,,,,0.0013869889080524445,0.4894440360367298,,1304.5118979513645,test,1,,,,,,,,,,1302.0285364463925,1302.5420275889337,1302.525440312922,1302.525440312922,1302.9258300289512,1303.4261952862144,1303.526184719056,1304.5310170911252,left,1,0.5336560383439064,0.4,,,,,,,,,,,s016,001,2024-07-22_12h03.07.879,simplestop_skeleton,2022.2.2,59.94793615396527,
None,None,,,,,,,,,0,0,0,0,8,0,32,2,,,,,,,,,1304.5123302973807,stop,circleblack.png,left,0.4,,,,,,,,,,,,,,,0.0014080367982387543,0.4898420013487339,0.8903689235448837,1307.0151067450643,test,1,,,,,,,,,,1304.5310170911252,1305.0451292358339,1305.0282892100513,1305.0282892100513,1305.4292642585933,1305.9444394260645,1306.0277970805764,1307.0351557321846,left,1,0.372362595051527,0.35,,,,,,,,,,,s016,001,2024-07-22_12h03.07.879,simplestop_skeleton,2022.2.2,59.94793615396527,
$currentCorrectResponse,$currentGoStim,,,,,,,,,0,0,0,0,8,1,33,0,,,,,,,,,1307.0155380554497,go,squareblack.png,right,0.35,,,,,,,,,,,,,,,0.003245837986469269,0.4895607978105545,,1309.5175043009222,test,1,,,,,,,,,,1307.0351557321846,1307.5478255227208,1307.5312325842679,1307.5312325842679,1307.8812586292624,1308.3818002454937,1308.5305778831244,1309.5364362709224,right,1,0.6727764122188091,0.35,,,,,,,,,,,s016,001,2024-07-22_12h03.07.879,simplestop_skeleton,2022.2.2,59.94793615396527,
None,None,,,,,,,,,0,0,0,0,8,2,34,2,,,,,,,,,1309.517932895571,go,squareblack.png,right,0.35,,,,,,,,,,,,,,,0.0013453960418701172,0.48968764394521713,,1312.0202764719725,test,1,,,,,,,,,,1309.5364362709224,1310.0503604114056,1310.0336744785309,1310.0336744785309,1310.3826041333377,1310.8847985863686,1311.0347264446318,1312.0397272482514,right,1,0.3959551900625229,0.35,,,,,,,,,,,s016,001,2024-07-22_12h03.07.879,simplestop_skeleton,2022.2.2,59.94793615396527,
None,None,,,,,,,,,0,0,0,0,8,3,35,3,,,,,,,,,1312.0207304507494,go,circleblack.png,left,0.35,,,,,,,,,,,,,,,0.0018194131553173065,0.488436758518219,,1314.5229727812111,test,1,,,,,,,,,,1312.0397272482514,1312.551696330309,1312.5351192317903,1312.5351192317903,1312.8860690444708,1313.385801475495,1313.5360276699066,1314.542388804257,left,1,0.5686980225145817,0.35,,,,,,,,,,,s016,001,2024-07-22_12h03.07.879,simplestop_skeleton,2022.2.2,59.94793615396527,
$currentCorrectResponse,$currentGoStim,,,,,,,,,0,0,0,0,9,0,36,0,,,,,,,,,1314.523406215012,stop,squareblack.png,right,0.35,,,,,,,,,,,,,,,0.00168696790933609,0.4883892200887203,0.8398759588599205,1317.025842729956,test,1,,,,,,,,,,1314.542388804257,1315.0542736425996,1315.0376216843724,1315.0376216843724,1315.388669680804,1315.8899016678333,1316.0402367264032,1317.0452617108822,right,1,0.5363684520125389,0.3,,,,,,,,,,,s016,001,2024-07-22_12h03.07.879,simplestop_skeleton,2022.2.2,59.94793615396527,
$currentCorrectResponse,$currentGoStim,,,,,,,,,0,0,0,0,9,1,37,0,,,,,,,,,1317.0262777805328,go,circleblack.png,left,0.3,,,,,,,,,,,,,,,0.0017756931483745575,0.48975155130028725,,1319.5287160165608,test,1,,,,,,,,,,1317.0452617108822,1317.5588912144303,1317.541849128902,1317.541849128902,1317.842256873846,1318.342839051038,1318.5418749637902,1319.5478529892862,left,1,0.7130682803690434,0.3,,,,,,,,,,,s016,001,2024-07-22_12h03.07.879,simplestop_skeleton,2022.2.2,59.94793615396527,
None,None,,,,,,,,,0,0,0,0,9,2,38,3,,,,,,,,,1319.5291719026864,go,squareblack.png,right,0.3,,,,,,,,,,,,,,,0.001644875854253769,0.4895773231983185,,1322.0316141434014,test,1,,,,,,,,,,1319.5478529892862,1320.0613152682781,1320.0448231250048,1320.0448231250048,1320.3452666215599,1320.8455705344677,1321.0449682958424,1322.051115512848,right,1,0.6035527288913727,0.3,,,,,,,,,,,s016,001,2024-07-22_12h03.07.879,simplestop_skeleton,2022.2.2,59.94793615396527,
$currentCorrectResponse,$currentGoStim,,,,,,,,,0,0,0,0,9,3,39,0,,,,,,,,,1322.0320573039353,go,circleblack.png,left,0.3,,,,,,,,,,,,,,,0.0019167661666870117,0.4896867088973522,,1324.534836769104,test,1,,,,,,,,,,1322.051115512848,1322.5642765499651,1322.5478450283408,1322.5478450283408,1322.847894795239,1323.348418686539,1323.547052551061,1324.5541831366718,left,1,0.706532958894968,0.3,,,,,,,,,,,s016,001,2024-07-22_12h03.07.879,simplestop_skeleton,2022.2.2,59.94793615396527,
$currentCorrectResponse,$currentGoStim,,,,,,,,,0,0,0,0,10,0,40,0,,,,,,,,,1324.5352770984173,stop,squareblack.png,right,0.3,,,,,,,,,,,,,,,0.0017557255923748016,0.4891725592315197,0.789588175714016,1327.0371922887862,test,1,,,,,,,,,,1324.5541831366718,1325.0669113062322,1325.050390150398,1325.050390150398,1325.3504977449775,1325.8498134836555,1326.049844685942,1327.0564965754747,right,1,0.49131814762949944,0.25,,,,,,,,,,,s016,001,2024-07-22_12h03.07.879,simplestop_skeleton,2022.2.2,59.94793615396527,
None,None,,,,,,,,,0,0,0,0,10,1,41,2,,,,,,,,,1327.0376198403537,go,circleblack.png,left,0.25,,,,,,,,,,,,,,,0.00191439688205719,0.4897284284234047,,1329.5396963432431,test,1,,,,,,,,,,1327.0564965754747,1327.5696217045188,1327.5531973540783,1327.5531973540783,1327.8034726157784,1328.3037718944252,1328.55265519768,1329.559160657227,left,1,0.5720597207546234,0.25,,,,,,,,,,,s016,001,2024-07-22_12h03.07.879,simplestop_skeleton,2022.2.2,59.94793615396527,
None,None,,,,,,,,,0,0,0,0,10,2,42,1,,,,,,,,,1329.5401412658393,go,squareblack.png,right,0.25,,,,,,,,,,,,,,,0.0017338618636131287,0.48955438658595085,,1332.0428190119565,test,1,,,,,,,,,,1329.559160657227,1330.0726806893945,1330.0558166466653,1330.0558166466653,1330.306149236858,1330.8065911531448,1331.0555217899382,1332.063857179135,right,1,0.49210791662335396,0.25,,,,,,,,,,,s016,001,2024-07-22_12h03.07.879,simplestop_skeleton,2022.2.2,59.94793615396527,
None,None,,,,,,,,,0,0,0,0,10,3,43,3,,,,,,,,,1332.04339787364,stop,circleblack.png,left,0.25,,,,,,,,,,,,,,,0.002604663372039795,0.48855721950531006,0.7386745736002922,1334.5452594049275,test,1,,,,,,,,,,1332.063857179135,1332.575224865228,1332.5583318322897,1332.5583318322897,1332.8086660765111,1333.3093115016818,1333.5595480054617,1334.5644361153245,None,0,,0.3,,,,,,,,,,,s016,001,2024-07-22_12h03.07.879,simplestop_skeleton,2022.2.2,59.94793615396527,
None,None,,,,,,,,,0,0,0,0,11,0,44,2,,,,,,,,,1334.545705396682,go,squareblack.png,right,0.3,,,,,,,,,,,,,,,0.001738768070936203,0.4896238297224045,,1337.0479140095413,test,1,,,,,,,,,,1334.5644361153245,1335.0779012180865,1335.0612671114504,1335.0612671114504,1335.3614782094955,1335.8620870560408,1336.0608888976276,1337.0676365345716,right,1,0.6002983078360558,0.3,,,,,,,,,,,s016,001,2024-07-22_12h03.07.879,simplestop_skeleton,2022.2.2,59.94793615396527,
None,None,,,,,,,,,0,0,0,0,11,1,45,3,,,,,,,,,1337.0483712106943,stop,circleblack.png,left,0.3,,,,,,,,,,,,,,,0.0018521137535572052,0.4895962029695511,0.7896894961595535,1339.550700634718,test,1,,,,,,,,,,1337.0676365345716,1337.580864559859,1337.5641705021262,1337.5641705021262,1337.864175517112,1338.3647101409733,1338.5648866444826,1339.570388942957,None,0,,0.35,,,,,,,,,,,s016,001,2024-07-22_12h03.07.879,simplestop_skeleton,2022.2.2,59.94793615396527,
None,None,,,,,,,,,0,0,0,0,11,2,46,3,,,,,,,,,1339.5511402785778,go,circleblack.png,left,0.35,,,,,,,,,,,,,,,0.0016183778643608093,0.4878505878150463,,1342.0536176264286,test,1,,,,,,,,,,1339.570388942957,1340.0819145478308,1340.0652756243944,1340.0652756243944,1340.415617737919,1340.9175784289837,1341.0676639564335,1342.0726940333843,left,1,0.7157765924930573,0.35,,,,,,,,,,,s016,001,2024-07-22_12h03.07.879,simplestop_skeleton,2022.2.2,59.94793615396527,
$currentCorrectResponse,$currentGoStim,,,,,,,,,0,0,0,0,11,3,47,0,,,,,,,,,1342.054081350565,go,squareblack.png,right,0.35,,,,,,,,,,,,,,,0.0016535818576812744,0.4898638054728508,,1344.556682407856,test,1,,,,,,,,,,1342.0726940333843,1342.586274612695,1342.56966470927,1342.56966470927,1342.9201072864234,1343.4205311760306,1343.570544976741,1344.5840700305998,right,1,0.8016188144683838,0.35,,,,,,,,,,,s016,001,2024-07-22_12h03.07.879,simplestop_skeleton,2022.2.2,59.94793615396527,
,,,,,,,,,,0,0,0,0,,,,,,"[{'fileName': 'circleblack.png', 'correct_response': 'left', 'condition': 'go'}, {'fileName': 'circleblack.png', 'correct_response': 'left', 'condition': 'stop'}, {'fileName': 'squareblack.png', 'correct_response': 'right', 'condition': 'go'}, {'fileName': 'circleblack.png', 'correct_response': 'left', 'condition': 'go'}, {'fileName': 'squareblack.png', 'correct_response': 'right', 'condition': 'go'}, {'fileName': 'squareblack.png', 'correct_response': 'right', 'condition': 'go'}, {'fileName': 'circleblack.png', 'correct_response': 'left', 'condition': 'go'}, {'fileName': 'squareblack.png', 'correct_response': 'right', 'condition': 'stop'}, {'fileName': 'squareblack.png', 'correct_response': 'right', 'condition': 'stop'}, {'fileName': 'circleblack.png', 'correct_response': 'left', 'condition': 'stop'}, {'fileName': 'squareblack.png', 'correct_response': 'right', 'condition': 'go'}, {'fileName': 'circleblack.png', 'correct_response': 'left', 'condition': 'go'}, {'fileName': 'circleblack.png', 'correct_response': 'left', 'condition': 'stop'}, {'fileName': 'squareblack.png', 'correct_response': 'right', 'condition': 'stop'}, {'fileName': 'circleblack.png', 'correct_response': 'left', 'condition': 'go'}, {'fileName': 'circleblack.png', 'correct_response': 'left', 'condition': 'go'}, {'fileName': 'circleblack.png', 'correct_response': 'left', 'condition': 'stop'}, {'fileName': 'squareblack.png', 'correct_response': 'right', 'condition': 'go'}, {'fileName': 'squareblack.png', 'correct_response': 'right', 'condition': 'go'}, {'fileName': 'squareblack.png', 'correct_response': 'right', 'condition': 'stop'}, {'fileName': 'circleblack.png', 'correct_response': 'left', 'condition': 'go'}, {'fileName': 'circleblack.png', 'correct_response': 'left', 'condition': 'go'}, {'fileName': 'squareblack.png', 'correct_response': 'right', 'condition': 'go'}, {'fileName': 'squareblack.png', 'correct_response': 'right', 'condition': 'go'}, {'fileName': 'circleblack.png', 'correct_response': 'left', 'condition': 'go'}, {'fileName': 'circleblack.png', 'correct_response': 'left', 'condition': 'stop'}, {'fileName': 'squareblack.png', 'correct_response': 'right', 'condition': 'go'}, {'fileName': 'circleblack.png', 'correct_response': 'left', 'condition': 'go'}, {'fileName': 'circleblack.png', 'correct_response': 'left', 'condition': 'stop'}, {'fileName': 'circleblack.png', 'correct_response': 'left', 'condition': 'go'}, {'fileName': 'squareblack.png', 'correct_response': 'right', 'condition': 'stop'}, {'fileName': 'squareblack.png', 'correct_response': 'right', 'condition': 'go'}, {'fileName': 'squareblack.png', 'correct_response': 'right', 'condition': 'go'}, {'fileName': 'squareblack.png', 'correct_response': 'right', 'condition': 'stop'}, {'fileName': 'circleblack.png', 'correct_response': 'left', 'condition': 'go'}, {'fileName': 'squareblack.png', 'correct_response': 'right', 'condition': 'go'}, {'fileName': 'circleblack.png', 'correct_response': 'left', 'condition': 'go'}, {'fileName': 'circleblack.png', 'correct_response': 'left', 'condition': 'stop'}, {'fileName': 'circleblack.png', 'correct_response': 'left', 'condition': 'go'}, {'fileName': 'squareblack.png', 'correct_response': 'right', 'condition': 'stop'}, {'fileName': 'circleblack.png', 'correct_response': 'left', 'condition': 'go'}, {'fileName': 'circleblack.png', 'correct_response': 'left', 'condition': 'stop'}, {'fileName': 'squareblack.png', 'correct_response': 'right', 'condition': 'go'}, {'fileName': 'squareblack.png', 'correct_response': 'right', 'condition': 'go'}, {'fileName': 'squareblack.png', 'correct_response': 'right', 'condition': 'go'}, {'fileName': 'circleblack.png', 'correct_response': 'left', 'condition': 'go'}, {'fileName': 'squareblack.png', 'correct_response': 'right', 'condition': 'stop'}, {'fileName': 'squareblack.png', 'correct_response': 'right', 'condition': 'go'}]",,,,,,,,,,,,,,,,,,,,,,,,,,,,,,,,,,,,,,,,,,,,,,,,,,,,,1344.5840700305998,1344.5840700305998,return,19.650873683393,,,,,,,s016,001,2024-07-22_12h03.07.879,simplestop_skeleton,2022.2.2,59.94793615396527,
None,None,,,,,,,,,1,0,1,0,0,0,0,1,,,,,,,,,1364.2609984762967,go,circleblack.png,left,0.35,,,,,,,,,,,,,,,0.0025653615593910217,0.4893689528107643,,1366.764218185097,test,2,,,,,,,,,,1364.282398045063,1364.7939656227827,1364.777158588171,1364.777158588171,1365.127738919109,1365.6283665969968,1365.7784438282251,1366.7833116278052,left,1,0.6026401408016682,0.35,,,,,,,,,,,s016,001,2024-07-22_12h03.07.879,simplestop_skeleton,2022.2.2,59.94793615396527,
$currentCorrectResponse,$currentGoStim,,,,,,,,,1,0,1,0,0,1,1,0,,,,,,,,,1366.764763634652,stop,circleblack.png,left,0.35,,,,,,,,,,,,,,,0.001376807689666748,0.48927101492881775,0.8400334715843201,1369.267058800906,test,2,,,,,,,,,,1366.7833116278052,1367.2970704734325,1367.2803122475743,1367.2803122475743,1367.6305313408375,1368.1311238631606,1368.2815030887723,1369.2912292256951,None,0,,0.4,,,,,,,,,,,s016,001,2024-07-22_12h03.07.879,simplestop_skeleton,2022.2.2,59.94793615396527,
None,None,,,,,,,,,1,0,1,0,0,2,2,3,,,,,,,,,1369.2674950286746,go,squareblack.png,right,0.4,,,,,,,,,,,,,,,0.00724763423204422,0.48964007943868637,,1371.7699502408504,test,2,,,,,,,,,,1369.2912292256951,1369.7997144460678,1369.7829968594015,1369.7829968594015,1370.1834442093968,1370.6838600598276,1370.782562699169,1371.7900016903877,right,1,0.6480765156447887,0.4,,,,,,,,,,,s016,001,2024-07-22_12h03.07.879,simplestop_skeleton,2022.2.2,59.94793615396527,
None,None,,,,,,,,,1,0,1,0,0,3,3,3,,,,,,,,,1371.7703906558454,go,circleblack.png,left,0.4,,,,,,,,,,,,,,,0.002458672970533371,0.48869115114212036,,1374.2724377289414,test,2,,,,,,,,,,1371.7900016903877,1372.302381042391,1372.2857209220529,1372.2857209220529,1372.6861664615571,1373.185259565711,1373.2856265380979,1374.2915743775666,left,1,0.7896593026816845,0.4,,,,,,,,,,,s016,001,2024-07-22_12h03.07.879,simplestop_skeleton,2022.2.2,59.94793615396527,
None,None,,,,,,,,,1,0,1,0,1,0,4,2,,,,,,,,,1374.272865433246,go,squareblack.png,right,0.4,,,,,,,,,,,,,,,0.0015741735696792603,0.49004390090703964,,1376.775025267154,test,2,,,,,,,,,,1374.2915743775666,1374.8050737045705,1374.788490857929,1374.788490857929,1375.1889712065458,1375.704748082906,1375.788197685033,1376.7938969358802,right,1,0.5450282953679562,0.4,,,,,,,,,,,s016,001,2024-07-22_12h03.07.879,simplestop_skeleton,2022.2.2,59.94793615396527,
None,None,,,,,,,,,1,0,1,0,1,1,5,1,,,,,,,,,1376.7754552848637,go,squareblack.png,right,0.4,,,,,,,,,,,,,,,0.0013292990624904633,0.4900508485734463,,1379.2781749814749,test,2,,,,,,,,,,1376.7938969358802,1377.3079866096377,1377.2912993244827,1377.2912993244827,1377.6916455551982,1378.1908026114106,1378.2908695824444,1379.297785434872,right,1,0.4125501736998558,0.4,,,,,,,,,,,s016,001,2024-07-22_12h03.07.879,simplestop_skeleton,2022.2.2,59.94793615396527,
None,None,,,,,,,,,1,0,1,0,1,2,6,3,,,,,,,,,1379.278610970825,go,circleblack.png,left,0.4,,,,,,,,,,,,,,,0.0019783228635787964,0.4893633984029293,,1381.7805698774755,test,2,,,,,,,,,,1379.297785434872,1379.8106309585273,1379.794256735593,1379.794256735593,1380.1943624429405,1380.6934521570802,1380.7944833524525,1381.8001093305647,left,1,0.6063721366226673,0.4,,,,,,,,,,,s016,001,2024-07-22_12h03.07.879,simplestop_skeleton,2022.2.2,59.94793615396527,
None,None,,,,,,,,,1,0,1,0,1,3,7,3,,,,,,,,,1381.78100387007,stop,squareblack.png,right,0.4,,,,,,,,,,,,,,,0.0017521269619464874,0.48974842205643654,0.8902066871523857,1384.2836044728756,test,2,,,,,,,,,,1381.8001093305647,1382.3134595677257,1382.2967638038099,1382.2967638038099,1382.6970808915794,1383.1976467818022,1383.2977102845907,1384.302820675075,None,0,,0.45,,,,,,,,,,,s016,001,2024-07-22_12h03.07.879,simplestop_skeleton,2022.2.2,59.94793615396527,
None,None,,,,,,,,,1,0,1,0,2,0,8,2,,,,,,,,,1384.2840417213738,stop,squareblack.png,right,0.45,,,,,,,,,,,,,,,0.001401800662279129,0.48956434428691864,0.9383984953165054,1386.7863230854273,test,2,,,,,,,,,,1384.302820675075,1384.8161857537925,1384.799873135984,1384.799873135984,1385.2485836930573,1385.7505384162068,1385.800559848547,1386.8056825436652,right,1,0.6522864252328873,0.4,,,,,,,,,,,s016,001,2024-07-22_12h03.07.879,simplestop_skeleton,2022.2.2,59.94793615396527,
None,None,,,,,,,,,1,0,1,0,2,1,9,2,,,,,,,,,1386.7867635786533,stop,circleblack.png,left,0.4,,,,,,,,,,,,,,,0.0020104646682739258,0.4895784892141819,0.8901318423449993,1389.2891552485526,test,2,,,,,,,,,,1386.8056825436652,1387.3190910853446,1387.302170433104,1387.302170433104,1387.7028506100178,1388.2017862424254,1388.3031961768866,1389.3086472824216,left,1,0.5120607390999794,0.35,,,,,,,,,,,s016,001,2024-07-22_12h03.07.879,simplestop_skeleton,2022.2.2,59.94793615396527,
None,None,,,,,,,,,1,0,1,0,2,2,10,2,,,,,,,,,1389.289596438408,go,squareblack.png,right,0.35,,,,,,,,,,,,,,,0.001922156661748886,0.48982540518045425,,1391.791584186256,test,2,,,,,,,,,,1389.3086472824216,1389.8218956701458,1389.8049979694188,1389.8049979694188,1390.155495122075,1390.6547088511288,1390.8049473650753,1391.810901530087,right,1,0.5484468936920166,0.35,,,,,,,,,,,s016,001,2024-07-22_12h03.07.879,simplestop_skeleton,2022.2.2,59.94793615396527,
None,None,,,,,,,,,1,0,1,0,2,3,11,3,,,,,,,,,1391.7920233644545,go,circleblack.png,left,0.35,,,,,,,,,,,,,,,0.0018249042332172394,0.4897196963429451,,1394.2945479601622,test,2,,,,,,,,,,1391.810901530087,1392.3243423104286,1392.3075447492301,1392.3075447492301,1392.6580525785685,1393.1585152596235,1393.3072471357882,1394.3135909214616,left,1,0.6279819272458553,0.35,,,,,,,,,,,s016,001,2024-07-22_12h03.07.879,simplestop_skeleton,2022.2.2,59.94793615396527,
None,None,,,,,,,,,1,0,1,0,3,0,12,3,,,,,,,,,1394.2949836216867,stop,circleblack.png,left,0.35,,,,,,,,,,,,,,,0.0013377368450164795,0.48970234766602516,0.8399436511099339,1396.7972097583115,test,2,,,,,,,,,,1394.3135909214616,1394.8271183148026,1394.8104173876345,1394.8104173876345,1395.1608092524111,1395.661263257265,1395.811657562852,1396.8164708316326,None,0,,0.4,,,,,,,,,,,s016,001,2024-07-22_12h03.07.879,simplestop_skeleton,2022.2.2,59.94793615396527,
None,None,,,,,,,,,1,0,1,0,3,1,13,2,,,,,,,,,1396.7976490557194,stop,squareblack.png,right,0.4,,,,,,,,,,,,,,,0.0016555972397327423,0.4895288124680519,0.8901430554687977,1399.2997470609844,test,2,,,,,,,,,,1396.8164708316326,1397.329931780696,1397.3137837648392,1397.3137837648392,1397.7137289308012,1398.2141522914171,1398.3145650699735,1399.3189863935113,None,0,,0.45,,,,,,,,,,,s016,001,2024-07-22_12h03.07.879,simplestop_skeleton,2022.2.2,59.94793615396527,
None,None,,,,,,,,,1,0,1,0,3,2,14,3,,,,,,,,,1399.3001986853778,go,circleblack.png,left,0.45,,,,,,,,,,,,,,,0.001777254045009613,0.4900653474032879,,1401.802552960813,test,2,,,,,,,,,,1399.3189863935113,1399.8328195549548,1399.8160180598497,1399.8160180598497,1400.2666096501052,1400.7657866440713,1400.8157700560987,1401.8215756379068,left,1,0.5646425895392895,0.45,,,,,,,,,,,s016,001,2024-07-22_12h03.07.879,simplestop_skeleton,2022.2.2,59.94793615396527,
None,None,,,,,,,,,1,0,1,0,3,3,15,1,,,,,,,,,1401.802980452776,go,circleblack.png,left,0.45,,,,,,,,,,,,,,,0.0014085769653320312,0.4897368997335434,,1404.3055600747466,test,2,,,,,,,,,,1401.8215756379068,1402.3353918530047,1402.3189357332885,1402.3189357332885,1402.7692016139627,1403.2698594480753,1403.3184388801455,1404.3246651105583,left,1,0.700747936964035,0.45,,,,,,,,,,,s016,001,2024-07-22_12h03.07.879,simplestop_skeleton,2022.2.2,59.94793615396527,
$currentCorrectResponse,$currentGoStim,,,,,,,,,1,0,1,0,4,0,16,0,,,,,,,,,1404.3060034140944,stop,circleblack.png,left,0.45,,,,,,,,,,,,,,,0.0014538541436195374,0.4897082671523094,0.9405145719647408,1406.8083999454975,test,2,,,,,,,,,,1404.3246651105583,1404.8386234901845,1404.8219558857381,1404.8219558857381,1405.272097248584,1405.77113160491,1405.8213733024895,1406.827575467527,left,1,0.5887056589126587,0.4,,,,,,,,,,,s016,001,2024-07-22_12h03.07.879,simplestop_skeleton,2022.2.2,59.94793615396527,
$currentCorrectResponse,$currentGoStim,,,,,,,,,1,0,1,0,4,1,17,0,,,,,,,,,1406.8088337220252,go,squareblack.png,right,0.4,,,,,,,,,,,,,,,0.0017301775515079498,0.48974940925836563,,1409.3110576197505,test,2,,,,,,,,,,1406.827575467527,1407.3411745242774,1407.3244761191308,1407.3244761191308,1407.7247156389058,1408.2256057560444,1408.3256860114634,1409.3298670463264,right,1,0.8517266362905502,0.4,,,,,,,,,,,s016,001,2024-07-22_12h03.07.879,simplestop_skeleton,2022.2.2,59.94793615396527,
None,None,,,,,,,,,1,0,1,0,4,2,18,2,,,,,,,,,1409.3114958927035,go,squareblack.png,right,0.4,,,,,,,,,,,,,,,0.0012218356132507324,0.49028072878718376,,1411.8135406784713,test,2,,,,,,,,,,1409.3298670463264,1409.843944516033,1409.827035702765,1409.827035702765,1410.2274476885796,1410.7281379699707,1410.8267918415368,1411.8310435563326,right,1,0.635412435978651,0.4,,,,,,,,,,,s016,001,2024-07-22_12h03.07.879,simplestop_skeleton,2022.2.2,59.94793615396527,
None,None,,,,,,,,,1,0,1,0,4,3,19,1,,,,,,,,,1411.8139841146767,stop,squareblack.png,right,0.4,,,,,,,,,,,,,,,0.0011807344853878021,0.48982401192188263,0.8903292566537857,1414.3164311423898,test,2,,,,,,,,,,1411.8310435563326,1412.3463160730898,1412.329663053155,1412.329663053155,1412.7302101999521,1413.2293744906783,1413.3293636664748,1414.3357950523496,right,1,0.44317664951086044,0.35,,,,,,,,,,,s016,001,2024-07-22_12h03.07.879,simplestop_skeleton,2022.2.2,59.94793615396527,
None,None,,,,,,,,,1,0,1,0,5,0,20,1,,,,,,,,,1414.3168589919806,go,circleblack.png,left,0.35,,,,,,,,,,,,,,,0.0018744617700576782,0.48951561376452446,,1416.8193454369903,test,2,,,,,,,,,,1414.3357950523496,1414.8491955175996,1414.8324634954333,1414.8324634954333,1415.1828352361917,1415.6834458336234,1415.8320506960154,1416.8386391326785,left,1,0.6528844311833382,0.35,,,,,,,,,,,s016,001,2024-07-22_12h03.07.879,simplestop_skeleton,2022.2.2,59.94793615396527,
None,None,,,,,,,,,1,0,1,0,5,1,21,3,,,,,,,,,1416.8198062367737,go,circleblack.png,left,0.35,,,,,,,,,,,,,,,0.001404251903295517,0.48972872644662857,,1419.3218973390758,test,2,,,,,,,,,,1416.8386391326785,1417.3522774465382,1417.3355233334005,1417.3355233334005,1417.6859090812504,1418.201575960964,1418.3350736908615,1419.341932721436,left,1,0.5196654386818409,0.35,,,,,,,,,,,s016,001,2024-07-22_12h03.07.879,simplestop_skeleton,2022.2.2,59.94793615396527,
$currentCorrectResponse,$currentGoStim,,,,,,,,,1,0,1,0,5,2,22,0,,,,,,,,,1419.3223285749555,go,squareblack.png,right,0.35,,,,,,,,,,,,,,,0.0019247643649578094,0.4892447590827942,,1421.825130995363,test,2,,,,,,,,,,1419.341932721436,1419.855025433004,1419.838016089052,1419.838016089052,1420.1885984055698,1420.689295426011,1420.8378920964897,1421.8440665379167,right,1,0.6390027105808258,0.35,,,,,,,,,,,s016,001,2024-07-22_12h03.07.879,simplestop_skeleton,2022.2.2,59.94793615396527,
None,None,,,,,,,,,1,0,1,0,5,3,23,1,,,,,,,,,1421.8255604244769,go,squareblack.png,right,0.35,,,,,,,,,,,,,,,0.0013451576232910156,0.4892597645521164,,1424.3274103812873,test,2,,,,,,,,,,1421.8440665379167,1422.3578459210694,1422.3408578969538,1422.3408578969538,1422.6914083510637,1423.19030918926,1423.340835351497,1424.34699235484,right,1,0.5590648837387562,0.35,,,,,,,,,,,s016,001,2024-07-22_12h03.07.879,simplestop_skeleton,2022.2.2,59.94793615396527,
None,None,,,,,,,,,1,0,1,0,6,0,24,2,,,,,,,,,1424.3278473727405,go,circleblack.png,left,0.35,,,,,,,,,,,,,,,0.0017737187445163727,0.48990044742822647,,1426.8304060064256,test,2,,,,,,,,,,1424.34699235484,1424.8603337071836,1424.8437311202288,1424.8437311202288,1425.1941207908094,1425.695001449436,1425.8434728346765,1426.8493641242385,left,1,0.6179685890674591,0.35,,,,,,,,,,,s016,001,2024-07-22_12h03.07.879,simplestop_skeleton,2022.2.2,59.94793615396527,
None,None,,,,,,,,,1,0,1,0,6,1,25,1,,,,,,,,,1426.8308343291283,stop,circleblack.png,left,0.35,,,,,,,,,,,,,,,0.0014357604086399078,0.48998529836535454,0.8403884768486023,1429.333099782467,test,2,,,,,,,,,,1426.8493641242385,1427.363166037947,1427.346389632672,1427.346389632672,1427.6969692483544,1428.1975651830435,1428.3475664146245,1429.352508187294,None,0,,0.4,,,,,,,,,,,s016,001,2024-07-22_12h03.07.879,simplestop_skeleton,2022.2.2,59.94793615396527,
None,None,,,,,,,,,1,0,1,0,6,2,26,2,,,,,,,,,1429.3335408493876,go,squareblack.png,right,0.4,,,,,,,,,,,,,,,0.0016850754618644714,0.4903428517282009,,1431.836153972894,test,2,,,,,,,,,,1429.352508187294,1429.8663942180574,1429.849159564823,1429.849159564823,1430.248749371618,1430.7499060072005,1430.8500004857779,1431.8555878214538,right,1,0.7073314860463142,0.4,,,,,,,,,,,s016,001,2024-07-22_12h03.07.879,simplestop_skeleton,2022.2.2,59.94793615396527,
None,None,,,,,,,,,1,0,1,0,6,3,27,1,,,,,,,,,1431.8365823701024,go,circleblack.png,left,0.4,,,,,,,,,,,,,,,0.001835852861404419,0.4896371029317379,,1434.338559422642,test,2,,,,,,,,,,1431.8555878214538,1432.3686478435993,1432.3521302379668,1432.3521302379668,1432.7524770386517,1433.2528985254467,1433.3519103042781,1434.3577306121588,left,1,0.5753646343946457,0.4,,,,,,,,,,,s016,001,2024-07-22_12h03.07.879,simplestop_skeleton,2022.2.2,59.94793615396527,
None,None,,,,,,,,,1,0,1,0,7,0,28,2,,,,,,,,,1434.3390171267092,stop,circleblack.png,left,0.4,,,,,,,,,,,,,,,0.0013566277921199799,0.4883089065551758,0.8909182399511337,1436.8412546738982,test,2,,,,,,,,,,1434.3577306121588,1434.86996229738,1434.8533356934786,1434.8533356934786,1435.2548828609288,1435.7559000477195,1435.8557195104659,1436.8608863279223,left,1,0.45437872409820557,0.35,,,,,,,,,,,s016,001,2024-07-22_12h03.07.879,simplestop_skeleton,2022.2.2,59.94793615396527,
None,None,,,,,,,,,1,0,1,0,7,1,29,1,,,,,,,,,1436.8416828922927,go,circleblack.png,left,0.35,,,,,,,,,,,,,,,0.0013286583125591278,0.4906053878366947,,1439.3441582508385,test,2,,,,,,,,,,1436.8608863279223,1437.3742044828832,1437.3573852330446,1437.3573852330446,1437.7080640941858,1438.2086154296994,1438.3571246936917,1439.3632238730788,left,1,0.6849280707538128,0.35,,,,,,,,,,,s016,001,2024-07-22_12h03.07.879,simplestop_skeleton,2022.2.2,59.94793615396527,
None,None,,,,,,,,,1,0,1,0,7,2,30,3,,,,,,,,,1439.3446142226458,stop,squareblack.png,right,0.35,,,,,,,,,,,,,,,0.0016889870166778564,0.4897727817296982,0.8401472009718418,1441.8469742499292,test,2,,,,,,,,,,1439.3632238730788,1439.8768674470484,1439.8603061549366,1439.8603061549366,1440.2104455903172,1440.7099510729313,1440.8598776496947,1441.8656325824559,right,1,0.5432295016944408,0.3,,,,,,,,,,,s016,001,2024-07-22_12h03.07.879,simplestop_skeleton,2022.2.2,59.94793615396527,
None,None,,,,,,,,,1,0,1,0,7,3,31,1,,,,,,,,,1441.8473979830742,go,squareblack.png,right,0.3,,,,,,,,,,,,,,,0.00126725435256958,0.4897819198668003,,1444.3495688289404,test,2,,,,,,,,,,1441.8656325824559,1442.3796593882143,1442.3633259497583,1442.3633259497583,1442.6632557474077,1443.1639514379203,1443.364150132984,1444.368683796376,right,1,0.7605995312333107,0.3,,,,,,,,,,,s016,001,2024-07-22_12h03.07.879,simplestop_skeleton,2022.2.2,59.94793615396527,
None,None,,,,,,,,,1,0,1,0,8,0,32,2,,,,,,,,,1444.3500981666148,go,squareblack.png,right,0.3,,,,,,,,,,,,,,,0.0012884512543678284,0.4896957688033581,,1446.8510276302695,test,2,,,,,,,,,,1444.368683796376,1444.8826455250382,1444.8657168857753,1444.8657168857753,1445.1660101599991,1445.666627433151,1445.8655728437006,1446.867946818471,right,1,0.590524472296238,0.3,,,,,,,,,,,s016,001,2024-07-22_12h03.07.879,simplestop_skeleton,2022.2.2,59.94793615396527,
None,None,,,,,,,,,1,0,1,0,8,1,33,2,,,,,,,,,1446.851458068937,stop,squareblack.png,right,0.3,,,,,,,,,,,,,,,0.0011719949543476105,0.49143971502780914,0.7914458699524403,1449.3554554209113,test,2,,,,,,,,,,1446.867946818471,1447.368599921465,1447.368599921465,1447.368599921465,1447.6687944047153,1448.169266834855,1448.3694840706885,1449.3751246146858,None,0,,0.35,,,,,,,,,,,s016,001,2024-07-22_12h03.07.879,simplestop_skeleton,2022.2.2,59.94793615396527,
None,None,,,,,,,,,1,0,1,0,8,2,34,1,,,,,,,,,1449.3558947965503,go,circleblack.png,left,0.35,,,,,,,,,,,,,,,0.0019666142761707306,0.48944415897130966,,1451.858537439257,test,2,,,,,,,,,,1449.3751246146858,1449.8879405669868,1449.871088590473,1449.871088590473,1450.2215358130634,1450.7220881730318,1450.8708168901503,1451.8775533214211,left,1,0.690253235399723,0.35,,,,,,,,,,,s016,001,2024-07-22_12h03.07.879,simplestop_skeleton,2022.2.2,59.94793615396527,
None,None,,,,,,,,,1,0,1,0,8,3,35,3,,,,,,,,,1451.858976278454,go,squareblack.png,right,0.35,,,,,,,,,,,,,,,0.00167851522564888,0.4894528351724148,,1454.3610516302288,test,2,,,,,,,,,,1451.8775533214211,1452.3906926214695,1452.3741483576596,1452.3741483576596,1452.7244312688708,1453.2251972593367,1453.3751202560961,1454.3806037716568,right,1,0.7646328806877136,0.35,,,,,,,,,,,s016,001,2024-07-22_12h03.07.879,simplestop_skeleton,2022.2.2,59.94793615396527,
$currentCorrectResponse,$currentGoStim,,,,,,,,,1,0,1,0,9,0,36,0,,,,,,,,,1454.3614817522466,go,circleblack.png,left,0.35,,,,,,,,,,,,,,,0.0019053369760513306,0.4896491952240467,,1456.863471634686,test,2,,,,,,,,,,1454.3806037716568,1454.8936909511685,1454.8769202046096,1454.8769202046096,1455.2271385379136,1455.7276972308755,1455.8764495067298,1456.8824142329395,left,1,0.6781053058803082,0.35,,,,,,,,,,,s016,001,2024-07-22_12h03.07.879,simplestop_skeleton,2022.2.2,59.94793615396527,
None,None,,,,,,,,,1,0,1,0,9,1,37,1,,,,,,,,,1456.8639150112867,stop,circleblack.png,left,0.35,,,,,,,,,,,,,,,0.0013435110449790955,0.489520788192749,0.8404104821383953,1459.3662610165775,test,2,,,,,,,,,,1456.8824142329395,1457.3962013237178,1457.3795480169356,1457.3795480169356,1457.7297750934958,1458.2296807914972,1458.37910355255,1459.3849601447582,left,1,0.43404873460531235,0.3,,,,,,,,,,,s016,001,2024-07-22_12h03.07.879,simplestop_skeleton,2022.2.2,59.94793615396527,
None,None,,,,,,,,,1,0,1,0,9,2,38,3,,,,,,,,,1459.3666903153062,go,circleblack.png,left,0.3,,,,,,,,,,,,,,,0.0012900792062282562,0.48987649753689766,,1461.8688331656158,test,2,,,,,,,,,,1459.3849601447582,1459.898913834244,1459.882339347154,1459.882339347154,1460.1825279258192,1460.6830657757819,1460.88184960559,1461.8880516290665,left,1,0.6254357472062111,0.3,,,,,,,,,,,s016,001,2024-07-22_12h03.07.879,simplestop_skeleton,2022.2.2,59.94793615396527,
$currentCorrectResponse,$currentGoStim,,,,,,,,,1,0,1,0,9,3,39,0,,,,,,,,,1461.8692873343825,stop,squareblack.png,right,0.3,,,,,,,,,,,,,,,0.0017246007919311523,0.4898320883512497,0.7903372645378113,1464.3716480694711,test,2,,,,,,,,,,1461.8880516290665,1462.401685744524,1462.3848282918334,1462.3848282918334,1462.6853406317532,1463.1859308220446,1463.3860722407699,1464.390942364931,None,0,,0.35,,,,,,,,,,,s016,001,2024-07-22_12h03.07.879,simplestop_skeleton,2022.2.2,59.94793615396527,
None,None,,,,,,,,,1,0,1,0,10,0,40,3,,,,,,,,,1464.3721003495157,go,circleblack.png,left,0.35,,,,,,,,,,,,,,,0.001751624047756195,0.48988017812371254,,1466.8749057725072,test,2,,,,,,,,,,1464.390942364931,1464.9043881632388,1464.8877602890134,1464.8877602890134,1465.2382686808705,1465.73854868114,1465.8874629810452,1466.8939336650074,left,1,0.6725618205964565,0.35,,,,,,,,,,,s016,001,2024-07-22_12h03.07.879,simplestop_skeleton,2022.2.2,59.94793615396527,
None,None,,,,,,,,,1,0,1,0,10,1,41,2,,,,,,,,,1466.8753615133464,stop,circleblack.png,left,0.35,,,,,,,,,,,,,,,0.0015190578997135162,0.48924923688173294,0.8400926105678082,1469.3776354007423,test,2,,,,,,,,,,1466.8939336650074,1467.4075083136559,1467.3905357010663,1467.3905357010663,1467.7409483976662,1468.240142133087,1468.3902327865362,1469.3969878926873,left,1,0.5579981133341789,0.3,,,,,,,,,,,s016,001,2024-07-22_12h03.07.879,simplestop_skeleton,2022.2.2,59.94793615396527,
$currentCorrectResponse,$currentGoStim,,,,,,,,,1,0,1,0,10,2,42,0,,,,,,,,,1469.3780765794218,go,squareblack.png,right,0.3,,,,,,,,,,,,,,,0.0017769895493984222,0.48949848860502243,,1471.8801252432168,test,2,,,,,,,,,,1469.3969878926873,1469.9103406891227,1469.8932402282953,1469.8932402282953,1470.1935828216374,1470.6942991688848,1470.8930334672332,1471.8990319855511,right,1,0.6521105132997036,0.3,,,,,,,,,,,s016,001,2024-07-22_12h03.07.879,simplestop_skeleton,2022.2.2,59.94793615396527,
$currentCorrectResponse,$currentGoStim,,,,,,,,,1,0,1,0,10,3,43,0,,,,,,,,,1471.8805710449815,go,squareblack.png,right,0.3,,,,,,,,,,,,,,,0.0013771578669548035,0.489675909280777,,1474.3827804848552,test,2,,,,,,,,,,1471.8990319855511,1472.4129447340965,1472.3960569910705,1472.3960569910705,1472.6964397877455,1473.1955645568669,1473.395684339106,1474.401881314814,right,1,0.4893328547477722,0.3,,,,,,,,,,,s016,001,2024-07-22_12h03.07.879,simplestop_skeleton,2022.2.2,59.94793615396527,
$currentCorrectResponse,$currentGoStim,,,,,,,,,1,0,1,0,11,0,44,0,,,,,,,,,1474.3832060061395,go,squareblack.png,right,0.3,,,,,,,,,,,,,,,0.0012880750000476837,0.48945703729987144,,1476.8857715167105,test,2,,,,,,,,,,1474.401881314814,1474.915564443916,1474.8988220654428,1474.8988220654428,1475.1990493834019,1475.699708737433,1475.8986328318715,1476.9051142632961,right,1,0.5394640043377876,0.3,,,,,,,,,,,s016,001,2024-07-22_12h03.07.879,simplestop_skeleton,2022.2.2,59.94793615396527,
$currentCorrectResponse,$currentGoStim,,,,,,,,,1,0,1,0,11,1,45,0,,,,,,,,,1476.8862092606723,go,circleblack.png,left,0.3,,,,,,,,,,,,,,,0.001955721527338028,0.48965461924672127,,1479.388292953372,test,2,,,,,,,,,,1476.9051142632961,1477.4182499460876,1477.4017566852272,1477.4017566852272,1477.7018945254385,1478.2025480046868,1478.4014376960695,1479.4074862636626,left,1,0.6124063692986965,0.3,,,,,,,,,,,s016,001,2024-07-22_12h03.07.879,simplestop_skeleton,2022.2.2,59.94793615396527,
$currentCorrectResponse,$currentGoStim,,,,,,,,,1,0,1,0,11,2,46,0,,,,,,,,,1479.3887659236789,stop,squareblack.png,right,0.3,,,,,,,,,,,,,,,0.0016118325293064117,0.4898625649511814,0.7902642637491226,1481.8902700953186,test,2,,,,,,,,,,1479.4074862636626,1479.9210133850574,1479.904454473406,1479.904454473406,1480.2047919817269,1480.7054283954203,1480.9058326296508,1481.9076359011233,None,0,,0.35,,,,,,,,,,,s016,001,2024-07-22_12h03.07.879,simplestop_skeleton,2022.2.2,59.94793615396527,
$currentCorrectResponse,$currentGoStim,,,,,,,,,1,0,1,0,11,3,47,0,,,,,,,,,1481.890703331679,go,squareblack.png,right,0.35,,,,,,,,,,,,,,,0.0011972934007644653,0.49053386226296425,,1484.3940333612263,test,2,,,,,,,,,,1481.9076359011233,1482.4074679911137,1482.4074679911137,1482.4074679911137,1482.7575541101396,1483.258547950536,1483.4083161950111,1484.4094217792153,right,1,0.7731832377612591,0.35,,,,,,,,,,,s016,001,2024-07-22_12h03.07.879,simplestop_skeleton,2022.2.2,59.94793615396527,
,,,,,,,,,,1,0,1,0,,,,,,,,,,,,,,,,,,,,,,,,,,,,,,,,,,,,,,,,,,,,,,,,,,,,,,,,,,,1484.4094217792153,1484.4094217792153,return,3.3748191818594933,"[{'fileName': 'circleblack.png', 'correct_response': 'left', 'condition': 'go'}, {'fileName': 'circleblack.png', 'correct_response': 'left', 'condition': 'go'}, {'fileName': 'squareblack.png', 'correct_response': 'right', 'condition': 'stop'}, {'fileName': 'circleblack.png', 'correct_response': 'left', 'condition': 'stop'}, {'fileName': 'circleblack.png', 'correct_response': 'left', 'condition': 'stop'}, {'fileName': 'squareblack.png', 'correct_response': 'right', 'condition': 'stop'}, {'fileName': 'squareblack.png', 'correct_response': 'right', 'condition': 'go'}, {'fileName': 'circleblack.png', 'correct_response': 'left', 'condition': 'go'}, {'fileName': 'circleblack.png', 'correct_response': 'left', 'condition': 'go'}, {'fileName': 'squareblack.png', 'correct_response': 'right', 'condition': 'go'}, {'fileName': 'squareblack.png', 'correct_response': 'right', 'condition': 'go'}, {'fileName': 'squareblack.png', 'correct_response': 'right', 'condition': 'go'}, {'fileName': 'squareblack.png', 'correct_response': 'right', 'condition': 'go'}, {'fileName': 'circleblack.png', 'correct_response': 'left', 'condition': 'go'}, {'fileName': 'squareblack.png', 'correct_response': 'right', 'condition': 'stop'}, {'fileName': 'circleblack.png', 'correct_response': 'left', 'condition': 'go'}, {'fileName': 'circleblack.png', 'correct_response': 'left', 'condition': 'stop'}, {'fileName': 'circleblack.png', 'correct_response': 'left', 'condition': 'go'}, {'fileName': 'squareblack.png', 'correct_response': 'right', 'condition': 'go'}, {'fileName': 'circleblack.png', 'correct_response': 'left', 'condition': 'go'}, {'fileName': 'squareblack.png', 'correct_response': 'right', 'condition': 'go'}, {'fileName': 'squareblack.png', 'correct_response': 'right', 'condition': 'go'}, {'fileName': 'circleblack.png', 'correct_response': 'left', 'condition': 'stop'}, {'fileName': 'squareblack.png', 'correct_response': 'right', 'condition': 'stop'}, {'fileName': 'squareblack.png', 'correct_response': 'right', 'condition': 'go'}, {'fileName': 'squareblack.png', 'correct_response': 'right', 'condition': 'stop'}, {'fileName': 'circleblack.png', 'correct_response': 'left', 'condition': 'go'}, {'fileName': 'circleblack.png', 'correct_response': 'left', 'condition': 'go'}, {'fileName': 'circleblack.png', 'correct_response': 'left', 'condition': 'go'}, {'fileName': 'squareblack.png', 'correct_response': 'right', 'condition': 'go'}, {'fileName': 'circleblack.png', 'correct_response': 'left', 'condition': 'go'}, {'fileName': 'circleblack.png', 'correct_response': 'left', 'condition': 'stop'}, {'fileName': 'squareblack.png', 'correct_response': 'right', 'condition': 'stop'}, {'fileName': 'squareblack.png', 'correct_response': 'right', 'condition': 'go'}, {'fileName': 'squareblack.png', 'correct_response': 'right', 'condition': 'go'}, {'fileName': 'circleblack.png', 'correct_response': 'left', 'condition': 'stop'}, {'fileName': 'circleblack.png', 'correct_response': 'left', 'condition': 'go'}, {'fileName': 'circleblack.png', 'correct_response': 'left', 'condition': 'go'}, {'fileName': 'squareblack.png', 'correct_response': 'right', 'condition': 'stop'}, {'fileName': 'circleblack.png', 'correct_response': 'left', 'condition': 'go'}, {'fileName': 'circleblack.png', 'correct_response': 'left', 'condition': 'go'}, {'fileName': 'squareblack.png', 'correct_response': 'right', 'condition': 'go'}, {'fileName': 'squareblack.png', 'correct_response': 'right', 'condition': 'go'}, {'fileName': 'circleblack.png', 'correct_response': 'left', 'condition': 'stop'}, {'fileName': 'circleblack.png', 'correct_response': 'left', 'condition': 'stop'}, {'fileName': 'squareblack.png', 'correct_response': 'right', 'condition': 'go'}, {'fileName': 'squareblack.png', 'correct_response': 'right', 'condition': 'go'}, {'fileName': 'squareblack.png', 'correct_response': 'right', 'condition': 'stop'}]",,,,,,s016,001,2024-07-22_12h03.07.879,simplestop_skeleton,2022.2.2,59.94793615396527,
None,None,,,,,,,,,2,0,2,0,0,0,0,2,,,,,,,,,1487.8137553855777,go,circleblack.png,left,0.35,,,,,,,,,,,,,,,0.00282103568315506,0.49030987173318863,,1490.317231733352,test,3,,,,,,,,,,1487.834105975926,1488.3468564487994,1488.3301519192755,1488.3301519192755,1488.6804423481226,1489.1812007576227,1489.331384845078,1490.3364120945334,left,1,0.5972157344222069,0.35,,,,,,,,,,,s016,001,2024-07-22_12h03.07.879,simplestop_skeleton,2022.2.2,59.94793615396527,
$currentCorrectResponse,$currentGoStim,,,,,,,,,2,0,2,0,0,1,1,0,,,,,,,,,1490.3177596963942,go,circleblack.png,left,0.35,,,,,,,,,,,,,,,0.0014706626534461975,0.4894411973655224,,1492.8197513520718,test,3,,,,,,,,,,1490.3364120945334,1490.8497924879193,1490.8329345099628,1490.8329345099628,1491.1833174750209,1491.6841190494597,1491.8340208083391,1492.844013337046,left,1,0.7981989718973637,0.35,,,,,,,,,,,s016,001,2024-07-22_12h03.07.879,simplestop_skeleton,2022.2.2,59.94793615396527,
None,None,,,,,,,,,2,0,2,0,0,2,2,3,,,,,,,,,1492.8201862424612,stop,squareblack.png,right,0.35,,,,,,,,,,,,,,,0.007262036204338074,0.48958641290664673,0.84018998965621,1495.3224845044315,test,3,,,,,,,,,,1492.844013337046,1493.352433130145,1493.33605742082,1493.33605742082,1493.6860680766404,1494.185174960643,1494.3359640724957,1495.341785814613,right,1,0.5446146242320538,0.3,,,,,,,,,,,s016,001,2024-07-22_12h03.07.879,simplestop_skeleton,2022.2.2,59.94793615396527,
None,None,,,,,,,,,2,0,2,0,0,3,3,1,,,,,,,,,1495.3229172937572,stop,circleblack.png,left,0.3,,,,,,,,,,,,,,,0.0018699467182159424,0.489762831479311,0.7898849174380302,1497.8254636526108,test,3,,,,,,,,,,1495.341785814613,1495.8551948405802,1495.8384600169957,1495.8384600169957,1496.138874977827,1496.6393555887043,1496.8395762890577,1497.8445367440581,None,0,,0.35,,,,,,,,,,,s016,001,2024-07-22_12h03.07.879,simplestop_skeleton,2022.2.2,59.94793615396527,
$currentCorrectResponse,$currentGoStim,,,,,,,,,2,0,2,0,1,0,4,0,,,,,,,,,1497.8259035237134,stop,circleblack.png,left,0.35,,,,,,,,,,,,,,,0.0014810487627983093,0.4895888864994049,0.8399612419307232,1500.3281867541373,test,3,,,,,,,,,,1497.8445367440581,1498.3580641970038,1498.3417656943202,1498.3417656943202,1498.6919634640217,1499.1925472468138,1499.3427744023502,1500.3470209240913,None,0,,0.4,,,,,,,,,,,s016,001,2024-07-22_12h03.07.879,simplestop_skeleton,2022.2.2,59.94793615396527,
None,None,,,,,,,,,2,0,2,0,1,1,5,2,,,,,,,,,1500.3286419808865,stop,squareblack.png,right,0.4,,,,,,,,,,,,,,,0.0016687177121639252,0.4898839108645916,0.8903514519333839,1502.8308412395418,test,3,,,,,,,,,,1500.3470209240913,1500.8607596755028,1500.8443023450673,1500.8443023450673,1501.2447237819433,1501.745122116059,1501.8453829325736,1502.8495992720127,None,0,,0.45,,,,,,,,,,,s016,001,2024-07-22_12h03.07.879,simplestop_skeleton,2022.2.2,59.94793615396527,
None,None,,,,,,,,,2,0,2,0,1,2,6,1,,,,,,,,,1502.831278797239,go,squareblack.png,right,0.45,,,,,,,,,,,,,,,0.0013158805668354034,0.4895590990781784,,1505.34356405586,test,3,,,,,,,,,,1502.8495992720127,1503.3637312725186,1503.3468600958586,1503.3468600958586,1503.7974400147796,1504.296466447413,1504.34656143561,1505.361827492714,right,1,0.6287160404026508,0.45,,,,,,,,,,,s016,001,2024-07-22_12h03.07.879,simplestop_skeleton,2022.2.2,59.94793615396527,
$currentCorrectResponse,$currentGoStim,,,,,,,,,2,0,2,0,1,3,7,0,,,,,,,,,1505.3441316634417,go,circleblack.png,left,0.45,,,,,,,,,,,,,,,0.001772470772266388,0.4948422275483608,,1507.8529656380415,test,3,,,,,,,,,,1505.361827492714,1505.8658672608435,1505.8658672608435,1505.8658672608435,1506.3155359216034,1506.8158663287759,1506.8658258244395,1507.8719302862883,left,1,0.7169083580374718,0.45,,,,,,,,,,,s016,001,2024-07-22_12h03.07.879,simplestop_skeleton,2022.2.2,59.94793615396527,
None,None,,,,,,,,,2,0,2,0,2,0,8,1,,,,,,,,,1507.8533939570189,go,circleblack.png,left,0.45,,,,,,,,,,,,,,,0.0013548694550991058,0.48963719978928566,,1510.3559885248542,test,3,,,,,,,,,,1507.8719302862883,1508.3857415653765,1508.3690266311169,1508.3690266311169,1508.819540373981,1509.319967713207,1509.3688550665975,1510.37538549304,left,1,0.6979814097285271,0.45,,,,,,,,,,,s016,001,2024-07-22_12h03.07.879,simplestop_skeleton,2022.2.2,59.94793615396527,
None,None,,,,,,,,,2,0,2,0,2,1,9,2,,,,,,,,,1510.3564420752227,go,squareblack.png,right,0.45,,,,,,,,,,,,,,,0.0017406083643436432,0.489275224506855,,1512.8582683987916,test,3,,,,,,,,,,1510.37538549304,1510.8886962421238,1510.8717159740627,1510.8717159740627,1511.3220647536218,1511.821362722665,1511.8713967390358,1512.8761885166168,right,1,0.588648360222578,0.45,,,,,,,,,,,s016,001,2024-07-22_12h03.07.879,simplestop_skeleton,2022.2.2,59.94793615396527,
None,None,,,,,,,,,2,0,2,0,2,2,10,3,,,,,,,,,1512.8586956746876,go,squareblack.png,right,0.45,,,,,,,,,,,,,,,0.001197565346956253,0.48993565887212753,,1515.3611243255436,test,3,,,,,,,,,,1512.8761885166168,1513.3911963105202,1513.3744473606348,1513.3744473606348,1513.8249789848924,1514.3244331106544,1514.3743353746831,1515.379907719791,right,1,0.6387366093695164,0.45,,,,,,,,,,,s016,001,2024-07-22_12h03.07.879,simplestop_skeleton,2022.2.2,59.94793615396527,
$currentCorrectResponse,$currentGoStim,,,,,,,,,2,0,2,0,2,3,11,0,,,,,,,,,1515.3615501858294,go,squareblack.png,right,0.45,,,,,,,,,,,,,,,0.0012064836919307709,0.48994752019643784,,1517.8639521487057,test,3,,,,,,,,,,1515.379907719791,1515.893993318081,1515.877271965146,1515.877271965146,1516.3277170099318,1516.8268936350942,1516.8769037760794,1517.8828462995589,right,1,0.6562405563890934,0.45,,,,,,,,,,,s016,001,2024-07-22_12h03.07.879,simplestop_skeleton,2022.2.2,59.94793615396527,
None,None,,,,,,,,,2,0,2,0,3,0,12,3,,,,,,,,,1517.8644584678113,go,squareblack.png,right,0.45,,,,,,,,,,,,,,,0.0013333000242710114,0.48958635330200195,,1520.3666345067322,test,3,,,,,,,,,,1517.8828462995589,1518.396736573428,1518.3801110982895,1518.3801110982895,1518.830716624856,1519.329908017069,1519.379672601819,1520.3860139921308,right,1,0.6553459651768208,0.45,,,,,,,,,,,s016,001,2024-07-22_12h03.07.879,simplestop_skeleton,2022.2.2,59.94793615396527,
None,None,,,,,,,,,2,0,2,0,3,1,13,1,,,,,,,,,1520.3671405985951,go,circleblack.png,left,0.45,,,,,,,,,,,,,,,0.0018267221748828888,0.4898091293871403,,1522.8694708794355,test,3,,,,,,,,,,1520.3860139921308,1520.899414602667,1520.8829554915428,1520.8829554915428,1521.3333264812827,1521.8338489867747,1521.8838896490633,1522.888730827719,left,1,0.7186003029346466,0.45,,,,,,,,,,,s016,001,2024-07-22_12h03.07.879,simplestop_skeleton,2022.2.2,59.94793615396527,
None,None,,,,,,,,,2,0,2,0,3,2,14,3,,,,,,,,,1522.8699275627732,stop,squareblack.png,right,0.45,,,,,,,,,,,,,,,0.0016307905316352844,0.4895709902048111,0.9399783499538898,1525.372358571738,test,3,,,,,,,,,,1522.888730827719,1523.4021279029548,1523.385654091835,1523.385654091835,1523.8364416770637,1524.3519621379673,1524.385209966451,1525.3916859924793,right,1,0.5797387398779392,0.4,,,,,,,,,,,s016,001,2024-07-22_12h03.07.879,simplestop_skeleton,2022.2.2,59.94793615396527,
$currentCorrectResponse,$currentGoStim,,,,,,,,,2,0,2,0,3,3,15,0,,,,,,,,,1525.372797433287,go,circleblack.png,left,0.4,,,,,,,,,,,,,,,0.001726742833852768,0.48941828683018684,,1527.875178411603,test,3,,,,,,,,,,1525.3916859924793,1525.9051517024636,1525.8883471265435,1525.8883471265435,1526.288673043251,1526.7880449071527,1526.8879541158676,1527.8941590748727,left,1,0.6010744348168373,0.4,,,,,,,,,,,s016,001,2024-07-22_12h03.07.879,simplestop_skeleton,2022.2.2,59.94793615396527,
None,None,,,,,,,,,2,0,2,0,4,0,16,3,,,,,,,,,1527.875634804368,stop,circleblack.png,left,0.4,,,,,,,,,,,,,,,0.0014673732221126556,0.4896543025970459,0.8901308067142963,1530.377918291837,test,3,,,,,,,,,,1527.8941590748727,1528.4078623205423,1528.3911284692585,1528.3911284692585,1528.7916763536632,1529.2921803556383,1529.3922638185322,1530.3968900963664,None,0,,0.45,,,,,,,,,,,s016,001,2024-07-22_12h03.07.879,simplestop_skeleton,2022.2.2,59.94793615396527,
$currentCorrectResponse,$currentGoStim,,,,,,,,,2,0,2,0,4,1,17,0,,,,,,,,,1530.3783694468439,go,circleblack.png,left,0.45,,,,,,,,,,,,,,,0.001379840075969696,0.4884810969233513,,1532.8807011954486,test,3,,,,,,,,,,1530.3968900963664,1530.9091075845063,1530.8924213424325,1530.8924213424325,1531.343008197844,1531.8450131304562,1531.8950017243624,1532.900088045746,left,1,0.7018275558948517,0.45,,,,,,,,,,,s016,001,2024-07-22_12h03.07.879,simplestop_skeleton,2022.2.2,59.94793615396527,
$currentCorrectResponse,$currentGoStim,,,,,,,,,2,0,2,0,4,2,18,0,,,,,,,,,1532.881160479039,go,squareblack.png,right,0.45,,,,,,,,,,,,,,,0.0017157122492790222,0.4896818809211254,,1535.3834365531802,test,3,,,,,,,,,,1532.900088045746,1533.4133672602475,1533.3968993835151,1533.3968993835151,1533.8470551893115,1534.3463283404708,1534.3963972330093,1535.4029297456145,right,1,0.5989114306867123,0.45,,,,,,,,,,,s016,001,2024-07-22_12h03.07.879,simplestop_skeleton,2022.2.2,59.94793615396527,
None,None,,,,,,,,,2,0,2,0,4,3,19,2,,,,,,,,,1535.383866596967,go,circleblack.png,left,0.45,,,,,,,,,,,,,,,0.0018055588006973267,0.4897535443305969,,1537.8861664496362,test,3,,,,,,,,,,1535.4029297456145,1535.916493628174,1535.8994330950081,1535.8994330950081,1536.3498456515372,1536.8507423736155,1536.8993012309074,1537.9055000655353,left,1,0.7462250106036663,0.45,,,,,,,,,,,s016,001,2024-07-22_12h03.07.879,simplestop_skeleton,2022.2.2,59.94793615396527,
None,None,,,,,,,,,2,0,2,0,5,0,20,1,,,,,,,,,1537.8865973465145,go,squareblack.png,right,0.45,,,,,,,,,,,,,,,0.0016342923045158386,0.48954783752560616,,1540.3887473382056,test,3,,,,,,,,,,1537.9055000655353,1538.4189048185945,1538.4022380188107,1538.4022380188107,1538.8526780195534,1539.3520591147244,1539.4021950513124,1540.407246414572,right,1,0.5471100211143494,0.45,,,,,,,,,,,s016,001,2024-07-22_12h03.07.879,simplestop_skeleton,2022.2.2,59.94793615396527,
None,None,,,,,,,,,2,0,2,0,5,1,21,3,,,,,,,,,1540.3891716599464,go,squareblack.png,right,0.45,,,,,,,,,,,,,,,0.001181911677122116,0.49024592712521553,,1542.8916908688843,test,3,,,,,,,,,,1540.407246414572,1540.9217949211597,1540.9049091674387,1540.9049091674387,1541.3553905300796,1541.856247805059,1541.9055920764804,1542.9112291708589,right,1,0.41698378697037697,0.45,,,,,,,,,,,s016,001,2024-07-22_12h03.07.879,simplestop_skeleton,2022.2.2,59.94793615396527,
$currentCorrectResponse,$currentGoStim,,,,,,,,,2,0,2,0,5,2,22,0,,,,,,,,,1542.892125107348,stop,circleblack.png,left,0.45,,,,,,,,,,,,,,,0.001977585256099701,0.48985161259770393,0.9408152028918266,1545.3946007192135,test,3,,,,,,,,,,1542.9112291708589,1543.424418758601,1543.4078508093953,1543.4078508093953,1543.85846792534,1544.3745186328888,1544.4075537584722,1545.41362580657,left,1,0.5035846754908562,0.4,,,,,,,,,,,s016,001,2024-07-22_12h03.07.879,simplestop_skeleton,2022.2.2,59.94793615396527,
None,None,,,,,,,,,2,0,2,0,5,3,23,2,,,,,,,,,1545.3951401785016,stop,squareblack.png,right,0.4,,,,,,,,,,,,,,,0.001644287258386612,0.4897465966641903,0.8901468180119991,1547.8970428481698,test,3,,,,,,,,,,1545.41362580657,1545.9272338449955,1545.9106886349618,1545.9106886349618,1546.3111487105489,1546.8100814335048,1546.9101290479302,1547.9147496558726,right,1,0.5846478305757046,0.35,,,,,,,,,,,s016,001,2024-07-22_12h03.07.879,simplestop_skeleton,2022.2.2,59.94793615396527,
None,None,,,,,,,,,2,0,2,0,6,0,24,1,,,,,,,,,1547.8974827043712,go,squareblack.png,right,0.35,,,,,,,,,,,,,,,0.0011880695819854736,0.488623958081007,,1550.399784501642,test,3,,,,,,,,,,1547.9147496558726,1548.428408447653,1548.41172734648,1548.41172734648,1548.762118499726,1549.2640081346035,1549.4142180420458,1550.4183094464242,right,1,0.6515570394694805,0.35,,,,,,,,,,,s016,001,2024-07-22_12h03.07.879,simplestop_skeleton,2022.2.2,59.94793615396527,
None,None,,,,,,,,,2,0,2,0,6,1,25,2,,,,,,,,,1550.4002381712198,stop,squareblack.png,right,0.35,,,,,,,,,,,,,,,0.0012677423655986786,0.48990102112293243,0.8402239270508289,1552.9028418585658,test,3,,,,,,,,,,1550.4183094464242,1550.9327918961644,1550.915932700038,1550.915932700038,1551.2664268687367,1551.7654248848557,1551.9156628027558,1552.922115534544,right,1,0.5016906298696995,0.3,,,,,,,,,,,s016,001,2024-07-22_12h03.07.879,simplestop_skeleton,2022.2.2,59.94793615396527,
None,None,,,,,,,,,2,0,2,0,6,2,26,3,,,,,,,,,1552.9032791219652,go,circleblack.png,left,0.3,,,,,,,,,,,,,,,0.00189252570271492,0.48958322778344154,,1555.405433140695,test,3,,,,,,,,,,1552.922115534544,1553.4353854320943,1553.418796747923,1553.418796747923,1553.7191596738994,1554.2200232110918,1554.4199445024133,1555.4243551194668,left,1,0.7639551907777786,0.3,,,,,,,,,,,s016,001,2024-07-22_12h03.07.879,simplestop_skeleton,2022.2.2,59.94793615396527,
None,None,,,,,,,,,2,0,2,0,6,3,27,1,,,,,,,,,1555.4059183821082,go,circleblack.png,left,0.3,,,,,,,,,,,,,,,0.0013960488140583038,0.4898151233792305,,1557.908146288246,test,3,,,,,,,,,,1555.4243551194668,1555.938136100769,1555.9215669743717,1555.9215669743717,1556.2219451218843,1556.7223935760558,1556.9210966080427,1557.9269884973764,left,1,0.6340741701424122,0.3,,,,,,,,,,,s016,001,2024-07-22_12h03.07.879,simplestop_skeleton,2022.2.2,59.94793615396527,
$currentCorrectResponse,$currentGoStim,,,,,,,,,2,0,2,0,7,0,28,0,,,,,,,,,1557.9085741862655,go,circleblack.png,left,0.3,,,,,,,,,,,,,,,0.0012999549508094788,0.48954974859952927,,1560.4110732115805,test,3,,,,,,,,,,1557.9269884973764,1558.441037479788,1558.4240877218544,1558.4240877218544,1558.724469896406,1559.2235981337726,1559.423841677606,1560.430250775069,left,1,0.40966638550162315,0.3,,,,,,,,,,,s016,001,2024-07-22_12h03.07.879,simplestop_skeleton,2022.2.2,59.94793615396527,
None,None,,,,,,,,,2,0,2,0,7,1,29,3,,,,,,,,,1560.4115295186639,go,squareblack.png,right,0.3,,,,,,,,,,,,,,,0.0017732009291648865,0.48954348266124725,,1562.913737155497,test,3,,,,,,,,,,1560.430250775069,1560.9436926841736,1560.9271095059812,1560.9271095059812,1561.2273225151002,1561.7280382290483,1561.9266976229846,1562.9334947057068,right,1,0.5981983542442322,0.3,,,,,,,,,,,s016,001,2024-07-22_12h03.07.879,simplestop_skeleton,2022.2.2,59.94793615396527,
None,None,,,,,,,,,2,0,2,0,7,2,30,1,,,,,,,,,1562.9141667596996,go,circleblack.png,left,0.3,,,,,,,,,,,,,,,0.0019438043236732483,0.48953353986144066,,1565.4165208600461,test,3,,,,,,,,,,1562.9334947057068,1563.4464515969157,1563.4297327175736,1563.4297327175736,1563.7302656397223,1564.2306365966797,1564.4295821338892,1565.4357413053513,left,1,0.5668909661471844,0.3,,,,,,,,,,,s016,001,2024-07-22_12h03.07.879,simplestop_skeleton,2022.2.2,59.94793615396527,
None,None,,,,,,,,,2,0,2,0,7,3,31,2,,,,,,,,,1565.4169633463025,stop,circleblack.png,left,0.3,,,,,,,,,,,,,,,0.001367419958114624,0.48952558636665344,0.789666298776865,1567.9195989854634,test,3,,,,,,,,,,1565.4357413053513,1565.9490982331336,1565.932434335351,1565.932434335351,1566.232802040875,1566.7333045713603,1566.9337877109647,1567.9385740160942,None,0,,0.35,,,,,,,,,,,s016,001,2024-07-22_12h03.07.879,simplestop_skeleton,2022.2.2,59.94793615396527,
None,None,,,,,,,,,2,0,2,0,8,0,32,1,,,,,,,,,1567.9200434051454,stop,squareblack.png,right,0.35,,,,,,,,,,,,,,,0.0015497691929340363,0.4882628433406353,0.838587112724781,1570.4221829995513,test,3,,,,,,,,,,1567.9385740160942,1568.4505463689566,1568.4339008294046,1568.4339008294046,1568.7842887453735,1569.286249358207,1569.4368316605687,1570.4410836398602,None,0,,0.4,,,,,,,,,,,s016,001,2024-07-22_12h03.07.879,simplestop_skeleton,2022.2.2,59.94793615396527,
None,None,,,,,,,,,2,0,2,0,8,1,33,2,,,,,,,,,1570.4226252958179,go,squareblack.png,right,0.4,,,,,,,,,,,,,,,0.0013174116611480713,0.4895518682897091,,1572.9249585978687,test,3,,,,,,,,,,1570.4410836398602,1570.9537016674876,1570.9382475540042,1570.9382475540042,1571.3385398723185,1571.837661396712,1571.9386890307069,1572.9438250549138,right,1,0.5551028177142143,0.4,,,,,,,,,,,s016,001,2024-07-22_12h03.07.879,simplestop_skeleton,2022.2.2,59.94793615396527,
None,None,,,,,,,,,2,0,2,0,8,2,34,2,,,,,,,,,1572.9253992885351,go,squareblack.png,right,0.4,,,,,,,,,,,,,,,0.001294150948524475,0.4895816706120968,,1575.4276482127607,test,3,,,,,,,,,,1572.9438250549138,1573.457993209362,1573.4411370679736,1573.4411370679736,1573.8413169570267,1574.3418169096112,1574.4420457333326,1575.4472392760217,right,1,0.7566070109605789,0.4,,,,,,,,,,,s016,001,2024-07-22_12h03.07.879,simplestop_skeleton,2022.2.2,59.94793615396527,
None,None,,,,,,,,,2,0,2,0,8,3,35,2,,,,,,,,,1575.4280889816582,stop,circleblack.png,left,0.4,,,,,,,,,,,,,,,0.0020733363926410675,0.48959938809275627,0.8902146741747856,1577.9301883354783,test,3,,,,,,,,,,1575.4472392760217,1575.960375919938,1575.9439372569323,1575.9439372569323,1576.3440837189555,1576.8432963490486,1576.9436861798167,1577.9493492916226,left,1,0.5348110385239124,0.35,,,,,,,,,,,s016,001,2024-07-22_12h03.07.879,simplestop_skeleton,2022.2.2,59.94793615396527,
None,None,,,,,,,,,2,0,2,0,9,0,36,2,,,,,,,,,1577.930626358837,go,circleblack.png,left,0.35,,,,,,,,,,,,,,,0.0015029273927211761,0.4897336810827255,,1580.4330221749842,test,3,,,,,,,,,,1577.9493492916226,1578.4629673287272,1578.446129836142,1578.446129836142,1578.796824786812,1579.2971796616912,1579.4473757259548,1580.4521811679006,left,1,0.7383754514157772,0.35,,,,,,,,,,,s016,001,2024-07-22_12h03.07.879,simplestop_skeleton,2022.2.2,59.94793615396527,
None,None,,,,,,,,,2,0,2,0,9,1,37,3,,,,,,,,,1580.4334802404046,go,circleblack.png,left,0.35,,,,,,,,,,,,,,,0.0014190562069416046,0.48953986167907715,,1582.9356170259416,test,3,,,,,,,,,,1580.4521811679006,1580.9656497463584,1580.949162106961,1580.949162106961,1581.2994582355022,1581.7999537959695,1581.948874734342,1582.955183684826,left,1,0.7052525021135807,0.35,,,,,,,,,,,s016,001,2024-07-22_12h03.07.879,simplestop_skeleton,2022.2.2,59.94793615396527,
None,None,,,,,,,,,2,0,2,0,9,2,38,3,,,,,,,,,1582.93606377393,stop,squareblack.png,right,0.35,,,,,,,,,,,,,,,0.0017519444227218628,0.4898078106343746,0.8400766998529434,1585.438586000353,test,3,,,,,,,,,,1582.955183684826,1583.468633595854,1583.4521573632956,1583.4521573632956,1583.8021258674562,1584.3026608861983,1584.4528364762664,1585.458019386977,None,0,,0.4,,,,,,,,,,,s016,001,2024-07-22_12h03.07.879,simplestop_skeleton,2022.2.2,59.94793615396527,
$currentCorrectResponse,$currentGoStim,,,,,,,,,2,0,2,0,9,3,39,0,,,,,,,,,1585.439024489373,go,circleblack.png,left,0.4,,,,,,,,,,,,,,,0.0018303021788597107,0.48994481563568115,,1587.9413327537477,test,3,,,,,,,,,,1585.458019386977,1585.9715207368135,1585.95456109941,1585.95456109941,1586.3550092354417,1586.8555945530534,1586.9542339146137,1587.9602058008313,left,1,0.6610667034983635,0.4,,,,,,,,,,,s016,001,2024-07-22_12h03.07.879,simplestop_skeleton,2022.2.2,59.94793615396527,
None,None,,,,,,,,,2,0,2,0,10,0,40,3,,,,,,,,,1587.941772185266,go,circleblack.png,left,0.4,,,,,,,,,,,,,,,0.0014162585139274597,0.4894978255033493,,1590.4440945982933,test,3,,,,,,,,,,1587.9602058008313,1588.4741102084517,1588.4574853815138,1588.4574853815138,1588.8578042313457,1589.3568427599967,1589.457007728517,1590.463027819991,left,1,0.5218467190861702,0.4,,,,,,,,,,,s016,001,2024-07-22_12h03.07.879,simplestop_skeleton,2022.2.2,59.94793615396527,
$currentCorrectResponse,$currentGoStim,,,,,,,,,2,0,2,0,10,1,41,0,,,,,,,,,1590.4445410259068,go,squareblack.png,right,0.4,,,,,,,,,,,,,,,0.0016404949128627777,0.4898964539170265,,1592.9467849768698,test,3,,,,,,,,,,1590.463027819991,1590.9767191447318,1590.9602523818612,1590.9602523818612,1591.3605679497123,1591.8612731210887,1591.9611707478762,1592.965497855097,right,1,0.8291260488331318,0.4,,,,,,,,,,,s016,001,2024-07-22_12h03.07.879,simplestop_skeleton,2022.2.2,59.94793615396527,
None,None,,,,,,,,,2,0,2,0,10,2,42,1,,,,,,,,,1592.9472258649766,go,squareblack.png,right,0.4,,,,,,,,,,,,,,,0.0011911392211914062,0.4900415353477001,,1595.4498505108058,test,3,,,,,,,,,,1592.965497855097,1593.479601919651,1593.462911669165,1593.462911669165,1593.863107290119,1594.3624108769,1594.4625393152237,1595.4694752134383,right,1,0.6755939275026321,0.4,,,,,,,,,,,s016,001,2024-07-22_12h03.07.879,simplestop_skeleton,2022.2.2,59.94793615396527,
$currentCorrectResponse,$currentGoStim,,,,,,,,,2,0,2,0,10,3,43,0,,,,,,,,,1595.450286410749,stop,circleblack.png,left,0.4,,,,,,,,,,,,,,,0.0020154938101768494,0.48970092833042145,0.8900173045694828,1597.9524355903268,test,3,,,,,,,,,,1595.4694752134383,1595.9823120869696,1595.9660414531827,1595.9660414531827,1596.3660751990974,1596.8666147328913,1596.966999873519,1597.971614163369,left,1,0.6885182447731495,0.35,,,,,,,,,,,s016,001,2024-07-22_12h03.07.879,simplestop_skeleton,2022.2.2,59.94793615396527,
None,None,,,,,,,,,2,0,2,0,11,0,44,3,,,,,,,,,1597.9528611525893,stop,circleblack.png,left,0.35,,,,,,,,,,,,,,,0.0013450086116790771,0.48968859761953354,0.8400820568203926,1600.4549596458673,test,3,,,,,,,,,,1597.971614163369,1598.4849928990006,1598.4684074483812,1598.4684074483812,1598.8189416006207,1599.3192938119173,1599.4696479924023,1600.4742380455136,None,0,,0.4,,,,,,,,,,,s016,001,2024-07-22_12h03.07.879,simplestop_skeleton,2022.2.2,59.94793615396527,
None,None,,,,,,,,,2,0,2,0,11,1,45,1,,,,,,,,,1600.4553870856762,go,squareblack.png,right,0.4,,,,,,,,,,,,,,,0.001796867698431015,0.4899147041141987,,1602.9579303115606,test,3,,,,,,,,,,1600.4742380455136,1600.9878211691976,1600.971325557679,1600.971325557679,1601.3703860156238,1601.8733404576778,1601.9714055806398,1602.9771407060325,right,1,0.7175200507044792,0.4,,,,,,,,,,,s016,001,2024-07-22_12h03.07.879,simplestop_skeleton,2022.2.2,59.94793615396527,
None,None,,,,,,,,,2,0,2,0,11,2,46,1,,,,,,,,,1602.9583552964032,go,squareblack.png,right,0.4,,,,,,,,,,,,,,,0.0012811943888664246,0.48963331803679466,,1605.460619095713,test,3,,,,,,,,,,1602.9771407060325,1603.4906832762063,1603.4739406369627,1603.4739406369627,1603.874277997762,1604.3735359944403,1604.4736705198884,1605.4798734895885,right,1,0.595519196242094,0.4,,,,,,,,,,,s016,001,2024-07-22_12h03.07.879,simplestop_skeleton,2022.2.2,59.94793615396527,
None,None,,,,,,,,,2,0,2,0,11,3,47,2,,,,,,,,,1605.4610465355217,stop,squareblack.png,right,0.4,,,,,,,,,,,,,,,0.0014310330152511597,0.48967035487294197,0.8899271376430988,1607.9635387174785,test,3,,,,,,,,,,1605.4798734895885,1605.99339177832,1605.976507782936,1605.976507782936,1606.3770984709263,1606.8777434267104,1606.9762951806188,1607.9790407791734,right,1,0.5556811951100826,0.35,,,,,,,,,,,s016,001,2024-07-22_12h03.07.879,simplestop_skeleton,2022.2.2,59.94793615396527,
