corrGoResp,shape,practiceBlocks.thisRepN,practiceBlocks.thisTrialN,practiceBlocks.thisN,practiceBlocks.thisIndex,practiceTrials.thisRepN,practiceTrials.thisTrialN,practiceTrials.thisN,practiceTrials.thisIndex,stopBlocks.thisRepN,stopBlocks.thisTrialN,stopBlocks.thisN,stopBlocks.thisIndex,testTrials.thisRepN,testTrials.thisTrialN,testTrials.thisN,testTrials.thisIndex,stopPracTrialList,Test Block: 1,welcome.started,start_exp.started,start_exp.keys,start_exp.rt,instrStopText.started,start_prac.started,StartTrialTimeStamp,trialType,goStim,correctResponse,ssd,fixation.started,rules.started,goStim.started,goResp.started,fixation.stopped,stopSignal.started,stopSignal.stopped,goStim.stopped,goResp.stopped,rules.stopped,goResp.keys,goResp.corr,text.started,rules_2.started,fixationOnset,goStimOnset,stopSignalOnset,EndTrialTimeStamp,Phase,Block,goResp.rt,text.stopped,rules_2.stopped,text_5.started,key_resp_3.started,key_resp_3.keys,key_resp_3.rt,key_resp.started,testText.started,test_fixation.started,test_fixation.stopped,goStim_test.started,goResp_test.started,stopSignal_test.started,stopSignal_test.stopped,goStim_test.stopped,goResp_test.stopped,goResp_test.keys,goResp_test.corr,goResp_test.rt,EndingSSD,text_6.started,key_resp_4.started,key_resp_4.keys,key_resp_4.rt,Test Block: 2,Test Block: 3,ending_text.started,end_resp.started,end_resp.keys,end_resp.rt,participant,session,date,expName,psychopyVersion,frameRate,
,,,,,,,,,,,,,,,,,,"[{'fileName': 'circleblack.png', 'correct_response': 'left', 'condition': 'go'}, {'fileName': 'circleblack.png', 'correct_response': 'left', 'condition': 'go'}, {'fileName': 'squareblack.png', 'correct_response': 'right', 'condition': 'go'}, {'fileName': 'circleblack.png', 'correct_response': 'left', 'condition': 'go'}, {'fileName': 'squareblack.png', 'correct_response': 'right', 'condition': 'go'}, {'fileName': 'squareblack.png', 'correct_response': 'right', 'condition': 'stop'}, {'fileName': 'circleblack.png', 'correct_response': 'left', 'condition': 'stop'}, {'fileName': 'circleblack.png', 'correct_response': 'left', 'condition': 'stop'}, {'fileName': 'circleblack.png', 'correct_response': 'left', 'condition': 'go'}, {'fileName': 'squareblack.png', 'correct_response': 'right', 'condition': 'go'}, {'fileName': 'squareblack.png', 'correct_response': 'right', 'condition': 'go'}, {'fileName': 'squareblack.png', 'correct_response': 'right', 'condition': 'stop'}, {'fileName': 'squareblack.png', 'correct_response': 'right', 'condition': 'go'}, {'fileName': 'squareblack.png', 'correct_response': 'right', 'condition': 'stop'}, {'fileName': 'circleblack.png', 'correct_response': 'left', 'condition': 'stop'}, {'fileName': 'squareblack.png', 'correct_response': 'right', 'condition': 'stop'}, {'fileName': 'circleblack.png', 'correct_response': 'left', 'condition': 'go'}, {'fileName': 'circleblack.png', 'correct_response': 'left', 'condition': 'go'}, {'fileName': 'circleblack.png', 'correct_response': 'left', 'condition': 'go'}, {'fileName': 'circleblack.png', 'correct_response': 'left', 'condition': 'go'}, {'fileName': 'circleblack.png', 'correct_response': 'left', 'condition': 'stop'}, {'fileName': 'squareblack.png', 'correct_response': 'right', 'condition': 'go'}, {'fileName': 'squareblack.png', 'correct_response': 'right', 'condition': 'go'}, {'fileName': 'squareblack.png', 'correct_response': 'right', 'condition': 'go'}]","[{'fileName': 'squareblack.png', 'correct_response': 'right', 'condition': 'go'}, {'fileName': 'circleblack.png', 'correct_response': 'left', 'condition': 'go'}, {'fileName': 'circleblack.png', 'correct_response': 'left', 'condition': 'stop'}, {'fileName': 'circleblack.png', 'correct_response': 'left', 'condition': 'go'}, {'fileName': 'circleblack.png', 'correct_response': 'left', 'condition': 'stop'}, {'fileName': 'squareblack.png', 'correct_response': 'right', 'condition': 'stop'}, {'fileName': 'squareblack.png', 'correct_response': 'right', 'condition': 'go'}, {'fileName': 'circleblack.png', 'correct_response': 'left', 'condition': 'go'}, {'fileName': 'squareblack.png', 'correct_response': 'right', 'condition': 'go'}, {'fileName': 'squareblack.png', 'correct_response': 'right', 'condition': 'stop'}, {'fileName': 'circleblack.png', 'correct_response': 'left', 'condition': 'go'}, {'fileName': 'squareblack.png', 'correct_response': 'right', 'condition': 'go'}, {'fileName': 'circleblack.png', 'correct_response': 'left', 'condition': 'go'}, {'fileName': 'squareblack.png', 'correct_response': 'right', 'condition': 'go'}, {'fileName': 'circleblack.png', 'correct_response': 'left', 'condition': 'stop'}, {'fileName': 'circleblack.png', 'correct_response': 'left', 'condition': 'go'}, {'fileName': 'squareblack.png', 'correct_response': 'right', 'condition': 'stop'}, {'fileName': 'circleblack.png', 'correct_response': 'left', 'condition': 'stop'}, {'fileName': 'squareblack.png', 'correct_response': 'right', 'condition': 'go'}, {'fileName': 'circleblack.png', 'correct_response': 'left', 'condition': 'go'}, {'fileName': 'squareblack.png', 'correct_response': 'right', 'condition': 'stop'}, {'fileName': 'squareblack.png', 'correct_response': 'right', 'condition': 'go'}, {'fileName': 'squareblack.png', 'correct_response': 'right', 'condition': 'go'}, {'fileName': 'circleblack.png', 'correct_response': 'left', 'condition': 'go'}, {'fileName': 'circleblack.png', 'correct_response': 'left', 'condition': 'go'}, {'fileName': 'squareblack.png', 'correct_response': 'right', 'condition': 'stop'}, {'fileName': 'squareblack.png', 'correct_response': 'right', 'condition': 'go'}, {'fileName': 'circleblack.png', 'correct_response': 'left', 'condition': 'go'}, {'fileName': 'squareblack.png', 'correct_response': 'right', 'condition': 'go'}, {'fileName': 'circleblack.png', 'correct_response': 'left', 'condition': 'stop'}, {'fileName': 'squareblack.png', 'correct_response': 'right', 'condition': 'go'}, {'fileName': 'squareblack.png', 'correct_response': 'right', 'condition': 'go'}, {'fileName': 'circleblack.png', 'correct_response': 'left', 'condition': 'stop'}, {'fileName': 'circleblack.png', 'correct_response': 'left', 'condition': 'go'}, {'fileName': 'circleblack.png', 'correct_response': 'left', 'condition': 'go'}, {'fileName': 'squareblack.png', 'correct_response': 'right', 'condition': 'stop'}, {'fileName': 'circleblack.png', 'correct_response': 'left', 'condition': 'go'}, {'fileName': 'circleblack.png', 'correct_response': 'left', 'condition': 'stop'}, {'fileName': 'squareblack.png', 'correct_response': 'right', 'condition': 'go'}, {'fileName': 'squareblack.png', 'correct_response': 'right', 'condition': 'stop'}, {'fileName': 'squareblack.png', 'correct_response': 'right', 'condition': 'go'}, {'fileName': 'circleblack.png', 'correct_response': 'left', 'condition': 'go'}, {'fileName': 'squareblack.png', 'correct_response': 'right', 'condition': 'go'}, {'fileName': 'circleblack.png', 'correct_response': 'left', 'condition': 'go'}, {'fileName': 'squareblack.png', 'correct_response': 'right', 'condition': 'stop'}, {'fileName': 'circleblack.png', 'correct_response': 'left', 'condition': 'go'}, {'fileName': 'squareblack.png', 'correct_response': 'right', 'condition': 'go'}, {'fileName': 'circleblack.png', 'correct_response': 'left', 'condition': 'stop'}]",144.52366350591183,144.52366350591183,return,3.8366672322154045,,,,,,,,,,,,,,,,,,,,,,,,,,,,,,,,,,,,,,,,,,,,,,,,,,,,,,,,,,,s034,001,2024-09-17_13h32.33.059,simplestop_skeleton,2022.2.2,59.9322899228726,
None,None,0,0,0,0,0,0,0,3,,,,,,,,,,,,,,,148.38607201725245,148.38607201725245,203.5121051594615,go,circleblack.png,left,0.35,203.54696644097567,203.54696644097567,204.03086906671524,204.03086906671524,204.04738388210535,204.381463162601,204.8818707987666,205.03205823153257,206.03329784423113,206.05199298262596,None,0,206.05199298262596,206.05199298262596,0.003072410821914673,0.4908190444111824,0.8410142660140991,206.55132224410772,practice,1,,,,,,,,,,,,,,,,,,,,,,,,,,,,,,,,s034,001,2024-09-17_13h32.33.059,simplestop_skeleton,2022.2.2,59.9322899228726,
None,None,0,0,0,0,0,1,1,1,,,,,,,,,,,,,,,,,206.55185513198376,go,circleblack.png,left,0.35,206.5722015425563,206.5722015425563,207.0675282627344,207.0675282627344,207.08436994999647,207.4177684187889,207.91880324482918,208.0685610026121,209.06968536227942,209.08675181120634,None,0,209.08675181120634,209.08675181120634,0.001574486494064331,0.4891976863145828,0.8394938856363297,209.57121999561787,practice,1,,,,,,,,,,,,,,,,,,,,,,,,,,,,,,,,s034,001,2024-09-17_13h32.33.059,simplestop_skeleton,2022.2.2,59.9322899228726,
None,None,0,0,0,0,0,2,2,3,,,,,,,,,,,,,,,,,209.57170036435127,go,squareblack.png,right,0.35,209.596220202744,209.596220202744,210.08780124783516,210.08780124783516,210.10436967015266,210.4384551718831,210.95372516661882,211.08726356178522,212.09034232795238,212.10706032812595,None,0,212.10706032812595,212.10706032812595,0.007333517074584961,0.4901365712285042,0.8407372683286667,212.6062543913722,practice,1,,,,,,,,,,,,,,,,,,,,,,,,,,,,,,,,s034,001,2024-09-17_13h32.33.059,simplestop_skeleton,2022.2.2,59.9322899228726,
None,None,0,0,0,0,0,3,3,2,,,,,,,,,,,,,,,,,212.60671252012253,go,circleblack.png,left,0.35,212.62441988289356,212.62441988289356,213.12292508035898,213.12292508035898,213.12292508035898,213.473288141191,213.97373212128878,214.1238196119666,215.12682361900806,215.12682361900806,None,0,215.12682361900806,215.12682361900806,0.001729808747768402,0.492763414978981,0.8407279774546623,215.626189365983,practice,1,,,,,,,,,,,,,,,,,,,,,,,,,,,,,,,,s034,001,2024-09-17_13h32.33.059,simplestop_skeleton,2022.2.2,59.9322899228726,
$currentCorrectResponse,$currentGoStim,0,0,0,0,1,0,4,0,,,,,,,,,,,,,,,,,215.62748878449202,go,squareblack.png,right,0.35,215.6453389674425,215.6453389674425,216.14318718016148,216.14318718016148,216.15994500368834,216.4932710453868,216.99374368786812,217.14380811154842,218.14691693335772,218.14691693335772,left,0,218.14691693335772,218.14691693335772,0.0016888827085494995,0.4895523563027382,0.8399347588419914,218.64614257961512,practice,1,0.35744433104991913,,,,,,,,,,,,,,,,,,,,,,,,,,,,,,,s034,001,2024-09-17_13h32.33.059,simplestop_skeleton,2022.2.2,59.9322899228726,
None,None,0,0,0,0,1,1,5,1,,,,,,,,,,,,,,,,,218.6465631723404,stop,squareblack.png,right,0.35,218.66334158182144,218.66334158182144,219.16276225447655,219.16276225447655,219.16276225447655,219.51327528059483,220.0135912746191,220.16380283236504,221.1650634482503,221.1650634482503,None,0,221.1650634482503,221.1650634482503,0.0011991709470748901,0.49055948108434677,0.8410559147596359,221.64971275627613,practice,1,,221.66758302599192,221.66758302599192,,,,,,,,,,,,,,,,,,,,,,,,,,,,,s034,001,2024-09-17_13h32.33.059,simplestop_skeleton,2022.2.2,59.9322899228726,
None,None,0,0,0,0,1,2,6,3,,,,,,,,,,,,,,,,,221.6501734405756,stop,circleblack.png,left,0.4,221.66758302599192,221.66758302599192,222.1673071011901,222.1673071011901,222.1673071011901,222.56831607222557,223.08366542309523,223.16707926988602,224.1681862846017,224.1681862846017,left,1,224.1681862846017,224.1681862846017,0.001688241958618164,0.4914293885231018,0.8923436775803566,224.6530912965536,practice,1,0.33153045177459717,224.6706101745367,224.6706101745367,,,,,,,,,,,,,,,,,,,,,,,,,,,,,s034,001,2024-09-17_13h32.33.059,simplestop_skeleton,2022.2.2,59.9322899228726,
None,None,0,0,0,0,1,3,7,3,,,,,,,,,,,,,,,,,224.6536659821868,stop,circleblack.png,left,0.35,224.6706101745367,224.6706101745367,225.16940661519766,225.16940661519766,225.18631386756897,225.5199415460229,226.02022942900658,226.17030891031027,227.17145094275475,227.17145094275475,left,1,227.17145094275475,227.17145094275475,0.0012450739741325378,0.48991411179304123,0.8404256626963615,227.65626671910286,practice,1,0.6054547131061554,227.6748441979289,227.6748441979289,,,,,,,,,,,,,,,,,,,,,,,,,,,,,s034,001,2024-09-17_13h32.33.059,simplestop_skeleton,2022.2.2,59.9322899228726,
None,None,0,0,0,0,2,0,8,2,,,,,,,,,,,,,,,,,227.65672500431538,go,circleblack.png,left,0.3,227.6748441979289,227.6748441979289,228.1728253737092,228.1728253737092,228.18938349932432,228.47295074909925,228.9734688848257,229.17397783696651,230.17488373816013,230.17488373816013,left,1,230.17488373816013,230.17488373816013,0.0013817772269248962,0.4896613880991936,0.7898641005158424,230.66009441018105,practice,1,0.4912208020687103,,,,,,,,,,,,,,,,,,,,,,,,,,,,,,,s034,001,2024-09-17_13h32.33.059,simplestop_skeleton,2022.2.2,59.9322899228726,
None,None,0,0,0,0,2,1,9,2,,,,,,,,,,,,,,,,,230.66054325550795,go,squareblack.png,right,0.3,230.67987209558487,230.67987209558487,231.1773733049631,231.1773733049631,231.194067761302,231.47760346531868,231.97702105343342,232.17707332223654,233.17819660902023,233.19528951495886,right,1,233.19528951495886,233.19528951495886,0.0021393001079559326,0.4912146255373955,0.7913217842578888,233.67973763495684,practice,1,0.3077037110924721,,,,,,,,,,,,,,,,,,,,,,,,,,,,,,,s034,001,2024-09-17_13h32.33.059,simplestop_skeleton,2022.2.2,59.9322899228726,
$currentCorrectResponse,$currentGoStim,0,0,0,0,2,2,10,0,,,,,,,,,,,,,,,,,233.68022816628218,go,squareblack.png,right,0.3,233.69780000299215,233.69780000299215,234.19598926603794,234.19598926603794,234.21264681220055,234.49629667401314,234.9969788119197,235.19714983552694,236.1987878754735,236.1987878754735,right,1,236.1987878754735,236.1987878754735,0.0012288093566894531,0.48963330686092377,0.7899269610643387,236.68314877152443,practice,1,0.3287651315331459,236.70063226670027,236.70063226670027,,,,,,,,,,,,,,,,,,,,,,,,,,,,,s034,001,2024-09-17_13h32.33.059,simplestop_skeleton,2022.2.2,59.9322899228726,
None,None,0,0,0,0,2,3,11,3,,,,,,,,,,,,,,,,,236.68361090868711,stop,squareblack.png,right,0.3,236.70063226670027,236.70063226670027,237.1992508098483,237.1992508098483,237.21588215231895,237.49971797317266,238.00034774839878,238.20027489215136,239.20338132977486,239.20338132977486,right,1,239.20338132977486,239.20338132977486,0.0011659786105155945,0.48968256264925003,0.7900982350111008,239.7027260363102,practice,1,0.3518209755420685,,,,,,,,,,,,,,,,,,,,,,,,,,,,,,,s034,001,2024-09-17_13h32.33.059,simplestop_skeleton,2022.2.2,59.9322899228726,
$currentCorrectResponse,$currentGoStim,0,0,0,0,3,0,12,0,,,,,,,,,,,,,,,,,239.7031524181366,go,squareblack.png,right,0.25,239.72003492712975,239.72003492712975,240.21916143596172,240.21916143596172,240.21916143596172,240.4696261882782,240.9701159670949,241.2203966677189,242.22157709300518,242.22157709300518,right,1,242.22157709300518,242.22157709300518,0.001171216368675232,0.49018989503383636,0.7406770139932632,242.70629265904427,practice,1,0.41073092818260193,242.7237596064806,242.7237596064806,,,,,,,,,,,,,,,,,,,,,,,,,,,,,s034,001,2024-09-17_13h32.33.059,simplestop_skeleton,2022.2.2,59.9322899228726,
$currentCorrectResponse,$currentGoStim,0,0,0,0,3,1,13,0,,,,,,,,,,,,,,,,,242.70674934983253,stop,squareblack.png,right,0.25,242.7237596064806,242.7237596064806,243.22253804653883,243.22253804653883,243.23931678384542,243.4730320200324,243.97339102625847,244.22368495166302,245.22493068128824,245.22493068128824,right,1,245.22493068128824,245.22493068128824,0.0012044012546539307,0.4901372790336609,0.7408216223120689,245.70960927009583,practice,1,0.3575173392891884,245.73288950324059,245.73288950324059,,,,,,,,,,,,,,,,,,,,,,,,,,,,,s034,001,2024-09-17_13h32.33.059,simplestop_skeleton,2022.2.2,59.9322899228726,
None,None,0,0,0,0,3,2,14,1,,,,,,,,,,,,,,,,,245.71003191918135,stop,circleblack.png,left,0.2,245.73288950324059,245.73288950324059,246.22589471936226,246.22589471936226,246.2432410866022,246.4264263138175,246.92670535296202,247.22699958086014,248.22825106233358,248.2452205568552,left,1,248.2452205568552,248.2452205568552,0.007809467613697052,0.4899314343929291,0.690288282930851,248.72955168038607,practice,1,0.31168900430202484,248.74726999551058,248.74726999551058,,,,,,,,,,,,,,,,,,,,,,,,,,,,,s034,001,2024-09-17_13h32.33.059,simplestop_skeleton,2022.2.2,59.9322899228726,
None,None,0,0,0,0,3,3,15,2,,,,,,,,,,,,,,,,,248.72997304052114,stop,squareblack.png,right,0.15,248.74726999551058,248.74726999551058,249.2460450232029,249.2460450232029,249.2626370638609,249.39620508998632,249.89659320563078,250.24692640453577,251.2480603158474,251.2480603158474,None,0,251.2480603158474,251.2480603158474,0.0016401931643486023,0.49034544825553894,0.6403908953070641,251.73308102041483,practice,1,,251.75376272201538,251.75376272201538,,,,,,,,,,,,,,,,,,,,,,,,,,,,,s034,001,2024-09-17_13h32.33.059,simplestop_skeleton,2022.2.2,59.9322899228726,
None,None,0,0,0,0,4,0,16,1,,,,,,,,,,,,,,,,,251.7335304096341,go,circleblack.png,left,0.2,251.75376272201538,251.75376272201538,252.24942030757666,252.24942030757666,252.26601143181324,252.44989923387766,252.94996260106564,253.25019426643848,254.25129064917564,254.26802277565002,left,1,254.26802277565002,254.26802277565002,0.005140900611877441,0.4897742420434952,0.6901477873325348,254.7532493919134,practice,1,0.3388904631137848,,,,,,,,,,,,,,,,,,,,,,,,,,,,,,,s034,001,2024-09-17_13h32.33.059,simplestop_skeleton,2022.2.2,59.9322899228726,
None,None,0,0,0,0,4,1,17,1,,,,,,,,,,,,,,,,,254.75367411226034,go,circleblack.png,left,0.2,254.77210231870413,254.77210231870413,255.270766235888,255.270766235888,255.28744634985924,255.47101886570454,255.9706144183874,256.27045169472694,257.27137346565723,257.27137346565723,left,1,257.27137346565723,257.27137346565723,0.0012089312076568604,0.49124564230442047,0.6917301043868065,257.756519690156,practice,1,0.39536699652671814,257.7749834731221,257.7749834731221,,,,,,,,,,,,,,,,,,,,,,,,,,,,,s034,001,2024-09-17_13h32.33.059,simplestop_skeleton,2022.2.2,59.9322899228726,
None,None,0,0,0,0,4,2,18,1,,,,,,,,,,,,,,,,,257.75696440786123,go,circleblack.png,left,0.2,257.7749834731221,257.7749834731221,258.27247700095177,258.27247700095177,258.2891703918576,258.4728130027652,258.97357012331486,259.2735957875848,260.27576890587807,260.27576890587807,left,1,260.27576890587807,260.27576890587807,0.001323603093624115,0.48941779881715775,0.6895754113793373,260.75952833145857,practice,1,0.3811044320464134,260.77691807597876,260.77691807597876,,,,,,,,,,,,,,,,,,,,,,,,,,,,,s034,001,2024-09-17_13h32.33.059,simplestop_skeleton,2022.2.2,59.9322899228726,
None,None,0,0,0,0,4,3,19,3,,,,,,,,,,,,,,,,,260.7599546685815,go,circleblack.png,left,0.2,260.77691807597876,260.77691807597876,261.2757175117731,261.2757175117731,261.29234352707863,261.47693967819214,261.9767638966441,262.2769479230046,263.2781752347946,263.2781752347946,left,1,263.2781752347946,263.2781752347946,0.001264713704586029,0.4898713752627373,0.690084733068943,263.76284627616405,practice,1,0.396891787648201,263.79424768686295,263.79424768686295,,,,,,,,,,,,,,,,,,,,,,,,,,,,,s034,001,2024-09-17_13h32.33.059,simplestop_skeleton,2022.2.2,59.9322899228726,
None,None,0,0,0,0,5,0,20,2,,,,,,,,,,,,,,,,,263.7632791250944,stop,circleblack.png,left,0.2,263.79424768686295,263.79424768686295,264.27907610684633,264.27907610684633,264.29588136821985,264.4795323163271,264.98016864061356,265.28018943965435,266.28321892023087,266.29984614253044,None,0,266.29984614253044,266.29984614253044,0.0013578534126281738,0.4901207759976387,0.6903515234589577,266.7991682961583,practice,1,,,,,,,,,,,,,,,,,,,,,,,,,,,,,,,,s034,001,2024-09-17_13h32.33.059,simplestop_skeleton,2022.2.2,59.9322899228726,
None,None,0,0,0,0,5,1,21,2,,,,,,,,,,,,,,,,,266.7997781559825,go,squareblack.png,right,0.25,266.8223101720214,266.8223101720214,267.31722740083933,267.31722740083933,267.3350781723857,267.5677007138729,268.066800840199,268.3168596550822,269.31849674880505,269.334850884974,right,1,269.334850884974,269.334850884974,0.007178656756877899,0.4909450113773346,0.7421222254633904,269.82011199742556,practice,1,0.31699473410844803,269.8372590765357,269.8372590765357,,,,,,,,,,,,,,,,,,,,,,,,,,,,,s034,001,2024-09-17_13h32.33.059,simplestop_skeleton,2022.2.2,59.9322899228726,
$currentCorrectResponse,$currentGoStim,0,0,0,0,5,2,22,0,,,,,,,,,,,,,,,,,269.82083828002214,go,squareblack.png,right,0.25,269.8372590765357,269.8372590765357,270.33585299551487,270.33585299551487,270.35259874910116,270.5862771049142,271.0866363719106,271.33695171773434,272.3398326635361,272.3398326635361,right,1,272.3398326635361,272.3398326635361,0.0012074708938598633,0.48900624364614487,0.73941870033741,272.83925062417984,practice,1,0.5952211692929268,,,,,,,,,,,,,,,,,,,,,,,,,,,,,,,s034,001,2024-09-17_13h32.33.059,simplestop_skeleton,2022.2.2,59.9322899228726,
$currentCorrectResponse,$currentGoStim,0,0,0,0,5,3,23,0,,,,,,,,,,,,,,,,,272.83967868983746,go,squareblack.png,right,0.25,272.8563973084092,272.8563973084092,273.3558788448572,273.3558788448572,273.3558788448572,273.6064194664359,274.106640830636,274.35693580657244,275.3582648560405,275.3582648560405,right,1,275.3582648560405,275.3582648560405,0.0011624693870544434,0.49039021134376526,0.7408105283975601,275.84279768168926,practice,1,0.35760339349508286,275.8589016199112,275.8589016199112,,,,,,,,,,,,,,,,,,,,,,,,,,,,,s034,001,2024-09-17_13h32.33.059,simplestop_skeleton,2022.2.2,59.9322899228726,
,,0,0,0,0,,,,,,,,,,,,,"[{'fileName': 'circleblack.png', 'correct_response': 'left', 'condition': 'go'}, {'fileName': 'circleblack.png', 'correct_response': 'left', 'condition': 'stop'}, {'fileName': 'squareblack.png', 'correct_response': 'right', 'condition': 'go'}, {'fileName': 'circleblack.png', 'correct_response': 'left', 'condition': 'go'}, {'fileName': 'squareblack.png', 'correct_response': 'right', 'condition': 'stop'}, {'fileName': 'circleblack.png', 'correct_response': 'left', 'condition': 'go'}, {'fileName': 'circleblack.png', 'correct_response': 'left', 'condition': 'go'}, {'fileName': 'squareblack.png', 'correct_response': 'right', 'condition': 'go'}, {'fileName': 'squareblack.png', 'correct_response': 'right', 'condition': 'stop'}, {'fileName': 'squareblack.png', 'correct_response': 'right', 'condition': 'go'}, {'fileName': 'circleblack.png', 'correct_response': 'left', 'condition': 'stop'}, {'fileName': 'squareblack.png', 'correct_response': 'right', 'condition': 'go'}, {'fileName': 'circleblack.png', 'correct_response': 'left', 'condition': 'stop'}, {'fileName': 'circleblack.png', 'correct_response': 'left', 'condition': 'go'}, {'fileName': 'circleblack.png', 'correct_response': 'left', 'condition': 'go'}, {'fileName': 'squareblack.png', 'correct_response': 'right', 'condition': 'go'}, {'fileName': 'squareblack.png', 'correct_response': 'right', 'condition': 'go'}, {'fileName': 'circleblack.png', 'correct_response': 'left', 'condition': 'go'}, {'fileName': 'circleblack.png', 'correct_response': 'left', 'condition': 'go'}, {'fileName': 'circleblack.png', 'correct_response': 'left', 'condition': 'stop'}, {'fileName': 'squareblack.png', 'correct_response': 'right', 'condition': 'go'}, {'fileName': 'squareblack.png', 'correct_response': 'right', 'condition': 'stop'}, {'fileName': 'squareblack.png', 'correct_response': 'right', 'condition': 'stop'}, {'fileName': 'squareblack.png', 'correct_response': 'right', 'condition': 'go'}]",,,,,,,,,,,,,,,,,,,,,,,,,,,,,,,,,,,,275.8589016199112,275.8589016199112,return,2.07666689902544,,,,,,,,,,,,,,,,,,,,,,,,,s034,001,2024-09-17_13h32.33.059,simplestop_skeleton,2022.2.2,59.9322899228726,
None,None,,,,,,,,,0,0,0,0,0,0,0,3,,,,,,,,,297.27924923598766,go,squareblack.png,right,0.25,,,,,,,,,,,,,,,0.0036280974745750427,0.4943757504224777,,299.7879531532526,test,1,,,,,,,,277.9620032310486,277.9620032310486,297.30165258795023,297.8011548295617,297.8011548295617,297.8011548295617,298.05131363123655,298.55184054374695,298.80242098867893,299.81070782989264,left,0,0.4591802582144737,0.25,,,,,,,,,,,s034,001,2024-09-17_13h32.33.059,simplestop_skeleton,2022.2.2,59.9322899228726,
None,None,,,,,,,,,0,0,0,0,0,1,1,1,,,,,,,,,299.788503408432,go,circleblack.png,left,0.25,,,,,,,,,,,,,,,0.004953354597091675,0.48832743614912033,,302.2892294302583,test,1,,,,,,,,,,299.81070782989264,300.3205805197358,300.3036091774702,300.3036091774702,300.5539483949542,301.053699426353,301.3034687936306,302.3069740831852,left,1,0.40158116072416306,0.25,,,,,,,,,,,s034,001,2024-09-17_13h32.33.059,simplestop_skeleton,2022.2.2,59.9322899228726,
None,None,,,,,,,,,0,0,0,0,0,2,2,2,,,,,,,,,302.2896703183651,stop,circleblack.png,left,0.25,,,,,,,,,,,,,,,0.0013619884848594666,0.48930056393146515,0.7393969595432281,304.7918881252408,test,1,,,,,,,,,,302.3069740831852,302.8220599964261,302.80515110492706,302.80515110492706,303.0552784502506,303.55585695803165,303.8061402142048,304.80844128876925,left,1,0.32048577070236206,0.2,,,,,,,,,,,s034,001,2024-09-17_13h32.33.059,simplestop_skeleton,2022.2.2,59.9322899228726,
None,None,,,,,,,,,0,0,0,0,0,3,3,2,,,,,,,,,304.7923438176513,go,circleblack.png,left,0.2,,,,,,,,,,,,,,,0.0012342259287834167,0.4896027445793152,,307.2967621088028,test,1,,,,,,,,,,304.80844128876925,305.307770639658,305.307770639658,305.307770639658,305.5094276666641,306.0087055489421,306.3088040649891,307.31787668168545,left,1,0.3661201000213623,0.2,,,,,,,,,,,s034,001,2024-09-17_13h32.33.059,simplestop_skeleton,2022.2.2,59.9322899228726,
None,None,,,,,,,,,0,0,0,0,1,0,4,3,,,,,,,,,307.29722091555595,stop,circleblack.png,left,0.2,,,,,,,,,,,,,,,0.002271108329296112,0.4859975129365921,0.6861613318324089,309.79762261360884,test,1,,,,,,,,,,307.31787668168545,307.8271904140711,307.8105034083128,307.8105034083128,308.0106922611594,308.51114279031754,308.81345577538013,309.8155889585614,left,1,0.36057303845882416,0.15,,,,,,,,,,,s034,001,2024-09-17_13h32.33.059,simplestop_skeleton,2022.2.2,59.9322899228726,
$currentCorrectResponse,$currentGoStim,,,,,,,,,0,0,0,0,1,1,5,0,,,,,,,,,309.7980690151453,stop,squareblack.png,right,0.15,,,,,,,,,,,,,,,0.002546831965446472,0.49137865751981735,0.6396445035934448,312.3022075071931,test,1,,,,,,,,,,309.8155889585614,310.3153857961297,310.3153857961297,310.3153857961297,310.4635575860739,310.9639390781522,311.33148397505283,312.3229473680258,right,1,0.28238436579704285,0.1,,,,,,,,,,,s034,001,2024-09-17_13h32.33.059,simplestop_skeleton,2022.2.2,59.9322899228726,
None,None,,,,,,,,,0,0,0,0,1,2,6,1,,,,,,,,,312.3026767671108,go,squareblack.png,right,0.1,,,,,,,,,,,,,,,0.0018998682498931885,0.48632514476776123,,314.8026029765606,test,1,,,,,,,,,,312.3229473680258,312.8327000141144,312.8159815296531,312.8159815296531,312.9160021394491,313.4193113297224,313.8189970701933,314.8201043829322,left,0,0.338826984167099,0.1,,,,,,,,,,,s034,001,2024-09-17_13h32.33.059,simplestop_skeleton,2022.2.2,59.9322899228726,
None,None,,,,,,,,,0,0,0,0,1,3,7,1,,,,,,,,,314.8030398339033,go,circleblack.png,left,0.1,,,,,,,,,,,,,,,0.0018260478973388672,0.49110204726457596,,317.3057629317045,test,1,,,,,,,,,,314.8201043829322,315.3198731318116,315.3198731318116,315.3198731318116,315.420027308166,315.91940899938345,316.3197406232357,317.32408848404884,left,1,0.38503750413656235,0.1,,,,,,,,,,,s034,001,2024-09-17_13h32.33.059,simplestop_skeleton,2022.2.2,59.9322899228726,
None,None,,,,,,,,,0,0,0,0,2,0,8,2,,,,,,,,,317.3062139004469,go,squareblack.png,right,0.1,,,,,,,,,,,,,,,0.001672901213169098,0.4888272359967232,,319.80922381579876,test,1,,,,,,,,,,317.32408848404884,317.8382028788328,317.82141606509686,317.82141606509686,317.9215459898114,318.42280001938343,318.8229200541973,319.82681315392256,right,1,0.4301738888025284,0.1,,,,,,,,,,,s034,001,2024-09-17_13h32.33.059,simplestop_skeleton,2022.2.2,59.9322899228726,
$currentCorrectResponse,$currentGoStim,,,,,,,,,0,0,0,0,2,1,9,0,,,,,,,,,319.8096828311682,stop,squareblack.png,right,0.1,,,,,,,,,,,,,,,0.0013454854488372803,0.4882429912686348,0.588287703692913,322.31138031184673,test,1,,,,,,,,,,319.82681315392256,320.34116853028536,320.3245027512312,320.3245027512312,320.42466308921576,320.9249038696289,321.32540871202946,322.3300715684891,None,0,,0.15,,,,,,,,,,,s034,001,2024-09-17_13h32.33.059,simplestop_skeleton,2022.2.2,59.9322899228726,
None,None,,,,,,,,,0,0,0,0,2,2,10,1,,,,,,,,,322.31217888742685,go,circleblack.png,left,0.15,,,,,,,,,,,,,,,0.00205201655626297,0.48808832466602325,,324.81569288671017,test,1,,,,,,,,,,322.3300715684891,322.8444214761257,322.82699175179005,322.82699175179005,322.977205760777,323.47951389849186,323.82811699062586,324.8379406630993,left,1,0.40804217010736465,0.15,,,,,,,,,,,s034,001,2024-09-17_13h32.33.059,simplestop_skeleton,2022.2.2,59.9322899228726,
None,None,,,,,,,,,0,0,0,0,2,3,11,2,,,,,,,,,324.81616024672985,go,squareblack.png,right,0.15,,,,,,,,,,,,,,,0.0019413083791732788,0.48495303839445114,,327.31697423011065,test,1,,,,,,,,,,324.8379406630993,325.3464635685086,325.3298026099801,325.3298026099801,325.4799704104662,325.9807068556547,326.33221684396267,327.3353282287717,right,1,0.33432597666978836,0.15,,,,,,,,,,,s034,001,2024-09-17_13h32.33.059,simplestop_skeleton,2022.2.2,59.9322899228726,
None,None,,,,,,,,,0,0,0,0,3,0,12,3,,,,,,,,,327.31765327602625,go,circleblack.png,left,0.15,,,,,,,,,,,,,,,0.0017179176211357117,0.4897524192929268,,329.8199870362878,test,1,,,,,,,,,,327.3353282287717,327.8505922332406,327.83332185447216,327.83332185447216,327.98447285592556,328.4999165609479,328.8336948081851,329.83832966536283,left,1,0.3361098989844322,0.15,,,,,,,,,,,s034,001,2024-09-17_13h32.33.059,simplestop_skeleton,2022.2.2,59.9322899228726,
None,None,,,,,,,,,0,0,0,0,3,1,13,3,,,,,,,,,329.8208057358861,go,squareblack.png,right,0.15,,,,,,,,,,,,,,,0.0016703978180885315,0.48826470226049423,,332.32342418283224,test,1,,,,,,,,,,329.83832966536283,330.3519904464483,330.3354339003563,330.3354339003563,330.48543321341276,330.98618929088116,331.3366429209709,332.34234599769115,right,1,0.34318267554044724,0.15,,,,,,,,,,,s034,001,2024-09-17_13h32.33.059,simplestop_skeleton,2022.2.2,59.9322899228726,
$currentCorrectResponse,$currentGoStim,,,,,,,,,0,0,0,0,3,2,14,0,,,,,,,,,332.3240492269397,stop,circleblack.png,left,0.15,,,,,,,,,,,,,,,0.0025113001465797424,0.48782745748758316,0.638260193169117,334.8249161615968,test,1,,,,,,,,,,332.34234599769115,332.85497192293406,332.8383210301399,332.8383210301399,332.98829267174006,333.48878340423107,333.8403045758605,334.84199786931276,None,0,,0.2,,,,,,,,,,,s034,001,2024-09-17_13h32.33.059,simplestop_skeleton,2022.2.2,59.9322899228726,
None,None,,,,,,,,,0,0,0,0,3,3,15,3,,,,,,,,,334.82535780221224,go,circleblack.png,left,0.2,,,,,,,,,,,,,,,0.0013240799307823181,0.4896814078092575,,337.32980927824974,test,1,,,,,,,,,,334.84199786931276,335.3574771210551,335.34084814041853,335.34084814041853,335.5423359274864,336.041890822351,336.34196795523167,337.35135120898485,left,1,0.30805663764476776,0.2,,,,,,,,,,,s034,001,2024-09-17_13h32.33.059,simplestop_skeleton,2022.2.2,59.9322899228726,
$currentCorrectResponse,$currentGoStim,,,,,,,,,0,0,0,0,4,0,16,0,,,,,,,,,337.33026753365993,stop,squareblack.png,right,0.2,,,,,,,,,,,,,,,0.0025670602917671204,0.48638126999139786,0.6864797174930573,339.83059500157833,test,1,,,,,,,,,,337.35135120898485,337.8603115975857,337.84360356628895,337.84360356628895,338.0438020154834,338.54440927505493,338.84482599049807,339.84792640805244,right,1,0.2847258746623993,0.15,,,,,,,,,,,s034,001,2024-09-17_13h32.33.059,simplestop_skeleton,2022.2.2,59.9322899228726,
None,None,,,,,,,,,0,0,0,0,4,1,17,2,,,,,,,,,339.83104691654444,stop,circleblack.png,left,0.15,,,,,,,,,,,,,,,0.0017556622624397278,0.4913395568728447,0.6413824930787086,342.3332481086254,test,1,,,,,,,,,,339.84792640805244,340.34823743253946,340.34823743253946,340.34823743253946,340.49842093884945,341.013728544116,341.3474759310484,342.3504340648651,None,0,,0.2,,,,,,,,,,,s034,001,2024-09-17_13h32.33.059,simplestop_skeleton,2022.2.2,59.9322899228726,
None,None,,,,,,,,,0,0,0,0,4,2,18,3,,,,,,,,,342.3337007910013,go,squareblack.png,right,0.2,,,,,,,,,,,,,,,0.001582212746143341,0.4895619973540306,,344.83790861815214,test,1,,,,,,,,,,342.3504340648651,342.86583821475506,342.8491358682513,342.8491358682513,343.04958841204643,343.5501686781645,343.85015043616295,344.8609407991171,right,1,0.28729724884033203,0.2,,,,,,,,,,,s034,001,2024-09-17_13h32.33.059,simplestop_skeleton,2022.2.2,59.9322899228726,
None,None,,,,,,,,,0,0,0,0,4,3,19,3,,,,,,,,,344.8384652659297,go,circleblack.png,left,0.2,,,,,,,,,,,,,,,0.003009483218193054,0.48605556041002274,,347.33857579529285,test,1,,,,,,,,,,344.8609407991171,345.3687099739909,345.3522484228015,345.3522484228015,345.5520808547735,346.0526380613446,346.35307965427637,347.3557740226388,left,1,0.31049226224422455,0.2,,,,,,,,,,,s034,001,2024-09-17_13h32.33.059,simplestop_skeleton,2022.2.2,59.9322899228726,
$currentCorrectResponse,$currentGoStim,,,,,,,,,0,0,0,0,5,0,20,0,,,,,,,,,347.3390286937356,stop,squareblack.png,right,0.2,,,,,,,,,,,,,,,0.001621045172214508,0.48983674496412277,0.6913508996367455,349.843503549695,test,1,,,,,,,,,,347.3557740226388,347.87230372428894,347.8570995554328,347.8570995554328,348.0558619648218,348.55568738281727,348.8723843023181,349.86472533643246,right,1,0.26452265679836273,0.15,,,,,,,,,,,s034,001,2024-09-17_13h32.33.059,simplestop_skeleton,2022.2.2,59.9322899228726,
None,None,,,,,,,,,0,0,0,0,5,1,21,1,,,,,,,,,349.8439577072859,go,squareblack.png,right,0.15,,,,,,,,,,,,,,,0.00216028094291687,0.4859074801206589,,352.34410428255796,test,1,,,,,,,,,,349.86472533643246,350.3740249350667,350.3573883920908,350.3573883920908,350.50755567103624,351.00800447165966,351.3603923842311,352.3607624620199,right,1,0.3803725764155388,0.15,,,,,,,,,,,s034,001,2024-09-17_13h32.33.059,simplestop_skeleton,2022.2.2,59.9322899228726,
None,None,,,,,,,,,0,0,0,0,5,2,22,2,,,,,,,,,352.3445418998599,go,squareblack.png,right,0.15,,,,,,,,,,,,,,,0.0011756718158721924,0.49107178300619125,,354.8471917808056,test,1,,,,,,,,,,352.3607624620199,352.8613283261657,352.8613283261657,352.8613283261657,353.01219464093447,353.52757658809423,353.86117885261774,354.86515409499407,right,1,0.3197232410311699,0.15,,,,,,,,,,,s034,001,2024-09-17_13h32.33.059,simplestop_skeleton,2022.2.2,59.9322899228726,
$currentCorrectResponse,$currentGoStim,,,,,,,,,0,0,0,0,5,3,23,0,,,,,,,,,354.84765113145113,go,circleblack.png,left,0.15,,,,,,,,,,,,,,,0.0017871782183647156,0.4892592504620552,,357.3508573099971,test,1,,,,,,,,,,354.86515409499407,355.3796520829201,355.3629431575537,355.3629431575537,355.5130349621177,356.01389269530773,356.3640731200576,357.3693806678057,left,1,0.4890015199780464,0.15,,,,,,,,,,,s034,001,2024-09-17_13h32.33.059,simplestop_skeleton,2022.2.2,59.9322899228726,
$currentCorrectResponse,$currentGoStim,,,,,,,,,0,0,0,0,6,0,24,0,,,,,,,,,357.3513025715947,go,circleblack.png,left,0.15,,,,,,,,,,,,,,,0.0016168281435966492,0.4880778640508652,,359.85259767621756,test,1,,,,,,,,,,357.3693806678057,357.88262923806906,357.86595609784126,357.86595609784126,358.0160136297345,358.51631063222885,358.86804720014334,359.869757078588,left,1,0.34494566917419434,0.15,,,,,,,,,,,s034,001,2024-09-17_13h32.33.059,simplestop_skeleton,2022.2.2,59.9322899228726,
$currentCorrectResponse,$currentGoStim,,,,,,,,,0,0,0,0,6,1,25,0,,,,,,,,,359.8530560284853,stop,squareblack.png,right,0.15,,,,,,,,,,,,,,,0.001589454710483551,0.49213725328445435,0.6408421471714973,362.3571595028043,test,1,,,,,,,,,,359.869757078588,360.36954482644796,360.36954482644796,360.36954482644796,360.5196916088462,361.01948265731335,361.36957363039255,362.37821558862925,None,0,,0.2,,,,,,,,,,,s034,001,2024-09-17_13h32.33.059,simplestop_skeleton,2022.2.2,59.9322899228726,
$currentCorrectResponse,$currentGoStim,,,,,,,,,0,0,0,0,6,2,26,0,,,,,,,,,362.3576192557812,go,squareblack.png,right,0.2,,,,,,,,,,,,,,,0.0022519156336784363,0.48635291308164597,,364.8583244755864,test,1,,,,,,,,,,362.37821558862925,362.8878055140376,362.8714486286044,362.8714486286044,363.071405865252,363.57250338047743,363.87238845974207,364.87623070925474,right,1,0.3231428787112236,0.2,,,,,,,,,,,s034,001,2024-09-17_13h32.33.059,simplestop_skeleton,2022.2.2,59.9322899228726,
None,None,,,,,,,,,0,0,0,0,6,3,27,1,,,,,,,,,364.85878840088844,go,circleblack.png,left,0.2,,,,,,,,,,,,,,,0.0017648190259933472,0.49085021764039993,,367.3606493845582,test,1,,,,,,,,,,364.87623070925474,365.3758399412036,365.3758399412036,365.3758399412036,365.57461981475353,366.0746588110924,366.3750686496496,367.39189225435257,right,0,0.3365576043725014,0.2,,,,,,,,,,,s034,001,2024-09-17_13h32.33.059,simplestop_skeleton,2022.2.2,59.9322899228726,
$currentCorrectResponse,$currentGoStim,,,,,,,,,0,0,0,0,7,0,28,0,,,,,,,,,367.36110430955887,go,squareblack.png,right,0.2,,,,,,,,,,,,,,,0.0016193389892578125,0.48966721445322037,,369.86448281258345,test,1,,,,,,,,,,367.39189225435257,367.89335476607084,367.87676617503166,367.87676617503166,368.07714449614286,368.5775574669242,368.8777520209551,369.8835234493017,right,1,0.3720639571547508,0.2,,,,,,,,,,,s034,001,2024-09-17_13h32.33.059,simplestop_skeleton,2022.2.2,59.9322899228726,
None,None,,,,,,,,,0,0,0,0,7,1,29,2,,,,,,,,,369.8649356663227,stop,circleblack.png,left,0.2,,,,,,,,,,,,,,,0.002110227942466736,0.4879467785358429,0.6881699860095978,372.3664321601391,test,1,,,,,,,,,,369.8835234493017,370.3962214887142,370.3795801475644,370.3795801475644,370.5798236951232,371.0805274769664,371.3818287178874,372.38337031006813,None,0,,0.25,,,,,,,,,,,s034,001,2024-09-17_13h32.33.059,simplestop_skeleton,2022.2.2,59.9322899228726,
None,None,,,,,,,,,0,0,0,0,7,2,30,1,,,,,,,,,372.3668826147914,go,squareblack.png,right,0.25,,,,,,,,,,,,,,,0.0015990808606147766,0.49075476825237274,,374.8713481798768,test,1,,,,,,,,,,372.38337031006813,372.8835912644863,372.8835912644863,372.8835912644863,373.13446944206953,373.6498574092984,373.88335808366537,374.88870218396187,right,1,0.4623764902353287,0.25,,,,,,,,,,,s034,001,2024-09-17_13h32.33.059,simplestop_skeleton,2022.2.2,59.9322899228726,
None,None,,,,,,,,,0,0,0,0,7,3,31,1,,,,,,,,,374.8718158379197,go,squareblack.png,right,0.25,,,,,,,,,,,,,,,0.0017298907041549683,0.4869541972875595,,377.37205474823713,test,1,,,,,,,,,,374.88870218396187,375.4016672819853,375.3850891068578,375.3850891068578,375.635271564126,376.1359839141369,376.38630014657974,377.3904082849622,right,1,0.32809025794267654,0.25,,,,,,,,,,,s034,001,2024-09-17_13h32.33.059,simplestop_skeleton,2022.2.2,59.9322899228726,
None,None,,,,,,,,,0,0,0,0,8,0,32,2,,,,,,,,,377.3724944964051,stop,circleblack.png,left,0.25,,,,,,,,,,,,,,,0.0019555166363716125,0.4909413158893585,0.7394495606422424,379.87512493133545,test,1,,,,,,,,,,377.3904082849622,377.8895643129945,377.8895643129945,377.8895643129945,378.1385031491518,378.63867730647326,378.8889433592558,379.8918032050133,left,1,0.28848596662282944,0.2,,,,,,,,,,,s034,001,2024-09-17_13h32.33.059,simplestop_skeleton,2022.2.2,59.9322899228726,
None,None,,,,,,,,,0,0,0,0,8,1,33,2,,,,,,,,,379.87556793540716,go,circleblack.png,left,0.2,,,,,,,,,,,,,,,0.0012319013476371765,0.48912086337804794,,382.3784324377775,test,1,,,,,,,,,,379.8918032050133,380.407149836421,380.3905521929264,380.3905521929264,380.59108329564333,381.09161008894444,381.39171851426363,382.3971282839775,left,1,0.38414857536554337,0.2,,,,,,,,,,,s034,001,2024-09-17_13h32.33.059,simplestop_skeleton,2022.2.2,59.9322899228726,
None,None,,,,,,,,,0,0,0,0,8,2,34,3,,,,,,,,,382.3788888454437,go,circleblack.png,left,0.2,,,,,,,,,,,,,,,0.001584656536579132,0.488191120326519,,384.8800086155534,test,1,,,,,,,,,,382.3971282839775,382.9100106880069,382.89348066598177,382.89348066598177,383.0946582108736,383.5940015092492,383.8944765254855,384.89701034128666,left,1,0.32987915724515915,0.2,,,,,,,,,,,s034,001,2024-09-17_13h32.33.059,simplestop_skeleton,2022.2.2,59.9322899228726,
None,None,,,,,,,,,0,0,0,0,8,3,35,1,,,,,,,,,384.8804432153702,stop,squareblack.png,right,0.2,,,,,,,,,,,,,,,0.001659199595451355,0.49095744639635086,0.6910743191838264,387.38495207577944,test,1,,,,,,,,,,384.89701034128666,385.3969618678093,385.3969618678093,385.3969618678093,385.59820783138275,386.11347594857216,386.3971530124545,387.4065561518073,left,0,0.36128703504800797,0.15,,,,,,,,,,,s034,001,2024-09-17_13h32.33.059,simplestop_skeleton,2022.2.2,59.9322899228726,
None,None,,,,,,,,,0,0,0,0,9,0,36,1,,,,,,,,,387.385431393981,go,circleblack.png,left,0.15,,,,,,,,,,,,,,,0.002765461802482605,0.48620664328336716,,389.8859778046608,test,1,,,,,,,,,,387.4065561518073,387.91543374955654,387.89881194382906,387.89881194382906,388.04893693327904,388.54963594675064,388.8999996930361,389.90368154644966,left,1,0.4304182752966881,0.15,,,,,,,,,,,s034,001,2024-09-17_13h32.33.059,simplestop_skeleton,2022.2.2,59.9322899228726,
None,None,,,,,,,,,0,0,0,0,9,1,37,2,,,,,,,,,389.8864237293601,stop,circleblack.png,left,0.15,,,,,,,,,,,,,,,0.0012843310832977295,0.49090394377708435,0.6410590559244156,392.3883459046483,test,1,,,,,,,,,,389.90368154644966,390.40343653410673,390.40343653410673,390.40343653410673,390.55371886491776,391.0690432116389,391.4025888890028,392.40723114460707,None,0,,0.2,,,,,,,,,,,s034,001,2024-09-17_13h32.33.059,simplestop_skeleton,2022.2.2,59.9322899228726,
None,None,,,,,,,,,0,0,0,0,9,2,38,1,,,,,,,,,392.38899905234575,go,squareblack.png,right,0.2,,,,,,,,,,,,,,,0.001974932849407196,0.4887557402253151,,394.89326517283916,test,1,,,,,,,,,,392.40723114460707,392.9211058616638,392.90426836162806,392.90426836162806,393.1045328453183,393.60518937557936,393.90569495409727,394.91252025961876,right,1,0.3170948475599289,0.2,,,,,,,,,,,s034,001,2024-09-17_13h32.33.059,simplestop_skeleton,2022.2.2,59.9322899228726,
$currentCorrectResponse,$currentGoStim,,,,,,,,,0,0,0,0,9,3,39,0,,,,,,,,,394.8940585106611,stop,squareblack.png,right,0.2,,,,,,,,,,,,,,,0.0012699887156486511,0.48500021547079086,0.6849431619048119,397.39392399042845,test,1,,,,,,,,,,394.91252025961876,395.42399434000254,395.4074737355113,395.4074737355113,395.60743793845177,396.10780430585146,396.40896666795015,397.41064225137234,right,1,0.31963344663381577,0.15,,,,,,,,,,,s034,001,2024-09-17_13h32.33.059,simplestop_skeleton,2022.2.2,59.9322899228726,
None,None,,,,,,,,,0,0,0,0,10,0,40,3,,,,,,,,,397.39437709003687,go,squareblack.png,right,0.15,,,,,,,,,,,,,,,0.001185975968837738,0.4895516037940979,,399.89864207804203,test,1,,,,,,,,,,397.41064225137234,397.9098830372095,397.9098830372095,397.9098830372095,398.06141863018274,398.56077349931,398.91106417775154,399.92606627196074,right,1,0.3864554837346077,0.15,,,,,,,,,,,s034,001,2024-09-17_13h32.33.059,simplestop_skeleton,2022.2.2,59.9322899228726,
None,None,,,,,,,,,0,0,0,0,10,1,41,1,,,,,,,,,399.89909890294075,go,circleblack.png,left,0.15,,,,,,,,,,,,,,,0.008558519184589386,0.48613474518060684,,402.39922108501196,test,1,,,,,,,,,,399.92606627196074,400.42929618805647,400.4126603230834,400.4126603230834,400.5628015100956,401.0633881986141,401.41386922448874,402.41640236228704,left,1,0.35736632347106934,0.15,,,,,,,,,,,s034,001,2024-09-17_13h32.33.059,simplestop_skeleton,2022.2.2,59.9322899228726,
None,None,,,,,,,,,0,0,0,0,10,2,42,3,,,,,,,,,402.39965452998877,go,squareblack.png,right,0.15,,,,,,,,,,,,,,,0.0016995817422866821,0.4905071258544922,,404.90265345573425,test,1,,,,,,,,,,402.41640236228704,402.9157419130206,402.9157419130206,402.9157419130206,403.0656833946705,403.56606774777174,403.91641180217266,404.9215326830745,right,1,0.3272075653076172,0.15,,,,,,,,,,,s034,001,2024-09-17_13h32.33.059,simplestop_skeleton,2022.2.2,59.9322899228726,
None,None,,,,,,,,,0,0,0,0,10,3,43,2,,,,,,,,,404.90310291945934,go,circleblack.png,left,0.15,,,,,,,,,,,,,,,0.0019108131527900696,0.4880483150482178,,407.4048631116748,test,1,,,,,,,,,,404.9215326830745,405.4347786679864,405.41816188395023,405.41816188395023,405.56834898144007,406.06896685808897,406.41939075291157,407.42396138608456,left,1,0.41175583004951477,0.15,,,,,,,,,,,s034,001,2024-09-17_13h32.33.059,simplestop_skeleton,2022.2.2,59.9322899228726,
$currentCorrectResponse,$currentGoStim,,,,,,,,,0,0,0,0,11,0,44,0,,,,,,,,,407.40530157089233,stop,squareblack.png,right,0.15,,,,,,,,,,,,,,,0.0020126253366470337,0.4889901801943779,0.6388989686965942,409.9078810662031,test,1,,,,,,,,,,407.42396138608456,407.937754817307,407.92106698453426,407.92106698453426,408.0710625424981,408.5715717971325,408.92294622957706,409.92500949651003,right,1,0.2838418409228325,0.1,,,,,,,,,,,s034,001,2024-09-17_13h32.33.059,simplestop_skeleton,2022.2.2,59.9322899228726,
None,None,,,,,,,,,0,0,0,0,11,1,45,3,,,,,,,,,409.9083234369755,go,circleblack.png,left,0.1,,,,,,,,,,,,,,,0.001759953796863556,0.49010395258665085,,412.4123142659664,test,1,,,,,,,,,,409.92500949651003,410.4256486967206,410.4256486967206,410.4256486967206,410.52374590933323,411.0244113281369,411.42588260024786,412.4335328564048,left,1,0.42611517012119293,0.1,,,,,,,,,,,s034,001,2024-09-17_13h32.33.059,simplestop_skeleton,2022.2.2,59.9322899228726,
None,None,,,,,,,,,0,0,0,0,11,2,46,2,,,,,,,,,412.4127705320716,go,squareblack.png,right,0.1,,,,,,,,,,,,,,,0.00265667587518692,0.48677296936511993,,414.91324873268604,test,1,,,,,,,,,,412.4335328564048,412.94309743493795,412.92646170407534,412.92646170407534,413.0265564098954,413.52708907425404,413.9287174642086,414.9305550828576,right,1,0.460397332906723,0.1,,,,,,,,,,,s034,001,2024-09-17_13h32.33.059,simplestop_skeleton,2022.2.2,59.9322899228726,
None,None,,,,,,,,,0,0,0,0,11,3,47,3,,,,,,,,,414.913686029613,stop,circleblack.png,left,0.1,,,,,,,,,,,,,,,0.0017746314406394958,0.48966070264577866,0.5921319872140884,417.41820354014635,test,1,,,,,,,,,,414.9305550828576,415.4458555057645,415.42922408133745,415.42922408133745,415.53076307475567,416.0300088971853,416.43025590479374,417.4462705180049,None,0,,0.15,,,,,,,,,,,s034,001,2024-09-17_13h32.33.059,simplestop_skeleton,2022.2.2,59.9322899228726,
,,,,,,,,,,0,0,0,0,,,,,,"[{'fileName': 'squareblack.png', 'correct_response': 'right', 'condition': 'go'}, {'fileName': 'squareblack.png', 'correct_response': 'right', 'condition': 'stop'}, {'fileName': 'circleblack.png', 'correct_response': 'left', 'condition': 'go'}, {'fileName': 'squareblack.png', 'correct_response': 'right', 'condition': 'stop'}, {'fileName': 'squareblack.png', 'correct_response': 'right', 'condition': 'go'}, {'fileName': 'circleblack.png', 'correct_response': 'left', 'condition': 'go'}, {'fileName': 'circleblack.png', 'correct_response': 'left', 'condition': 'go'}, {'fileName': 'circleblack.png', 'correct_response': 'left', 'condition': 'stop'}, {'fileName': 'squareblack.png', 'correct_response': 'right', 'condition': 'go'}, {'fileName': 'circleblack.png', 'correct_response': 'left', 'condition': 'go'}, {'fileName': 'circleblack.png', 'correct_response': 'left', 'condition': 'stop'}, {'fileName': 'squareblack.png', 'correct_response': 'right', 'condition': 'go'}, {'fileName': 'squareblack.png', 'correct_response': 'right', 'condition': 'stop'}, {'fileName': 'circleblack.png', 'correct_response': 'left', 'condition': 'go'}, {'fileName': 'squareblack.png', 'correct_response': 'right', 'condition': 'go'}, {'fileName': 'circleblack.png', 'correct_response': 'left', 'condition': 'go'}, {'fileName': 'circleblack.png', 'correct_response': 'left', 'condition': 'stop'}, {'fileName': 'squareblack.png', 'correct_response': 'right', 'condition': 'go'}, {'fileName': 'squareblack.png', 'correct_response': 'right', 'condition': 'go'}, {'fileName': 'squareblack.png', 'correct_response': 'right', 'condition': 'go'}, {'fileName': 'circleblack.png', 'correct_response': 'left', 'condition': 'go'}, {'fileName': 'circleblack.png', 'correct_response': 'left', 'condition': 'stop'}, {'fileName': 'circleblack.png', 'correct_response': 'left', 'condition': 'go'}, {'fileName': 'squareblack.png', 'correct_response': 'right', 'condition': 'stop'}, {'fileName': 'squareblack.png', 'correct_response': 'right', 'condition': 'go'}, {'fileName': 'circleblack.png', 'correct_response': 'left', 'condition': 'stop'}, {'fileName': 'squareblack.png', 'correct_response': 'right', 'condition': 'go'}, {'fileName': 'circleblack.png', 'correct_response': 'left', 'condition': 'go'}, {'fileName': 'squareblack.png', 'correct_response': 'right', 'condition': 'stop'}, {'fileName': 'squareblack.png', 'correct_response': 'right', 'condition': 'go'}, {'fileName': 'circleblack.png', 'correct_response': 'left', 'condition': 'go'}, {'fileName': 'circleblack.png', 'correct_response': 'left', 'condition': 'go'}, {'fileName': 'circleblack.png', 'correct_response': 'left', 'condition': 'go'}, {'fileName': 'squareblack.png', 'correct_response': 'right', 'condition': 'stop'}, {'fileName': 'squareblack.png', 'correct_response': 'right', 'condition': 'go'}, {'fileName': 'circleblack.png', 'correct_response': 'left', 'condition': 'stop'}, {'fileName': 'circleblack.png', 'correct_response': 'left', 'condition': 'go'}, {'fileName': 'circleblack.png', 'correct_response': 'left', 'condition': 'go'}, {'fileName': 'squareblack.png', 'correct_response': 'right', 'condition': 'stop'}, {'fileName': 'circleblack.png', 'correct_response': 'left', 'condition': 'go'}, {'fileName': 'squareblack.png', 'correct_response': 'right', 'condition': 'go'}, {'fileName': 'squareblack.png', 'correct_response': 'right', 'condition': 'go'}, {'fileName': 'squareblack.png', 'correct_response': 'right', 'condition': 'go'}, {'fileName': 'squareblack.png', 'correct_response': 'right', 'condition': 'go'}, {'fileName': 'circleblack.png', 'correct_response': 'left', 'condition': 'stop'}, {'fileName': 'squareblack.png', 'correct_response': 'right', 'condition': 'stop'}, {'fileName': 'circleblack.png', 'correct_response': 'left', 'condition': 'stop'}, {'fileName': 'circleblack.png', 'correct_response': 'left', 'condition': 'go'}]",,,,,,,,,,,,,,,,,,,,,,,,,,,,,,,,,,,,,,,,,,,,,,,,,,,,,417.4462705180049,417.4462705180049,return,19.028563477098942,,,,,,,s034,001,2024-09-17_13h32.33.059,simplestop_skeleton,2022.2.2,59.9322899228726,
None,None,,,,,,,,,1,0,1,0,0,0,0,3,,,,,,,,,436.51478465646505,go,squareblack.png,right,0.15,,,,,,,,,,,,,,,0.0021880194544792175,0.4954603463411331,,439.02486200630665,test,2,,,,,,,,,,436.5373742431402,437.0377967208624,437.0377967208624,437.0377967208624,437.18789190799,437.68873424082994,438.0389350578189,439.0435158237815,right,1,0.38990991562604904,0.15,,,,,,,,,,,s034,001,2024-09-17_13h32.33.059,simplestop_skeleton,2022.2.2,59.9322899228726,
None,None,,,,,,,,,1,0,1,0,0,1,1,1,,,,,,,,,439.0254008844495,stop,squareblack.png,right,0.15,,,,,,,,,,,,,,,0.0013220682740211487,0.4891956299543381,0.639735758304596,441.52594869583845,test,2,,,,,,,,,,439.0435158237815,439.55722111463547,439.5405880138278,439.5405880138278,439.6906440258026,440.1913645192981,440.5402866601944,441.54623805731535,right,1,0.421903520822525,0.1,,,,,,,,,,,s034,001,2024-09-17_13h32.33.059,simplestop_skeleton,2022.2.2,59.9322899228726,
$currentCorrectResponse,$currentGoStim,,,,,,,,,1,0,1,0,0,2,2,0,,,,,,,,,441.52643422037363,go,circleblack.png,left,0.1,,,,,,,,,,,,,,,0.003567151725292206,0.48916763067245483,,444.03046448528767,test,2,,,,,,,,,,441.54623805731535,442.0597596913576,442.04282980412245,442.04282980412245,442.1431306451559,442.64254669845104,443.04307647049427,444.04847318679094,left,1,0.33159562200307846,0.1,,,,,,,,,,,s034,001,2024-09-17_13h32.33.059,simplestop_skeleton,2022.2.2,59.9322899228726,
None,None,,,,,,,,,1,0,1,0,0,3,3,3,,,,,,,,,444.0309182703495,stop,squareblack.png,right,0.1,,,,,,,,,,,,,,,0.0022642984986305237,0.4871535152196884,0.5872713327407837,446.5315162166953,test,2,,,,,,,,,,444.04847318679094,444.56119157373905,444.54452683776617,444.54452683776617,444.64475540816784,445.1452924609184,445.54754339903593,446.54893580824137,right,1,0.44697366654872894,0.05,,,,,,,,,,,s034,001,2024-09-17_13h32.33.059,simplestop_skeleton,2022.2.2,59.9322899228726,
None,None,,,,,,,,,1,0,1,0,1,0,4,3,,,,,,,,,446.53196492791176,go,squareblack.png,right,0.05,,,,,,,,,,,,,,,0.0012962669134140015,0.4896855279803276,,449.0345171689987,test,2,,,,,,,,,,446.54893580824137,447.0641963481903,447.0476219803095,447.0476219803095,447.09751456975937,447.5979847609997,448.04844979196787,449.0575579851866,right,1,0.3721231669187546,0.05,,,,,,,,,,,s034,001,2024-09-17_13h32.33.059,simplestop_skeleton,2022.2.2,59.9322899228726,
None,None,,,,,,,,,1,0,1,0,1,1,5,3,,,,,,,,,449.0349638238549,go,circleblack.png,left,0.05,,,,,,,,,,,,,,,0.007541008293628693,0.48885099589824677,,451.536771774292,test,2,,,,,,,,,,449.0575579851866,449.56678581237793,449.5502549484372,449.5502549484372,449.6001953855157,450.10074780881405,450.5514349639416,451.5537898093462,left,1,0.2752390503883362,0.05,,,,,,,,,,,s034,001,2024-09-17_13h32.33.059,simplestop_skeleton,2022.2.2,59.9322899228726,
None,None,,,,,,,,,1,0,1,0,1,2,6,2,,,,,,,,,451.537219800055,go,circleblack.png,left,0.05,,,,,,,,,,,,,,,0.001241922378540039,0.49149778485298157,,454.0396202355623,test,2,,,,,,,,,,451.5537898093462,452.05471646785736,452.05471646785736,452.05471646785736,452.1049640625715,452.62009578198195,453.0540474951267,454.0563754364848,left,1,0.4099131301045418,0.05,,,,,,,,,,,s034,001,2024-09-17_13h32.33.059,simplestop_skeleton,2022.2.2,59.9322899228726,
$currentCorrectResponse,$currentGoStim,,,,,,,,,1,0,1,0,1,3,7,0,,,,,,,,,454.0400664061308,stop,circleblack.png,left,0.05,,,,,,,,,,,,,,,0.0012381896376609802,0.4897388517856598,0.5397574529051781,456.54317004978657,test,2,,,,,,,,,,454.0563754364848,454.555727340281,454.555727340281,454.555727340281,454.6056608110666,455.10733050107956,455.5569658577442,456.56103263795376,None,0,,0.1,,,,,,,,,,,s034,001,2024-09-17_13h32.33.059,simplestop_skeleton,2022.2.2,59.9322899228726,
None,None,,,,,,,,,1,0,1,0,2,0,8,3,,,,,,,,,456.5435979142785,go,squareblack.png,right,0.1,,,,,,,,,,,,,,,0.001750364899635315,0.488839790225029,,459.04520877450705,test,2,,,,,,,,,,456.56103263795376,457.0752493739128,457.05860625207424,457.05860625207424,457.1588875204325,457.65914253890514,458.0595562905073,459.0623693615198,right,1,0.3161887153983116,0.1,,,,,,,,,,,s034,001,2024-09-17_13h32.33.059,simplestop_skeleton,2022.2.2,59.9322899228726,
None,None,,,,,,,,,1,0,1,0,2,1,9,3,,,,,,,,,459.0456758067012,go,circleblack.png,left,0.1,,,,,,,,,,,,,,,0.0017093569040298462,0.4896269962191582,,461.54916302114725,test,2,,,,,,,,,,459.0623693615198,459.577883400023,459.5612501427531,459.5612501427531,459.6613310351968,460.1636980995536,460.562486872077,461.56792130321264,left,1,0.34593120217323303,0.1,,,,,,,,,,,s034,001,2024-09-17_13h32.33.059,simplestop_skeleton,2022.2.2,59.9322899228726,
$currentCorrectResponse,$currentGoStim,,,,,,,,,1,0,1,0,2,2,10,0,,,,,,,,,461.54980221390724,stop,circleblack.png,left,0.1,,,,,,,,,,,,,,,0.0019055604934692383,0.487570621073246,0.5876338705420494,464.05084761977196,test,2,,,,,,,,,,461.56792130321264,462.0808553099632,462.06421168893576,462.06421168893576,462.1640731319785,462.6647705733776,463.06606489419937,464.0680696591735,None,0,,0.15,,,,,,,,,,,s034,001,2024-09-17_13h32.33.059,simplestop_skeleton,2022.2.2,59.9322899228726,
None,None,,,,,,,,,1,0,1,0,2,3,11,2,,,,,,,,,464.0512873455882,go,squareblack.png,right,0.15,,,,,,,,,,,,,,,0.0015598610043525696,0.490036204457283,,466.5545557886362,test,2,,,,,,,,,,464.0680696591735,464.5669649243355,464.5669649243355,464.5669649243355,464.7169137299061,465.2193726673722,465.56787446141243,466.57339641451836,right,1,0.42492692172527313,0.15,,,,,,,,,,,s034,001,2024-09-17_13h32.33.059,simplestop_skeleton,2022.2.2,59.9322899228726,
$currentCorrectResponse,$currentGoStim,,,,,,,,,1,0,1,0,3,0,12,0,,,,,,,,,466.55500120669603,stop,squareblack.png,right,0.15,,,,,,,,,,,,,,,0.001640602946281433,0.48823004215955734,0.6381039693951607,469.0564535930753,test,2,,,,,,,,,,466.57339641451836,467.0864065885544,467.06964252889156,467.06964252889156,467.21961172670126,467.72022292017937,468.07162607461214,469.07384177297354,right,1,0.3291323706507683,0.1,,,,,,,,,,,s034,001,2024-09-17_13h32.33.059,simplestop_skeleton,2022.2.2,59.9322899228726,
$currentCorrectResponse,$currentGoStim,,,,,,,,,1,0,1,0,3,1,13,0,,,,,,,,,469.0569072291255,go,circleblack.png,left,0.1,,,,,,,,,,,,,,,0.0018639862537384033,0.4915856122970581,,471.5610717833042,test,2,,,,,,,,,,469.07384177297354,469.5724190622568,469.5724190622568,469.5724190622568,469.6723115295172,470.17314330488443,470.57331608980894,471.5831070020795,left,1,0.33757420629262924,0.1,,,,,,,,,,,s034,001,2024-09-17_13h32.33.059,simplestop_skeleton,2022.2.2,59.9322899228726,
$currentCorrectResponse,$currentGoStim,,,,,,,,,1,0,1,0,3,2,14,0,,,,,,,,,471.5615251287818,go,squareblack.png,right,0.1,,,,,,,,,,,,,,,0.002170376479625702,0.4853331595659256,,474.061625815928,test,2,,,,,,,,,,471.5831070020795,472.09160055965185,472.075013615191,472.075013615191,472.1749820038676,472.675604313612,473.0776314586401,474.07918510586023,right,1,0.2930882051587105,0.1,,,,,,,,,,,s034,001,2024-09-17_13h32.33.059,simplestop_skeleton,2022.2.2,59.9322899228726,
None,None,,,,,,,,,1,0,1,0,3,3,15,3,,,,,,,,,474.06206557154655,go,circleblack.png,left,0.1,,,,,,,,,,,,,,,0.0018378347158432007,0.4900251626968384,,476.5666457042098,test,2,,,,,,,,,,474.07918510586023,474.5948525220156,474.5782110989094,474.5782110989094,474.6778373941779,475.1785854101181,475.5788813903928,476.587475694716,left,1,0.36370277404785156,0.1,,,,,,,,,,,s034,001,2024-09-17_13h32.33.059,simplestop_skeleton,2022.2.2,59.9322899228726,
None,None,,,,,,,,,1,0,1,0,4,0,16,3,,,,,,,,,476.5671193525195,stop,circleblack.png,left,0.1,,,,,,,,,,,,,,,0.0020939037203788757,0.4865362271666527,0.5867676958441734,479.0672944560647,test,2,,,,,,,,,,476.587475694716,477.09721551835537,477.08059015125036,477.08059015125036,477.180643171072,477.6811502277851,478.08265732973814,479.0843731313944,None,0,,0.15,,,,,,,,,,,s034,001,2024-09-17_13h32.33.059,simplestop_skeleton,2022.2.2,59.9322899228726,
None,None,,,,,,,,,1,0,1,0,4,1,17,1,,,,,,,,,479.0677320957184,go,squareblack.png,right,0.15,,,,,,,,,,,,,,,0.0016373544931411743,0.48969392478466034,,481.572062946856,test,2,,,,,,,,,,479.0843731313944,479.60257571935654,479.5832575112581,479.5832575112581,479.73431769758463,480.234256118536,480.5844030305743,481.59270606935024,right,1,0.29685627669095993,0.15,,,,,,,,,,,s034,001,2024-09-17_13h32.33.059,simplestop_skeleton,2022.2.2,59.9322899228726,
None,None,,,,,,,,,1,0,1,0,4,2,18,2,,,,,,,,,481.5725507438183,go,squareblack.png,right,0.15,,,,,,,,,,,,,,,0.0020580142736434937,0.4864448755979538,,484.07275418937206,test,2,,,,,,,,,,481.59270606935024,482.1027786061168,482.08602292090654,482.08602292090654,482.2361431494355,482.7368944659829,483.0886802226305,484.0894184336066,right,1,0.3900684043765068,0.15,,,,,,,,,,,s034,001,2024-09-17_13h32.33.059,simplestop_skeleton,2022.2.2,59.9322899228726,
None,None,,,,,,,,,1,0,1,0,4,3,19,2,,,,,,,,,484.0731872841716,go,squareblack.png,right,0.15,,,,,,,,,,,,,,,0.001166708767414093,0.49029312282800674,,486.57754242420197,test,2,,,,,,,,,,484.0894184336066,484.58904372900724,484.58904372900724,484.58904372900724,484.73904998600483,485.23966727405787,485.5898667573929,486.5987108796835,right,1,0.3899480625987053,0.15,,,,,,,,,,,s034,001,2024-09-17_13h32.33.059,simplestop_skeleton,2022.2.2,59.9322899228726,
None,None,,,,,,,,,1,0,1,0,5,0,20,2,,,,,,,,,486.5780057683587,go,circleblack.png,left,0.15,,,,,,,,,,,,,,,0.0026273727416992188,0.48660045862197876,,489.0782580897212,test,2,,,,,,,,,,486.5987108796835,487.1082251891494,487.09157986193895,487.09157986193895,487.2419298514724,487.7426301166415,488.0934806317091,489.0951054543257,left,1,0.36151716113090515,0.15,,,,,,,,,,,s034,001,2024-09-17_13h32.33.059,simplestop_skeleton,2022.2.2,59.9322899228726,
None,None,,,,,,,,,1,0,1,0,5,1,21,1,,,,,,,,,489.0788264349103,stop,circleblack.png,left,0.15,,,,,,,,,,,,,,,0.0012323707342147827,0.489401176571846,0.6410729289054871,491.5831952765584,test,2,,,,,,,,,,489.0951054543257,489.5944437906146,489.5944437906146,489.5944437906146,489.74577214568853,490.24528945982456,490.5953625291586,491.603722974658,None,0,,0.2,,,,,,,,,,,s034,001,2024-09-17_13h32.33.059,simplestop_skeleton,2022.2.2,59.9322899228726,
$currentCorrectResponse,$currentGoStim,,,,,,,,,1,0,1,0,5,2,22,0,,,,,,,,,491.5836858227849,go,circleblack.png,left,0.2,,,,,,,,,,,,,,,0.0020391419529914856,0.4865507036447525,,494.0836670845747,test,2,,,,,,,,,,491.603722974658,492.11370880156755,492.09701192379,492.09701192379,492.2972268983722,492.7980505153537,493.09966991841793,494.10585307329893,left,1,0.4090532138943672,0.2,,,,,,,,,,,s034,001,2024-09-17_13h32.33.059,simplestop_skeleton,2022.2.2,59.9322899228726,
None,None,,,,,,,,,1,0,1,0,5,3,23,1,,,,,,,,,494.08409836888313,stop,squareblack.png,right,0.2,,,,,,,,,,,,,,,0.007365912199020386,0.4901023209095001,0.6908487305045128,496.58863884210587,test,2,,,,,,,,,,494.10585307329893,494.61650078743696,494.5997616201639,494.5997616201639,494.80078242719173,495.30084154754877,495.6009975448251,496.61007107794285,right,1,0.35702913254499435,0.15,,,,,,,,,,,s034,001,2024-09-17_13h32.33.059,simplestop_skeleton,2022.2.2,59.9322899228726,
None,None,,,,,,,,,1,0,1,0,6,0,24,2,,,,,,,,,496.5890839919448,go,squareblack.png,right,0.15,,,,,,,,,,,,,,,0.0014621168375015259,0.4849187806248665,,499.0892669931054,test,2,,,,,,,,,,496.61007107794285,497.11927715688944,497.1026209965348,497.1026209965348,497.2526823654771,497.75337844341993,498.1051121801138,499.1063569113612,right,1,0.32115402817726135,0.15,,,,,,,,,,,s034,001,2024-09-17_13h32.33.059,simplestop_skeleton,2022.2.2,59.9322899228726,
None,None,,,,,,,,,1,0,1,0,6,1,25,3,,,,,,,,,499.08971732109785,stop,circleblack.png,left,0.15,,,,,,,,,,,,,,,0.0018166154623031616,0.4899563267827034,0.6414667293429375,501.5944927930832,test,2,,,,,,,,,,499.1063569113612,499.62204572558403,499.60539381951094,499.60539381951094,499.75675670802593,500.2563217058778,500.606431171298,501.6157430112362,None,0,,0.2,,,,,,,,,,,s034,001,2024-09-17_13h32.33.059,simplestop_skeleton,2022.2.2,59.9322899228726,
None,None,,,,,,,,,1,0,1,0,6,2,26,1,,,,,,,,,501.5949597507715,go,squareblack.png,right,0.2,,,,,,,,,,,,,,,0.0028030872344970703,0.4862319231033325,,504.09473218768835,test,2,,,,,,,,,,501.6157430112362,502.124746799469,502.10800290107727,502.10800290107727,502.3083518669009,502.80928252637386,503.11078629642725,504.11212852597237,right,1,0.40343284606933594,0.2,,,,,,,,,,,s034,001,2024-09-17_13h32.33.059,simplestop_skeleton,2022.2.2,59.9322899228726,
None,None,,,,,,,,,1,0,1,0,6,3,27,1,,,,,,,,,504.09519533813,go,circleblack.png,left,0.2,,,,,,,,,,,,,,,0.0017032995820045471,0.49024413526058197,,506.5995794609189,test,2,,,,,,,,,,504.11212852597237,504.61117930710316,504.61117930710316,504.61117930710316,504.81201826035976,505.3117105513811,505.6120076403022,506.61885165423155,left,1,0.33608991652727127,0.2,,,,,,,,,,,s034,001,2024-09-17_13h32.33.059,simplestop_skeleton,2022.2.2,59.9322899228726,
None,None,,,,,,,,,1,0,1,0,7,0,28,1,,,,,,,,,506.60032556951046,stop,squareblack.png,right,0.2,,,,,,,,,,,,,,,0.0017271190881729126,0.48544348776340485,0.6855519190430641,509.1006946861744,test,2,,,,,,,,,,506.61885165423155,507.13056080043316,507.11378114670515,507.11378114670515,507.31385577470064,507.81451227515936,508.11469239741564,509.1173437386751,right,1,0.35135360807180405,0.15,,,,,,,,,,,s034,001,2024-09-17_13h32.33.059,simplestop_skeleton,2022.2.2,59.9322899228726,
None,None,,,,,,,,,1,0,1,0,7,1,29,2,,,,,,,,,509.1011408492923,go,squareblack.png,right,0.15,,,,,,,,,,,,,,,0.0011658072471618652,0.4893729090690613,,511.60420206934214,test,2,,,,,,,,,,509.1173437386751,509.633046194911,509.6163510903716,509.6163510903716,509.76655645668507,510.2672699764371,510.6174926906824,511.6228120699525,right,1,0.33303647488355637,0.15,,,,,,,,,,,s034,001,2024-09-17_13h32.33.059,simplestop_skeleton,2022.2.2,59.9322899228726,
None,None,,,,,,,,,1,0,1,0,7,2,30,3,,,,,,,,,511.6046518608928,go,circleblack.png,left,0.15,,,,,,,,,,,,,,,0.001968100666999817,0.48842550814151764,,514.1057834625244,test,2,,,,,,,,,,511.6228120699525,512.1360905393958,512.1194003000855,512.1194003000855,512.269343957305,512.7700381502509,513.1202186867595,514.1225736066699,left,1,0.37808994203805923,0.15,,,,,,,,,,,s034,001,2024-09-17_13h32.33.059,simplestop_skeleton,2022.2.2,59.9322899228726,
$currentCorrectResponse,$currentGoStim,,,,,,,,,1,0,1,0,7,3,31,0,,,,,,,,,514.1062188073993,go,circleblack.png,left,0.15,,,,,,,,,,,,,,,0.0012742802500724792,0.4897463247179985,,516.609584659338,test,2,,,,,,,,,,514.1225736066699,514.6219006031752,514.6219006031752,514.6219006031752,514.7721302583814,515.2728183120489,515.62297514081,516.6292736083269,left,1,0.3341517820954323,0.15,,,,,,,,,,,s034,001,2024-09-17_13h32.33.059,simplestop_skeleton,2022.2.2,59.9322899228726,
None,None,,,,,,,,,1,0,1,0,8,0,32,1,,,,,,,,,516.6100233048201,go,circleblack.png,left,0.15,,,,,,,,,,,,,,,0.001986294984817505,0.48703234642744064,,519.111304551363,test,2,,,,,,,,,,516.6292736083269,517.1415609419346,517.1250552609563,517.1250552609563,517.2748443931341,517.7753471955657,518.12660651654,519.1286354064941,left,1,0.3278578147292137,0.15,,,,,,,,,,,s034,001,2024-09-17_13h32.33.059,simplestop_skeleton,2022.2.2,59.9322899228726,
None,None,,,,,,,,,1,0,1,0,8,1,33,2,,,,,,,,,519.1117603704333,stop,squareblack.png,right,0.15,,,,,,,,,,,,,,,0.00164138525724411,0.48977678269147873,0.6401871666312218,521.6152296289802,test,2,,,,,,,,,,519.1286354064941,519.6448934972286,519.6274465098977,519.6274465098977,519.7775998339057,520.2800679728389,520.6284821480513,521.6336529031396,None,0,,0.2,,,,,,,,,,,s034,001,2024-09-17_13h32.33.059,simplestop_skeleton,2022.2.2,59.9322899228726,
None,None,,,,,,,,,1,0,1,0,8,2,34,3,,,,,,,,,521.615683875978,go,squareblack.png,right,0.2,,,,,,,,,,,,,,,0.0014748498797416687,0.48812340199947357,,524.116999477148,test,2,,,,,,,,,,521.6336529031396,522.1470675840974,522.1303587928414,522.1303587928414,522.3304488062859,522.8310152739286,523.1312986463308,524.1343280151486,right,1,0.3814548850059509,0.2,,,,,,,,,,,s034,001,2024-09-17_13h32.33.059,simplestop_skeleton,2022.2.2,59.9322899228726,
None,None,,,,,,,,,1,0,1,0,8,3,35,1,,,,,,,,,524.1174305155873,stop,circleblack.png,left,0.2,,,,,,,,,,,,,,,0.0017788633704185486,0.4898001104593277,0.6899248957633972,526.6205619648099,test,2,,,,,,,,,,524.1343280151486,524.6496070101857,524.6330162510276,524.6330162510276,524.8332257196307,525.3356169313192,525.6342967972159,526.6391184478998,left,1,0.3848517909646034,0.15,,,,,,,,,,,s034,001,2024-09-17_13h32.33.059,simplestop_skeleton,2022.2.2,59.9322899228726,
None,None,,,,,,,,,1,0,1,0,9,0,36,2,,,,,,,,,526.6210138052702,go,circleblack.png,left,0.15,,,,,,,,,,,,,,,0.0015933066606521606,0.4878130257129669,,529.1224450543523,test,2,,,,,,,,,,526.6391184478998,527.1525493711233,527.1359812319279,527.1359812319279,527.286320835352,527.786367431283,528.1370520144701,529.1392547264695,left,1,0.4066232740879059,0.15,,,,,,,,,,,s034,001,2024-09-17_13h32.33.059,simplestop_skeleton,2022.2.2,59.9322899228726,
None,None,,,,,,,,,1,0,1,0,9,1,37,2,,,,,,,,,529.1229001432657,go,circleblack.png,left,0.15,,,,,,,,,,,,,,,0.001234494149684906,0.4895954206585884,,531.6271623745561,test,2,,,,,,,,,,529.1392547264695,529.638415582478,529.638415582478,529.638415582478,529.7885963022709,530.2893214821815,530.6396545618773,531.6472635790706,left,1,0.3106628805398941,0.15,,,,,,,,,,,s034,001,2024-09-17_13h32.33.059,simplestop_skeleton,2022.2.2,59.9322899228726,
$currentCorrectResponse,$currentGoStim,,,,,,,,,1,0,1,0,9,2,38,0,,,,,,,,,531.6276015117764,stop,squareblack.png,right,0.15,,,,,,,,,,,,,,,0.0030271783471107483,0.48656344413757324,0.6366966515779495,534.1280888095498,test,2,,,,,,,,,,531.6472635790706,532.1581514328718,532.1415601670742,532.1415601670742,532.2913666069508,532.7920637205243,533.1425496637821,534.1456454247236,None,0,,0.2,,,,,,,,,,,s034,001,2024-09-17_13h32.33.059,simplestop_skeleton,2022.2.2,59.9322899228726,
$currentCorrectResponse,$currentGoStim,,,,,,,,,1,0,1,0,9,3,39,0,,,,,,,,,534.1285277381539,go,circleblack.png,left,0.2,,,,,,,,,,,,,,,0.0017069727182388306,0.4894959107041359,,536.6315956786275,test,2,,,,,,,,,,534.1456454247236,534.6606230288744,534.6439900696278,534.6439900696278,534.8445833623409,535.3449271470308,535.6452306807041,536.6494080871344,left,1,0.3640158027410507,0.2,,,,,,,,,,,s034,001,2024-09-17_13h32.33.059,simplestop_skeleton,2022.2.2,59.9322899228726,
None,None,,,,,,,,,1,0,1,0,10,0,40,1,,,,,,,,,536.6320631206036,go,squareblack.png,right,0.2,,,,,,,,,,,,,,,0.0017450079321861267,0.4887707978487015,,539.1336158216,test,2,,,,,,,,,,536.6494080871344,537.1635613441467,537.1469617038965,537.1469617038965,537.3473123013973,537.8474863544106,538.148509055376,539.1506835147738,right,1,0.3950105085968971,0.2,,,,,,,,,,,s034,001,2024-09-17_13h32.33.059,simplestop_skeleton,2022.2.2,59.9322899228726,
None,None,,,,,,,,,1,0,1,0,10,1,41,1,,,,,,,,,539.1340624764562,go,squareblack.png,right,0.2,,,,,,,,,,,,,,,0.0012167245149612427,0.4895135834813118,,541.6372962221503,test,2,,,,,,,,,,539.1506835147738,539.6661494448781,539.6495271250606,539.6495271250606,539.8504047989845,540.3504911586642,540.6508465483785,541.6544580757618,right,1,0.29122041165828705,0.2,,,,,,,,,,,s034,001,2024-09-17_13h32.33.059,simplestop_skeleton,2022.2.2,59.9322899228726,
None,None,,,,,,,,,1,0,1,0,10,2,42,2,,,,,,,,,541.6377598568797,go,squareblack.png,right,0.2,,,,,,,,,,,,,,,0.0013940483331680298,0.4884103015065193,,544.1391908228397,test,2,,,,,,,,,,541.6544580757618,542.1691140383482,542.1524260416627,542.1524260416627,542.3527477830648,542.8530877307057,543.1534966304898,544.1561160087585,right,1,0.31577954441308975,0.2,,,,,,,,,,,s034,001,2024-09-17_13h32.33.059,simplestop_skeleton,2022.2.2,59.9322899228726,
None,None,,,,,,,,,1,0,1,0,10,3,43,1,,,,,,,,,544.1396442949772,go,squareblack.png,right,0.2,,,,,,,,,,,,,,,0.0011621713638305664,0.48948756605386734,,546.6427179723978,test,2,,,,,,,,,,544.1561160087585,544.671694599092,544.6550989449024,544.6550989449024,544.855212777853,545.3559811785817,545.6564021632075,546.6658319085836,right,1,0.3543541207909584,0.2,,,,,,,,,,,s034,001,2024-09-17_13h32.33.059,simplestop_skeleton,2022.2.2,59.9322899228726,
$currentCorrectResponse,$currentGoStim,,,,,,,,,1,0,1,0,11,0,44,0,,,,,,,,,546.6431534439325,stop,circleblack.png,left,0.2,,,,,,,,,,,,,,,0.007977001368999481,0.48873137682676315,0.6890767738223076,549.1447378918529,test,2,,,,,,,,,,546.6658319085836,547.1747442558408,547.1580038592219,547.1580038592219,547.3582711964846,547.858527906239,548.1588196158409,549.1620726883411,left,1,0.369266614317894,0.15,,,,,,,,,,,s034,001,2024-09-17_13h32.33.059,simplestop_skeleton,2022.2.2,59.9322899228726,
$currentCorrectResponse,$currentGoStim,,,,,,,,,1,0,1,0,11,1,45,0,,,,,,,,,549.1451875939965,stop,squareblack.png,right,0.15,,,,,,,,,,,,,,,0.0015936344861984253,0.48952650278806686,0.6397857442498207,551.6473064720631,test,2,,,,,,,,,,549.1620726883411,549.6772827580571,549.6605396643281,549.6605396643281,549.810690253973,550.3131469041109,550.6618590131402,551.6647638902068,None,0,,0.2,,,,,,,,,,,s034,001,2024-09-17_13h32.33.059,simplestop_skeleton,2022.2.2,59.9322899228726,
None,None,,,,,,,,,1,0,1,0,11,2,46,3,,,,,,,,,551.6477413922548,stop,circleblack.png,left,0.2,,,,,,,,,,,,,,,0.0017960667610168457,0.4899078756570816,0.6901566833257675,554.1502868756652,test,2,,,,,,,,,,551.6647638902068,552.1802476420999,552.1635067686439,552.1635067686439,552.3638650476933,552.8640661761165,553.1643070429564,554.167252510786,None,0,,0.25,,,,,,,,,,,s034,001,2024-09-17_13h32.33.059,simplestop_skeleton,2022.2.2,59.9322899228726,
None,None,,,,,,,,,1,0,1,0,11,3,47,2,,,,,,,,,554.1507192105055,go,circleblack.png,left,0.25,,,,,,,,,,,,,,,0.001225687563419342,0.489399679005146,,556.6538261249661,test,2,,,,,,,,,,554.167252510786,554.6826950311661,554.6660151705146,554.6660151705146,554.9163386002183,555.4172259047627,555.6674667522311,556.6689961850643,left,1,0.4347721338272095,0.25,,,,,,,,,,,s034,001,2024-09-17_13h32.33.059,simplestop_skeleton,2022.2.2,59.9322899228726,
,,,,,,,,,,1,0,1,0,,,,,,,,,,,,,,,,,,,,,,,,,,,,,,,,,,,,,,,,,,,,,,,,,,,,,,,,,,,556.6689961850643,556.6689961850643,return,22.530862271785736,"[{'fileName': 'squareblack.png', 'correct_response': 'right', 'condition': 'go'}, {'fileName': 'circleblack.png', 'correct_response': 'left', 'condition': 'go'}, {'fileName': 'circleblack.png', 'correct_response': 'left', 'condition': 'go'}, {'fileName': 'squareblack.png', 'correct_response': 'right', 'condition': 'go'}, {'fileName': 'squareblack.png', 'correct_response': 'right', 'condition': 'go'}, {'fileName': 'circleblack.png', 'correct_response': 'left', 'condition': 'go'}, {'fileName': 'circleblack.png', 'correct_response': 'left', 'condition': 'stop'}, {'fileName': 'squareblack.png', 'correct_response': 'right', 'condition': 'stop'}, {'fileName': 'circleblack.png', 'correct_response': 'left', 'condition': 'stop'}, {'fileName': 'squareblack.png', 'correct_response': 'right', 'condition': 'go'}, {'fileName': 'squareblack.png', 'correct_response': 'right', 'condition': 'stop'}, {'fileName': 'circleblack.png', 'correct_response': 'left', 'condition': 'go'}, {'fileName': 'circleblack.png', 'correct_response': 'left', 'condition': 'go'}, {'fileName': 'squareblack.png', 'correct_response': 'right', 'condition': 'go'}, {'fileName': 'circleblack.png', 'correct_response': 'left', 'condition': 'stop'}, {'fileName': 'squareblack.png', 'correct_response': 'right', 'condition': 'go'}, {'fileName': 'circleblack.png', 'correct_response': 'left', 'condition': 'go'}, {'fileName': 'circleblack.png', 'correct_response': 'left', 'condition': 'go'}, {'fileName': 'squareblack.png', 'correct_response': 'right', 'condition': 'go'}, {'fileName': 'squareblack.png', 'correct_response': 'right', 'condition': 'stop'}, {'fileName': 'squareblack.png', 'correct_response': 'right', 'condition': 'stop'}, {'fileName': 'circleblack.png', 'correct_response': 'left', 'condition': 'stop'}, {'fileName': 'circleblack.png', 'correct_response': 'left', 'condition': 'go'}, {'fileName': 'squareblack.png', 'correct_response': 'right', 'condition': 'go'}, {'fileName': 'circleblack.png', 'correct_response': 'left', 'condition': 'stop'}, {'fileName': 'squareblack.png', 'correct_response': 'right', 'condition': 'go'}, {'fileName': 'circleblack.png', 'correct_response': 'left', 'condition': 'go'}, {'fileName': 'circleblack.png', 'correct_response': 'left', 'condition': 'stop'}, {'fileName': 'squareblack.png', 'correct_response': 'right', 'condition': 'go'}, {'fileName': 'squareblack.png', 'correct_response': 'right', 'condition': 'stop'}, {'fileName': 'squareblack.png', 'correct_response': 'right', 'condition': 'stop'}, {'fileName': 'circleblack.png', 'correct_response': 'left', 'condition': 'go'}, {'fileName': 'squareblack.png', 'correct_response': 'right', 'condition': 'go'}, {'fileName': 'squareblack.png', 'correct_response': 'right', 'condition': 'go'}, {'fileName': 'circleblack.png', 'correct_response': 'left', 'condition': 'go'}, {'fileName': 'circleblack.png', 'correct_response': 'left', 'condition': 'go'}, {'fileName': 'squareblack.png', 'correct_response': 'right', 'condition': 'go'}, {'fileName': 'squareblack.png', 'correct_response': 'right', 'condition': 'stop'}, {'fileName': 'circleblack.png', 'correct_response': 'left', 'condition': 'go'}, {'fileName': 'squareblack.png', 'correct_response': 'right', 'condition': 'go'}, {'fileName': 'circleblack.png', 'correct_response': 'left', 'condition': 'stop'}, {'fileName': 'squareblack.png', 'correct_response': 'right', 'condition': 'go'}, {'fileName': 'circleblack.png', 'correct_response': 'left', 'condition': 'go'}, {'fileName': 'circleblack.png', 'correct_response': 'left', 'condition': 'stop'}, {'fileName': 'circleblack.png', 'correct_response': 'left', 'condition': 'go'}, {'fileName': 'squareblack.png', 'correct_response': 'right', 'condition': 'go'}, {'fileName': 'circleblack.png', 'correct_response': 'left', 'condition': 'go'}, {'fileName': 'squareblack.png', 'correct_response': 'right', 'condition': 'stop'}]",,,,,,s034,001,2024-09-17_13h32.33.059,simplestop_skeleton,2022.2.2,59.9322899228726,
$currentCorrectResponse,$currentGoStim,,,,,,,,,2,0,2,0,0,0,0,0,,,,,,,,,579.2257840484381,go,squareblack.png,right,0.25,,,,,,,,,,,,,,,0.0024626776576042175,0.4918631464242935,,581.7320157513022,test,3,,,,,,,,,,579.2474428266287,579.7622322365642,579.7452904656529,579.7452904656529,579.9957542344928,580.4960847944021,580.7465420365334,581.7554443925619,right,1,0.4013102725148201,0.25,,,,,,,,,,,s034,001,2024-09-17_13h32.33.059,simplestop_skeleton,2022.2.2,59.9322899228726,
None,None,,,,,,,,,2,0,2,0,0,1,1,1,,,,,,,,,581.732542835176,go,circleblack.png,left,0.25,,,,,,,,,,,,,,,0.007695473730564117,0.4894978180527687,,584.2332328855991,test,3,,,,,,,,,,581.7554443925619,582.2648703455925,582.2481852322817,582.2481852322817,582.498235270381,582.9974818378687,583.2479448914528,584.2500500753522,left,1,0.2952472195029259,0.25,,,,,,,,,,,s034,001,2024-09-17_13h32.33.059,simplestop_skeleton,2022.2.2,59.9322899228726,
$currentCorrectResponse,$currentGoStim,,,,,,,,,2,0,2,0,0,2,2,0,,,,,,,,,584.2336680963635,go,circleblack.png,left,0.25,,,,,,,,,,,,,,,0.0012499615550041199,0.4908023327589035,,586.7385259792209,test,3,,,,,,,,,,584.2500500753522,584.7511015087366,584.7511015087366,584.7511015087366,585.0014424324036,585.5168563351035,585.7503586784005,586.7651657983661,left,1,0.2891160547733307,0.25,,,,,,,,,,,s034,001,2024-09-17_13h32.33.059,simplestop_skeleton,2022.2.2,59.9322899228726,
None,None,,,,,,,,,2,0,2,0,0,3,3,2,,,,,,,,,586.738983862102,go,squareblack.png,right,0.25,,,,,,,,,,,,,,,0.007560111582279205,0.48563971370458603,,589.2388039529324,test,3,,,,,,,,,,586.7651657983661,587.2687678858638,587.2520468458533,587.2520468458533,587.5022871792316,588.0029390230775,588.2545221373439,589.2555828243494,right,1,0.428671658039093,0.25,,,,,,,,,,,s034,001,2024-09-17_13h32.33.059,simplestop_skeleton,2022.2.2,59.9322899228726,
None,None,,,,,,,,,2,0,2,0,1,0,4,2,,,,,,,,,589.2392751052976,go,squareblack.png,right,0.25,,,,,,,,,,,,,,,0.0011786594986915588,0.49053290486335754,,591.7604471519589,test,3,,,,,,,,,,589.2555828243494,589.7610290199518,589.7610290199518,589.7610290199518,590.0069706961513,590.522206351161,590.772583052516,591.7814621925354,right,1,0.41855034977197647,0.25,,,,,,,,,,,s034,001,2024-09-17_13h32.33.059,simplestop_skeleton,2022.2.2,59.9322899228726,
$currentCorrectResponse,$currentGoStim,,,,,,,,,2,0,2,0,1,1,5,0,,,,,,,,,591.7608985155821,go,circleblack.png,left,0.25,,,,,,,,,,,,,,,0.00267975777387619,0.48666155338287354,,594.2609461098909,test,3,,,,,,,,,,591.7814621925354,592.29099150002,592.2741658091545,592.2741658091545,592.5245124176145,593.0276619791985,593.2758379429579,594.277808368206,left,1,0.3491329103708267,0.25,,,,,,,,,,,s034,001,2024-09-17_13h32.33.059,simplestop_skeleton,2022.2.2,59.9322899228726,
None,None,,,,,,,,,2,0,2,0,1,2,6,1,,,,,,,,,594.2614721506834,stop,circleblack.png,left,0.25,,,,,,,,,,,,,,,0.0012451857328414917,0.4894767999649048,0.7409846037626266,596.7657046467066,test,3,,,,,,,,,,594.277808368206,594.7770012840629,594.7770012840629,594.7770012840629,595.0284575223923,595.5280475541949,595.7779996469617,596.7865910157561,left,1,0.3250969797372818,0.2,,,,,,,,,,,s034,001,2024-09-17_13h32.33.059,simplestop_skeleton,2022.2.2,59.9322899228726,
$currentCorrectResponse,$currentGoStim,,,,,,,,,2,0,2,0,1,3,7,0,,,,,,,,,596.76614831388,stop,squareblack.png,right,0.2,,,,,,,,,,,,,,,0.0025488659739494324,0.48697279393672943,0.6869983747601509,599.2667802721262,test,3,,,,,,,,,,596.7865910157561,597.2966481670737,597.27995724231,597.27995724231,597.4800030067563,597.980500087142,598.2816146761179,599.2840156555176,right,1,0.31174178421497345,0.15,,,,,,,,,,,s034,001,2024-09-17_13h32.33.059,simplestop_skeleton,2022.2.2,59.9322899228726,
None,None,,,,,,,,,2,0,2,0,2,0,8,1,,,,,,,,,599.2672181427479,stop,circleblack.png,left,0.15,,,,,,,,,,,,,,,0.0017490535974502563,0.48964637517929077,0.6399203687906265,601.7709443196654,test,3,,,,,,,,,,599.2840156555176,599.7991509735584,599.7825031876564,599.7825031876564,599.9328872486949,600.4351678788662,600.7836831882596,601.794373460114,None,0,,0.2,,,,,,,,,,,s034,001,2024-09-17_13h32.33.059,simplestop_skeleton,2022.2.2,59.9322899228726,
None,None,,,,,,,,,2,0,2,0,2,1,9,3,,,,,,,,,601.7716207802296,go,squareblack.png,right,0.2,,,,,,,,,,,,,,,0.0021402016282081604,0.4989706799387932,,604.2887118682265,test,3,,,,,,,,,,601.794373460114,602.3022763356566,602.3022763356566,602.3022763356566,602.502228423953,603.0027595311403,603.3033377379179,604.3054725751281,right,1,0.32689496874809265,0.2,,,,,,,,,,,s034,001,2024-09-17_13h32.33.059,simplestop_skeleton,2022.2.2,59.9322899228726,
None,None,,,,,,,,,2,0,2,0,2,2,10,3,,,,,,,,,604.2891450971365,stop,squareblack.png,right,0.2,,,,,,,,,,,,,,,0.0011615380644798279,0.48970138281583786,0.6898989900946617,606.7920336723328,test,3,,,,,,,,,,604.3054725751281,604.8047097176313,604.8047097176313,604.8047097176313,605.0051301494241,605.5057095959783,605.8062875419855,606.80983774364,right,1,0.30843236297369003,0.15,,,,,,,,,,,s034,001,2024-09-17_13h32.33.059,simplestop_skeleton,2022.2.2,59.9322899228726,
None,None,,,,,,,,,2,0,2,0,2,3,11,2,,,,,,,,,606.792474001646,go,circleblack.png,left,0.15,,,,,,,,,,,,,,,0.0019187554717063904,0.4907431825995445,,609.294568374753,test,3,,,,,,,,,,606.80983774364,607.30936832726,607.30936832726,607.30936832726,607.4595221430063,607.9748640730977,608.3084899932146,609.3117225691676,left,1,0.30531488358974457,0.15,,,,,,,,,,,s034,001,2024-09-17_13h32.33.059,simplestop_skeleton,2022.2.2,59.9322899228726,
None,None,,,,,,,,,2,0,2,0,3,0,12,1,,,,,,,,,609.2950381562114,go,circleblack.png,left,0.15,,,,,,,,,,,,,,,0.0013084635138511658,0.48882605135440826,,611.797003723681,test,3,,,,,,,,,,609.3117225691676,609.8269710242748,609.810366615653,609.810366615653,609.9604125320911,610.4610246270895,610.8121408894658,611.8142449781299,left,1,0.392352394759655,0.15,,,,,,,,,,,s034,001,2024-09-17_13h32.33.059,simplestop_skeleton,2022.2.2,59.9322899228726,
None,None,,,,,,,,,2,0,2,0,3,1,13,2,,,,,,,,,611.7975181490183,go,squareblack.png,right,0.15,,,,,,,,,,,,,,,0.001663602888584137,0.49126577377319336,,614.3017197027802,test,3,,,,,,,,,,611.8142449781299,612.3149254322052,612.3149254322052,612.3149254322052,612.4649091362953,612.9806639552116,613.3140713125467,614.3232549652457,right,1,0.35385754704475403,0.15,,,,,,,,,,,s034,001,2024-09-17_13h32.33.059,simplestop_skeleton,2022.2.2,59.9322899228726,
None,None,,,,,,,,,2,0,2,0,3,2,14,1,,,,,,,,,614.3021841049194,stop,circleblack.png,left,0.15,,,,,,,,,,,,,,,0.002419479191303253,0.4862895533442497,0.6364423632621765,616.8025316894054,test,3,,,,,,,,,,614.3232549652457,614.8325530290604,614.8157643899322,614.8157643899322,614.9660103693604,615.4667646586895,615.8178328722715,616.8337565660477,None,0,,0.2,,,,,,,,,,,s034,001,2024-09-17_13h32.33.059,simplestop_skeleton,2022.2.2,59.9322899228726,
$currentCorrectResponse,$currentGoStim,,,,,,,,,2,0,2,0,3,3,15,0,,,,,,,,,616.8029814362526,go,squareblack.png,right,0.2,,,,,,,,,,,,,,,0.0017301663756370544,0.4918436333537102,,619.3072280734777,test,3,,,,,,,,,,616.8337565660477,617.3360156863928,617.3195950463414,617.3195950463414,617.5202653706074,618.0194716379046,618.3196961730719,619.3285514712334,right,1,0.37382862716913223,0.2,,,,,,,,,,,s034,001,2024-09-17_13h32.33.059,simplestop_skeleton,2022.2.2,59.9322899228726,
None,None,,,,,,,,,2,0,2,0,4,0,16,3,,,,,,,,,619.3076706156135,go,circleblack.png,left,0.2,,,,,,,,,,,,,,,0.0026389434933662415,0.4868535175919533,,621.8079542666674,test,3,,,,,,,,,,619.3285514712334,619.8379817157984,619.8215917870402,619.8215917870402,620.0214752480388,620.5221288576722,620.8224409669638,621.8247115910053,left,1,0.40299393981695175,0.2,,,,,,,,,,,s034,001,2024-09-17_13h32.33.059,simplestop_skeleton,2022.2.2,59.9322899228726,
$currentCorrectResponse,$currentGoStim,,,,,,,,,2,0,2,0,4,1,17,0,,,,,,,,,621.8083874061704,go,circleblack.png,left,0.2,,,,,,,,,,,,,,,0.0012270957231521606,0.4899148643016815,,624.3115424588323,test,3,,,,,,,,,,621.8247115910053,622.3240260705352,622.3240260705352,622.3240260705352,622.5242644250393,623.0250449478626,623.3254773467779,624.3296256959438,left,1,0.36769307404756546,0.2,,,,,,,,,,,s034,001,2024-09-17_13h32.33.059,simplestop_skeleton,2022.2.2,59.9322899228726,
None,None,,,,,,,,,2,0,2,0,4,2,18,1,,,,,,,,,624.3119731321931,go,squareblack.png,right,0.2,,,,,,,,,,,,,,,0.0017357468605041504,0.4887821674346924,,626.8150976896286,test,3,,,,,,,,,,624.3296256959438,624.8437015041709,624.8271425068378,624.8271425068378,625.0272269323468,625.5275171473622,625.8278132453561,626.8322807103395,right,1,0.3227974697947502,0.2,,,,,,,,,,,s034,001,2024-09-17_13h32.33.059,simplestop_skeleton,2022.2.2,59.9322899228726,
None,None,,,,,,,,,2,0,2,0,4,3,19,1,,,,,,,,,626.8155492395163,stop,squareblack.png,right,0.2,,,,,,,,,,,,,,,0.0013414695858955383,0.48808571696281433,0.6903472170233727,629.317300952971,test,3,,,,,,,,,,626.8322807103395,627.3462300375104,627.3296309933066,627.3296309933066,627.5298017933965,628.0305519402027,628.3310877084732,629.3349994644523,None,0,,0.25,,,,,,,,,,,s034,001,2024-09-17_13h32.33.059,simplestop_skeleton,2022.2.2,59.9322899228726,
None,None,,,,,,,,,2,0,2,0,5,0,20,3,,,,,,,,,629.3177483454347,stop,squareblack.png,right,0.25,,,,,,,,,,,,,,,0.0013783648610115051,0.48830248415470123,0.7381441965699196,631.8196431547403,test,3,,,,,,,,,,629.3349994644523,629.8491948470473,629.8326749801636,629.8326749801636,630.0826033353806,630.5831165909767,630.8334852829576,631.8379611521959,right,1,0.43020640313625336,0.2,,,,,,,,,,,s034,001,2024-09-17_13h32.33.059,simplestop_skeleton,2022.2.2,59.9322899228726,
None,None,,,,,,,,,2,0,2,0,5,1,21,3,,,,,,,,,631.820094704628,stop,circleblack.png,left,0.2,,,,,,,,,,,,,,,0.001752316951751709,0.4883618801832199,0.6884633302688599,634.3243794068694,test,3,,,,,,,,,,631.8379611521959,632.3517563045025,632.3351542949677,632.3351542949677,632.5353009328246,633.0359910354018,633.3364885300398,634.3438317030668,left,1,0.3261266499757767,0.15,,,,,,,,,,,s034,001,2024-09-17_13h32.33.059,simplestop_skeleton,2022.2.2,59.9322899228726,
$currentCorrectResponse,$currentGoStim,,,,,,,,,2,0,2,0,5,2,22,0,,,,,,,,,634.3250531256199,go,circleblack.png,left,0.15,,,,,,,,,,,,,,,0.0013785213232040405,0.486091747879982,,636.8255499601364,test,3,,,,,,,,,,634.3438317030668,634.8565990775824,634.8398074060678,634.8398074060678,634.9899781271815,635.5051539316773,635.8390429988503,636.8441607505083,left,1,0.3389270752668381,0.15,,,,,,,,,,,s034,001,2024-09-17_13h32.33.059,simplestop_skeleton,2022.2.2,59.9322899228726,
None,None,,,,,,,,,2,0,2,0,5,3,23,1,,,,,,,,,636.8263623863459,go,squareblack.png,right,0.15,,,,,,,,,,,,,,,0.0017536282539367676,0.4875662475824356,,639.3276334926486,test,3,,,,,,,,,,636.8441607505083,637.3573017269373,637.3406809642911,637.3406809642911,637.490799471736,637.9914398938417,638.3435495868325,639.3457600921392,right,1,0.33405303955078125,0.15,,,,,,,,,,,s034,001,2024-09-17_13h32.33.059,simplestop_skeleton,2022.2.2,59.9322899228726,
None,None,,,,,,,,,2,0,2,0,6,0,24,3,,,,,,,,,639.3284061327577,stop,circleblack.png,left,0.15,,,,,,,,,,,,,,,0.0019179359078407288,0.4887767359614372,0.6406397148966789,641.8322045952082,test,3,,,,,,,,,,639.3457600921392,639.8626005351543,639.843463793397,639.843463793397,639.9944610074162,640.4943223446608,640.8448649421334,641.8522672727704,None,0,,0.2,,,,,,,,,,,s034,001,2024-09-17_13h32.33.059,simplestop_skeleton,2022.2.2,59.9322899228726,
None,None,,,,,,,,,2,0,2,0,6,1,25,3,,,,,,,,,641.8329796120524,go,squareblack.png,right,0.2,,,,,,,,,,,,,,,0.00235188752412796,0.4858952909708023,,644.332983225584,test,3,,,,,,,,,,641.8522672727704,642.3630920425057,642.3464236482978,642.3464236482978,642.546384960413,643.0469663590193,643.347239613533,644.3502627685666,right,1,0.45664646476507187,0.2,,,,,,,,,,,s034,001,2024-09-17_13h32.33.059,simplestop_skeleton,2022.2.2,59.9322899228726,
$currentCorrectResponse,$currentGoStim,,,,,,,,,2,0,2,0,6,2,26,0,,,,,,,,,644.3334207683802,go,circleblack.png,left,0.2,,,,,,,,,,,,,,,0.001774124801158905,0.489563912153244,,646.8356577903032,test,3,,,,,,,,,,644.3502627685666,644.8656163141131,644.8492190390825,644.8492190390825,645.0499017387629,645.5516420900822,645.851954087615,646.8531814664602,left,1,0.49556194245815277,0.2,,,,,,,,,,,s034,001,2024-09-17_13h32.33.059,simplestop_skeleton,2022.2.2,59.9322899228726,
None,None,,,,,,,,,2,0,2,0,6,3,27,2,,,,,,,,,646.8360921889544,stop,circleblack.png,left,0.2,,,,,,,,,,,,,,,0.001284860074520111,0.49138496816158295,0.6896985247731209,649.3388493657112,test,3,,,,,,,,,,646.8531814664602,647.3535126969218,647.3535126969218,647.3535126969218,647.5521228089929,648.0524611249566,648.3526607379317,649.3569125756621,None,0,,0.25,,,,,,,,,,,s034,001,2024-09-17_13h32.33.059,simplestop_skeleton,2022.2.2,59.9322899228726,
None,None,,,,,,,,,2,0,2,0,7,0,28,1,,,,,,,,,649.33932223171,go,squareblack.png,right,0.25,,,,,,,,,,,,,,,0.0017207860946655273,0.4888429269194603,,651.8412236794829,test,3,,,,,,,,,,649.3569125756621,649.8711032569408,649.8543554618955,649.8543554618955,650.1048134565353,650.6051980778575,650.8563441261649,651.8723089322448,right,1,0.41591913253068924,0.25,,,,,,,,,,,s034,001,2024-09-17_13h32.33.059,simplestop_skeleton,2022.2.2,59.9322899228726,
None,None,,,,,,,,,2,0,2,0,7,1,29,3,,,,,,,,,651.8418460562825,stop,squareblack.png,right,0.25,,,,,,,,,,,,,,,0.0011701062321662903,0.48938126862049103,0.7410175576806068,654.3443946018815,test,3,,,,,,,,,,651.8723089322448,652.3762914612889,652.3572929948568,652.3572929948568,652.6086745634675,653.1083299443126,653.3582469671965,654.3613530769944,right,1,0.3197576701641083,0.2,,,,,,,,,,,s034,001,2024-09-17_13h32.33.059,simplestop_skeleton,2022.2.2,59.9322899228726,
None,None,,,,,,,,,2,0,2,0,7,2,30,1,,,,,,,,,654.3448273912072,stop,squareblack.png,right,0.2,,,,,,,,,,,,,,,0.0011913180351257324,0.4894183799624443,0.6894174143671989,656.846888102591,test,3,,,,,,,,,,654.3613530769944,654.8768088892102,654.8602264747024,654.8602264747024,655.0601620823145,655.5607089996338,655.8610961288214,656.8642550483346,right,1,0.39451250433921814,0.15,,,,,,,,,,,s034,001,2024-09-17_13h32.33.059,simplestop_skeleton,2022.2.2,59.9322899228726,
None,None,,,,,,,,,2,0,2,0,7,3,31,2,,,,,,,,,656.8473360091448,go,circleblack.png,left,0.15,,,,,,,,,,,,,,,0.001904316246509552,0.4895634055137634,,659.349568657577,test,3,,,,,,,,,,656.8642550483346,657.379413060844,657.3626755103469,657.3626755103469,657.5128532722592,658.0134940370917,658.3638672605157,659.3666660860181,left,1,0.4183923974633217,0.15,,,,,,,,,,,s034,001,2024-09-17_13h32.33.059,simplestop_skeleton,2022.2.2,59.9322899228726,
None,None,,,,,,,,,2,0,2,0,8,0,32,3,,,,,,,,,659.3500029072165,go,squareblack.png,right,0.15,,,,,,,,,,,,,,,0.0015636086463928223,0.48982368409633636,,661.8524633795023,test,3,,,,,,,,,,659.3666660860181,659.8823617771268,659.8658064380288,659.8658064380288,660.0158422589302,660.5161098018289,660.866535782814,661.8700477331877,right,1,0.46428944915533066,0.15,,,,,,,,,,,s034,001,2024-09-17_13h32.33.059,simplestop_skeleton,2022.2.2,59.9322899228726,
None,None,,,,,,,,,2,0,2,0,8,1,33,3,,,,,,,,,661.852904714644,go,squareblack.png,right,0.15,,,,,,,,,,,,,,,0.0012519583106040955,0.4890769198536873,,664.3551895692945,test,3,,,,,,,,,,661.8700477331877,662.3849317580462,662.3682230710983,662.3682230710983,662.5184314996004,663.0195041745901,663.3694841116667,664.3735563233495,right,1,0.3904007449746132,0.15,,,,,,,,,,,s034,001,2024-09-17_13h32.33.059,simplestop_skeleton,2022.2.2,59.9322899228726,
None,None,,,,,,,,,2,0,2,0,8,2,34,2,,,,,,,,,664.355630941689,go,circleblack.png,left,0.15,,,,,,,,,,,,,,,0.0017813518643379211,0.4898892492055893,,666.858032785356,test,3,,,,,,,,,,664.3735563233495,664.8896171823144,664.8721397519112,664.8721397519112,665.023075260222,665.5383732914925,665.8720392808318,666.8779883235693,left,1,0.3316449001431465,0.15,,,,,,,,,,,s034,001,2024-09-17_13h32.33.059,simplestop_skeleton,2022.2.2,59.9322899228726,
None,None,,,,,,,,,2,0,2,0,8,3,35,2,,,,,,,,,666.8585012480617,go,circleblack.png,left,0.15,,,,,,,,,,,,,,,0.002173811197280884,0.48825839906930923,,669.3604392334819,test,3,,,,,,,,,,666.8779883235693,667.390447229147,667.3737582042813,667.3737582042813,667.5239102393389,668.0244187414646,668.3766384646297,669.3776243701577,left,1,0.4233771935105324,0.15,,,,,,,,,,,s034,001,2024-09-17_13h32.33.059,simplestop_skeleton,2022.2.2,59.9322899228726,
None,None,,,,,,,,,2,0,2,0,9,0,36,2,,,,,,,,,669.3608913347125,go,squareblack.png,right,0.15,,,,,,,,,,,,,,,0.0017307475209236145,0.48979414999485016,,671.8648818656802,test,3,,,,,,,,,,669.3776243701577,669.8956195041537,669.876566298306,669.876566298306,670.0275945067406,670.527384057641,670.8777105510235,671.8832742720842,right,1,0.349626749753952,0.15,,,,,,,,,,,s034,001,2024-09-17_13h32.33.059,simplestop_skeleton,2022.2.2,59.9322899228726,
$currentCorrectResponse,$currentGoStim,,,,,,,,,2,0,2,0,9,1,37,0,,,,,,,,,671.8656052947044,stop,squareblack.png,right,0.15,,,,,,,,,,,,,,,0.002138376235961914,0.48707306385040283,0.6371549740433693,674.3674318417907,test,3,,,,,,,,,,671.8832742720842,672.3961443975568,672.3795198053122,672.3795198053122,672.5296852812171,673.0299674645066,673.3806288689375,674.3849551156163,None,0,,0.2,,,,,,,,,,,s034,001,2024-09-17_13h32.33.059,simplestop_skeleton,2022.2.2,59.9322899228726,
None,None,,,,,,,,,2,0,2,0,9,2,38,2,,,,,,,,,674.3678716942668,go,circleblack.png,left,0.2,,,,,,,,,,,,,,,0.0019452869892120361,0.4881828501820564,,676.8711708188057,test,3,,,,,,,,,,674.3849551156163,674.8987058401108,674.882004417479,674.882004417479,675.0822772830725,675.5830263644457,675.8832620456815,676.8883751258254,left,1,0.33673815429210663,0.2,,,,,,,,,,,s034,001,2024-09-17_13h32.33.059,simplestop_skeleton,2022.2.2,59.9322899228726,
None,None,,,,,,,,,2,0,2,0,9,3,39,1,,,,,,,,,676.871626354754,go,squareblack.png,right,0.2,,,,,,,,,,,,,,,0.002241268754005432,0.48927077651023865,,679.3718995675445,test,3,,,,,,,,,,676.8883751258254,677.4032418876886,677.3866385146976,677.3866385146976,677.5851252228022,678.0854663401842,678.3859154805541,679.3903295472264,right,1,0.31307678669691086,0.2,,,,,,,,,,,s034,001,2024-09-17_13h32.33.059,simplestop_skeleton,2022.2.2,59.9322899228726,
$currentCorrectResponse,$currentGoStim,,,,,,,,,2,0,2,0,10,0,40,0,,,,,,,,,679.3723661527038,stop,circleblack.png,left,0.2,,,,,,,,,,,,,,,0.0018971636891365051,0.48873354494571686,0.6889565959572792,681.8743975162506,test,3,,,,,,,,,,679.3903295472264,679.9042205065489,679.8876193836331,679.8876193836331,680.0877983123064,680.5883857905865,680.8904981389642,681.8916361033916,left,1,0.3618572950363159,0.15,,,,,,,,,,,s034,001,2024-09-17_13h32.33.059,simplestop_skeleton,2022.2.2,59.9322899228726,
None,None,,,,,,,,,2,0,2,0,10,1,41,3,,,,,,,,,681.8748331815004,go,squareblack.png,right,0.15,,,,,,,,,,,,,,,0.001595720648765564,0.48960068076848984,,684.3780122473836,test,3,,,,,,,,,,681.8916361033916,682.4070381298661,682.3902855068445,682.3902855068445,682.5414761081338,683.0412033721805,683.3913775160909,684.3967179208994,right,1,0.44644514471292496,0.15,,,,,,,,,,,s034,001,2024-09-17_13h32.33.059,simplestop_skeleton,2022.2.2,59.9322899228726,
None,None,,,,,,,,,2,0,2,0,10,2,42,1,,,,,,,,,684.3784429952502,go,circleblack.png,left,0.15,,,,,,,,,,,,,,,0.0018724724650382996,0.4882710129022598,,686.8797222524881,test,3,,,,,,,,,,684.3967179208994,684.9100500792265,684.893292710185,684.893292710185,685.0433999970555,685.5438149347901,685.894456923008,686.8965635076165,left,1,0.47072864323854446,0.15,,,,,,,,,,,s034,001,2024-09-17_13h32.33.059,simplestop_skeleton,2022.2.2,59.9322899228726,
None,None,,,,,,,,,2,0,2,0,10,3,43,2,,,,,,,,,686.8801538869739,stop,circleblack.png,left,0.15,,,,,,,,,,,,,,,0.0013502687215805054,0.4897999092936516,0.6401306837797165,689.3824612870812,test,3,,,,,,,,,,686.8965635076165,687.3958604931831,687.3958604931831,687.3958604931831,687.5459834486246,688.0475536435843,688.398873321712,689.3993009105325,None,0,,0.2,,,,,,,,,,,s034,001,2024-09-17_13h32.33.059,simplestop_skeleton,2022.2.2,59.9322899228726,
None,None,,,,,,,,,2,0,2,0,11,0,44,2,,,,,,,,,689.3829092606902,go,circleblack.png,left,0.2,,,,,,,,,,,,,,,0.0012161731719970703,0.4908323585987091,,691.8875488042831,test,3,,,,,,,,,,689.3993009105325,689.9000793844461,689.9000793844461,689.9000793844461,690.1008006185293,690.6160130351782,690.8997388854623,691.914021499455,left,1,0.41217733174562454,0.2,,,,,,,,,,,s034,001,2024-09-17_13h32.33.059,simplestop_skeleton,2022.2.2,59.9322899228726,
$currentCorrectResponse,$currentGoStim,,,,,,,,,2,0,2,0,11,1,45,0,,,,,,,,,691.8880140036345,go,squareblack.png,right,0.2,,,,,,,,,,,,,,,0.007670685648918152,0.4874133765697479,,694.3879369869828,test,3,,,,,,,,,,691.914021499455,692.4179897233844,692.401345781982,692.401345781982,692.6015370637178,693.1020866334438,693.4031815230846,694.4050541073084,right,1,0.2952745705842972,0.2,,,,,,,,,,,s034,001,2024-09-17_13h32.33.059,simplestop_skeleton,2022.2.2,59.9322899228726,
$currentCorrectResponse,$currentGoStim,,,,,,,,,2,0,2,0,11,2,46,0,,,,,,,,,694.3883846700191,go,circleblack.png,left,0.2,,,,,,,,,,,,,,,0.0017502233386039734,0.4900110960006714,,696.8907923102379,test,3,,,,,,,,,,694.4050541073084,694.9208082184196,694.9042197316885,694.9042197316885,695.104400113225,695.606942512095,695.9054702743888,696.9220098033547,left,1,0.3115566372871399,0.2,,,,,,,,,,,s034,001,2024-09-17_13h32.33.059,simplestop_skeleton,2022.2.2,59.9322899228726,
None,None,,,,,,,,,2,0,2,0,11,3,47,3,,,,,,,,,696.8912217095494,stop,squareblack.png,right,0.2,,,,,,,,,,,,,,,0.0016925632953643799,0.49155987799167633,0.6901960223913193,699.3940314874053,test,3,,,,,,,,,,696.9220098033547,697.425475217402,697.4088845849037,697.4088845849037,697.6072980761528,698.1076028868556,698.4246503934264,699.4125248119235,left,0,0.29580482840538025,0.15,,,,,,,,,,,s034,001,2024-09-17_13h32.33.059,simplestop_skeleton,2022.2.2,59.9322899228726,
