corrGoResp,shape,practiceBlocks.thisRepN,practiceBlocks.thisTrialN,practiceBlocks.thisN,practiceBlocks.thisIndex,practiceTrials.thisRepN,practiceTrials.thisTrialN,practiceTrials.thisN,practiceTrials.thisIndex,stopBlocks.thisRepN,stopBlocks.thisTrialN,stopBlocks.thisN,stopBlocks.thisIndex,testTrials.thisRepN,testTrials.thisTrialN,testTrials.thisN,testTrials.thisIndex,stopPracTrialList,Test Block: 1,welcome.started,start_exp.started,start_exp.keys,start_exp.rt,instrStopText.started,start_prac.started,StartTrialTimeStamp,trialType,goStim,correctResponse,ssd,fixation.started,rules.started,fixation.stopped,goStim.started,goResp.started,stopSignal.started,stopSignal.stopped,goStim.stopped,goResp.stopped,rules.stopped,goResp.keys,goResp.corr,text.started,rules_2.started,text.stopped,rules_2.stopped,fixationOnset,goStimOnset,stopSignalOnset,EndTrialTimeStamp,Phase,Block,goResp.rt,text_5.started,key_resp_3.started,key_resp_3.keys,key_resp_3.rt,key_resp.started,testText.started,test_fixation.started,goStim_test.started,goResp_test.started,test_fixation.stopped,stopSignal_test.started,stopSignal_test.stopped,goStim_test.stopped,goResp_test.stopped,goResp_test.keys,goResp_test.corr,goResp_test.rt,EndingSSD,text_6.started,key_resp_4.started,key_resp_4.keys,key_resp_4.rt,Test Block: 2,Test Block: 3,ending_text.started,end_resp.started,end_resp.keys,end_resp.rt,participant,session,date,expName,psychopyVersion,frameRate,
,,,,,,,,,,,,,,,,,,"[{'fileName': 'squareblack.png', 'correct_response': 'right', 'condition': 'stop'}, {'fileName': 'circleblack.png', 'correct_response': 'left', 'condition': 'go'}, {'fileName': 'squareblack.png', 'correct_response': 'right', 'condition': 'go'}, {'fileName': 'circleblack.png', 'correct_response': 'left', 'condition': 'go'}, {'fileName': 'circleblack.png', 'correct_response': 'left', 'condition': 'go'}, {'fileName': 'circleblack.png', 'correct_response': 'left', 'condition': 'go'}, {'fileName': 'squareblack.png', 'correct_response': 'right', 'condition': 'go'}, {'fileName': 'squareblack.png', 'correct_response': 'right', 'condition': 'stop'}, {'fileName': 'squareblack.png', 'correct_response': 'right', 'condition': 'go'}, {'fileName': 'circleblack.png', 'correct_response': 'left', 'condition': 'stop'}, {'fileName': 'circleblack.png', 'correct_response': 'left', 'condition': 'stop'}, {'fileName': 'squareblack.png', 'correct_response': 'right', 'condition': 'go'}, {'fileName': 'circleblack.png', 'correct_response': 'left', 'condition': 'go'}, {'fileName': 'squareblack.png', 'correct_response': 'right', 'condition': 'stop'}, {'fileName': 'squareblack.png', 'correct_response': 'right', 'condition': 'go'}, {'fileName': 'squareblack.png', 'correct_response': 'right', 'condition': 'go'}, {'fileName': 'circleblack.png', 'correct_response': 'left', 'condition': 'go'}, {'fileName': 'squareblack.png', 'correct_response': 'right', 'condition': 'go'}, {'fileName': 'circleblack.png', 'correct_response': 'left', 'condition': 'go'}, {'fileName': 'squareblack.png', 'correct_response': 'right', 'condition': 'go'}, {'fileName': 'circleblack.png', 'correct_response': 'left', 'condition': 'go'}, {'fileName': 'circleblack.png', 'correct_response': 'left', 'condition': 'stop'}, {'fileName': 'circleblack.png', 'correct_response': 'left', 'condition': 'stop'}, {'fileName': 'squareblack.png', 'correct_response': 'right', 'condition': 'stop'}]","[{'fileName': 'circleblack.png', 'correct_response': 'left', 'condition': 'go'}, {'fileName': 'squareblack.png', 'correct_response': 'right', 'condition': 'stop'}, {'fileName': 'squareblack.png', 'correct_response': 'right', 'condition': 'go'}, {'fileName': 'circleblack.png', 'correct_response': 'left', 'condition': 'go'}, {'fileName': 'squareblack.png', 'correct_response': 'right', 'condition': 'go'}, {'fileName': 'circleblack.png', 'correct_response': 'left', 'condition': 'stop'}, {'fileName': 'squareblack.png', 'correct_response': 'right', 'condition': 'go'}, {'fileName': 'circleblack.png', 'correct_response': 'left', 'condition': 'go'}, {'fileName': 'circleblack.png', 'correct_response': 'left', 'condition': 'stop'}, {'fileName': 'squareblack.png', 'correct_response': 'right', 'condition': 'stop'}, {'fileName': 'squareblack.png', 'correct_response': 'right', 'condition': 'go'}, {'fileName': 'circleblack.png', 'correct_response': 'left', 'condition': 'go'}, {'fileName': 'circleblack.png', 'correct_response': 'left', 'condition': 'go'}, {'fileName': 'circleblack.png', 'correct_response': 'left', 'condition': 'stop'}, {'fileName': 'squareblack.png', 'correct_response': 'right', 'condition': 'go'}, {'fileName': 'squareblack.png', 'correct_response': 'right', 'condition': 'stop'}, {'fileName': 'squareblack.png', 'correct_response': 'right', 'condition': 'go'}, {'fileName': 'circleblack.png', 'correct_response': 'left', 'condition': 'go'}, {'fileName': 'squareblack.png', 'correct_response': 'right', 'condition': 'stop'}, {'fileName': 'squareblack.png', 'correct_response': 'right', 'condition': 'go'}, {'fileName': 'circleblack.png', 'correct_response': 'left', 'condition': 'stop'}, {'fileName': 'circleblack.png', 'correct_response': 'left', 'condition': 'go'}, {'fileName': 'squareblack.png', 'correct_response': 'right', 'condition': 'go'}, {'fileName': 'circleblack.png', 'correct_response': 'left', 'condition': 'go'}, {'fileName': 'squareblack.png', 'correct_response': 'right', 'condition': 'go'}, {'fileName': 'circleblack.png', 'correct_response': 'left', 'condition': 'go'}, {'fileName': 'circleblack.png', 'correct_response': 'left', 'condition': 'stop'}, {'fileName': 'squareblack.png', 'correct_response': 'right', 'condition': 'go'}, {'fileName': 'circleblack.png', 'correct_response': 'left', 'condition': 'stop'}, {'fileName': 'squareblack.png', 'correct_response': 'right', 'condition': 'go'}, {'fileName': 'squareblack.png', 'correct_response': 'right', 'condition': 'go'}, {'fileName': 'circleblack.png', 'correct_response': 'left', 'condition': 'go'}, {'fileName': 'circleblack.png', 'correct_response': 'left', 'condition': 'go'}, {'fileName': 'squareblack.png', 'correct_response': 'right', 'condition': 'stop'}, {'fileName': 'circleblack.png', 'correct_response': 'left', 'condition': 'go'}, {'fileName': 'squareblack.png', 'correct_response': 'right', 'condition': 'stop'}, {'fileName': 'circleblack.png', 'correct_response': 'left', 'condition': 'stop'}, {'fileName': 'squareblack.png', 'correct_response': 'right', 'condition': 'stop'}, {'fileName': 'circleblack.png', 'correct_response': 'left', 'condition': 'stop'}, {'fileName': 'squareblack.png', 'correct_response': 'right', 'condition': 'stop'}, {'fileName': 'squareblack.png', 'correct_response': 'right', 'condition': 'go'}, {'fileName': 'squareblack.png', 'correct_response': 'right', 'condition': 'go'}, {'fileName': 'circleblack.png', 'correct_response': 'left', 'condition': 'go'}, {'fileName': 'circleblack.png', 'correct_response': 'left', 'condition': 'go'}, {'fileName': 'circleblack.png', 'correct_response': 'left', 'condition': 'go'}, {'fileName': 'circleblack.png', 'correct_response': 'left', 'condition': 'go'}, {'fileName': 'squareblack.png', 'correct_response': 'right', 'condition': 'go'}, {'fileName': 'squareblack.png', 'correct_response': 'right', 'condition': 'go'}]",2554.65324703604,2554.65324703604,return,2.007519692182541,,,,,,,,,,,,,,,,,,,,,,,,,,,,,,,,,,,,,,,,,,,,,,,,,,,,,,,,,,,s031,001,2024-08-19_10h01.23.651,simplestop_skeleton,2022.2.2,59.89557145032964,
None,None,0,0,0,0,0,0,0,1,,,,,,,,,,,,,,,2556.7094471901655,2556.7094471901655,2610.1053288429976,stop,squareblack.png,right,0.35,2610.1273158937693,2610.1273158937693,2610.6281590014696,2610.6281590014696,2610.6281590014696,2610.978735104203,2611.4797687083483,2611.6296380981803,2612.630575053394,2612.630575053394,None,0,2612.630575053394,2612.630575053394,2613.1414626017213,2613.1414626017213,0.0024806633591651917,0.49632591754198074,0.8465389385819435,2613.115253560245,practice,1,,,,,,,,,,,,,,,,,,,,,,,,,,,,,,s031,001,2024-08-19_10h01.23.651,simplestop_skeleton,2022.2.2,59.89557145032964,
None,None,0,0,0,0,0,1,1,1,,,,,,,,,,,,,,,,,2613.1158155426383,go,circleblack.png,left,0.4,2613.1414626017213,2613.1414626017213,2613.6482689529657,2613.631457105279,2613.631457105279,2614.032192632556,2614.5476879253983,2614.631188236177,2615.633331552148,2615.6499678492546,left,1,2615.6499678492546,2615.6499678492546,,,0.008070521056652069,0.48943405598402023,0.889634408056736,2616.1352432966232,practice,1,0.41066113114356995,,,,,,,,,,,,,,,,,,,,,,,,,,,,,s031,001,2024-08-19_10h01.23.651,simplestop_skeleton,2022.2.2,59.89557145032964,
$currentCorrectResponse,$currentGoStim,0,0,0,0,0,2,2,0,,,,,,,,,,,,,,,,,2616.135673455894,go,squareblack.png,right,0.4,2616.155191361904,2616.155191361904,2616.668344825506,2616.6516284048557,2616.6516284048557,2617.052329495549,2617.5677527338266,2617.6518664360046,2618.653756469488,2618.670710347593,right,1,2618.670710347593,2618.670710347593,2619.1754254177213,2619.1754254177213,0.0016584545373916626,0.49018748104572296,0.8905395716428757,2619.155463695526,practice,1,0.289114311337471,,,,,,,,,,,,,,,,,,,,,,,,,,,,,s031,001,2024-08-19_10h01.23.651,simplestop_skeleton,2022.2.2,59.89557145032964,
None,None,0,0,0,0,0,3,3,2,,,,,,,,,,,,,,,,,2619.1559134423733,go,circleblack.png,left,0.4,2619.1754254177213,2619.1754254177213,2619.6883701756597,2619.6716766804457,2619.6716766804457,2620.072351641953,2620.5877884328365,2620.671734906733,2621.6739001348615,2621.6905027851462,left,1,2621.6905027851462,2621.6905027851462,2622.195431433618,2622.195431433618,0.001749470829963684,0.48991500586271286,0.8904968649148941,2622.1752796694636,practice,1,0.29307762533426285,,,,,,,,,,,,,,,,,,,,,,,,,,,,,s031,001,2024-08-19_10h01.23.651,simplestop_skeleton,2022.2.2,59.89557145032964,
None,None,0,0,0,0,1,0,4,3,,,,,,,,,,,,,,,,,2622.175701983273,go,circleblack.png,left,0.4,2622.195431433618,2622.195431433618,2622.7082302868366,2622.69175209105,2622.69175209105,2623.092024192214,2623.6076421290636,2623.691359974444,2624.6935407817364,2624.710249826312,right,0,2624.710249826312,2624.710249826312,,,0.0013514533638954163,0.4902818128466606,0.890325129032135,2625.194943614304,practice,1,0.351040318608284,,,,,,,,,,,,,,,,,,,,,,,,,,,,,s031,001,2024-08-19_10h01.23.651,simplestop_skeleton,2022.2.2,59.89557145032964,
None,None,0,0,0,0,1,1,5,3,,,,,,,,,,,,,,,,,2625.195375934243,go,circleblack.png,left,0.4,2625.2149198427796,2625.2149198427796,2625.728200227022,2625.7113337293267,2625.7113337293267,2626.111886560917,2626.6109225451946,2626.7112310901284,2627.7139075919986,2627.730274297297,left,1,2627.730274297297,2627.730274297297,2628.2351922914386,2628.2351922914386,0.0013078898191452026,0.4899989664554596,0.8902332186698914,2628.21525285393,practice,1,0.41003211587667465,,,,,,,,,,,,,,,,,,,,,,,,,,,,,s031,001,2024-08-19_10h01.23.651,simplestop_skeleton,2022.2.2,59.89557145032964,
None,None,0,0,0,0,1,2,6,2,,,,,,,,,,,,,,,,,2628.215719103813,go,squareblack.png,right,0.4,2628.2351922914386,2628.2351922914386,2628.7482975795865,2628.731542415917,2628.731542415917,2629.13216085732,2629.647701062262,2629.7312569394708,2630.733769528568,2630.750529870391,right,1,2630.750529870391,2630.750529870391,2631.254707567394,2631.254707567394,0.0017064809799194336,0.48984625190496445,0.8906054049730301,2631.2353059500456,practice,1,0.37169215828180313,,,,,,,,,,,,,,,,,,,,,,,,,,,,,s031,001,2024-08-19_10h01.23.651,simplestop_skeleton,2022.2.2,59.89557145032964,
None,None,0,0,0,0,1,3,7,3,,,,,,,,,,,,,,,,,2631.2357238531113,stop,squareblack.png,right,0.4,2631.254707567394,2631.254707567394,2631.7682555168867,2631.751863181591,2631.751863181591,2632.1524186059833,2632.667865604162,2632.7512343749404,2633.753704421222,2633.770262502134,right,1,2633.770262502134,2633.770262502134,2634.274996191263,2634.274996191263,0.001185871660709381,0.49009882658720016,0.8906975761055946,2634.255282342434,practice,1,0.40009409934282303,,,,,,,,,,,,,,,,,,,,,,,,,,,,,s031,001,2024-08-19_10h01.23.651,simplestop_skeleton,2022.2.2,59.89557145032964,
None,None,0,0,0,0,2,0,8,1,,,,,,,,,,,,,,,,,2634.2557056322694,go,squareblack.png,right,0.35,2634.274996191263,2634.274996191263,2634.788032628596,2634.77146332711,2634.77146332711,2635.121666394174,2635.6209187954664,2635.771073706448,2636.77377474308,2636.790421359241,right,1,2636.790421359241,2636.790421359241,2637.301011800766,2637.301011800766,0.0012928396463394165,0.48975513130426407,0.8401352316141129,2637.2753129824996,practice,1,0.4513283893465996,,,,,,,,,,,,,,,,,,,,,,,,,,,,,s031,001,2024-08-19_10h01.23.651,simplestop_skeleton,2022.2.2,59.89557145032964,
None,None,0,0,0,0,2,1,9,2,,,,,,,,,,,,,,,,,2637.2757344916463,stop,circleblack.png,left,0.35,2637.301011800766,2637.301011800766,2637.808019772172,2637.791462428868,2637.791462428868,2638.1419950276613,2638.6578838825226,2638.7911185771227,2639.7940165027976,2639.8103708177805,left,1,2639.8103708177805,2639.8103708177805,2640.315213136375,2640.315213136375,0.008332803845405579,0.489874504506588,0.8401942402124405,2640.29524037987,practice,1,0.3067096993327141,,,,,,,,,,,,,,,,,,,,,,,,,,,,,s031,001,2024-08-19_10h01.23.651,simplestop_skeleton,2022.2.2,59.89557145032964,
None,None,0,0,0,0,2,2,10,1,,,,,,,,,,,,,,,,,2640.2956678643823,stop,circleblack.png,left,0.3,2640.315213136375,2640.315213136375,2640.828187972307,2640.811303295195,2640.811303295195,2641.1117820218205,2641.610911026597,2641.8111719489098,2642.8136088848114,2642.830215409398,left,1,2642.830215409398,2642.830215409398,,,0.0014118552207946777,0.489858940243721,0.7899917140603065,2643.3150373846292,practice,1,0.3668069541454315,,,,,,,,,,,,,,,,,,,,,,,,,,,,,s031,001,2024-08-19_10h01.23.651,simplestop_skeleton,2022.2.2,59.89557145032964,
$currentCorrectResponse,$currentGoStim,0,0,0,0,2,3,11,0,,,,,,,,,,,,,,,,,2643.315475806594,go,squareblack.png,right,0.25,2643.3348919525743,2643.3348919525743,2643.84804943949,2643.8319274634123,2643.8319274634123,2644.0818147957325,2644.5827148407698,2644.831201285124,2645.833165936172,2645.8495828583837,right,1,2645.8495828583837,2645.8495828583837,,,0.0017560720443725586,0.49001891911029816,0.7402795106172562,2646.334960371256,practice,1,0.6351993456482887,,,,,,,,,,,,,,,,,,,,,,,,,,,,,s031,001,2024-08-19_10h01.23.651,simplestop_skeleton,2022.2.2,59.89557145032964,
None,None,0,0,0,0,3,0,12,1,,,,,,,,,,,,,,,,,2646.3353919684887,go,circleblack.png,left,0.25,2646.355068258941,2646.355068258941,2646.868486814201,2646.851512260735,2646.851512260735,2647.102059081197,2647.617550045252,2647.8511931672692,2648.8535743951797,2648.8703731149435,left,1,2648.8703731149435,2648.8703731149435,2649.375026643276,2649.375026643276,0.0018801763653755188,0.49039313197135925,0.7403307557106018,2649.355052821338,practice,1,0.3681623861193657,,,,,,,,,,,,,,,,,,,,,,,,,,,,,s031,001,2024-08-19_10h01.23.651,simplestop_skeleton,2022.2.2,59.89557145032964,
None,None,0,0,0,0,3,1,13,2,,,,,,,,,,,,,,,,,2649.3554965630174,stop,squareblack.png,right,0.25,2649.375026643276,2649.375026643276,2649.887980438769,2649.8714979216456,2649.8714979216456,2650.122255779803,2650.637445449829,2650.871343255043,2651.8739630281925,2651.8902705535293,right,1,2651.8902705535293,2651.8902705535293,2652.3947720974684,2652.3947720974684,0.0016973018646240234,0.4900754615664482,0.740418516099453,2652.3753808885813,practice,1,0.27770882099866867,,,,,,,,,,,,,,,,,,,,,,,,,,,,,s031,001,2024-08-19_10h01.23.651,simplestop_skeleton,2022.2.2,59.89557145032964,
$currentCorrectResponse,$currentGoStim,0,0,0,0,3,2,14,0,,,,,,,,,,,,,,,,,2652.375799484551,go,squareblack.png,right,0.2,2652.3947720974684,2652.3947720974684,2652.908194169402,2652.891431823373,2652.891431823373,2653.0917760506272,2653.592357508838,2653.8911768570542,2654.893832758069,2654.893832758069,right,1,2654.893832758069,2654.893832758069,2655.3984925448895,2655.3984925448895,0.0012510046362876892,0.48977233469486237,0.68984155356884,2655.378685720265,practice,1,0.43517976254224777,,,,,,,,,,,,,,,,,,,,,,,,,,,,,s031,001,2024-08-19_10h01.23.651,simplestop_skeleton,2022.2.2,59.89557145032964,
None,None,0,0,0,0,3,3,15,1,,,,,,,,,,,,,,,,,2655.3791064694524,go,squareblack.png,right,0.2,2655.3984925448895,2655.3984925448895,2655.911625556648,2655.895105533302,2655.895105533302,2656.0951477065682,2656.594202257693,2656.894463777542,2657.897210918367,2657.913810528815,right,1,2657.913810528815,2657.913810528815,2658.42409530282,2658.42409530282,0.0011952966451644897,0.490044541656971,0.6901286765933037,2658.3984183594584,practice,1,0.3058364763855934,,,,,,,,,,,,,,,,,,,,,,,,,,,,,s031,001,2024-08-19_10h01.23.651,simplestop_skeleton,2022.2.2,59.89557145032964,
None,None,0,0,0,0,4,0,16,3,,,,,,,,,,,,,,,,,2658.3988402858377,go,circleblack.png,left,0.2,2658.42409530282,2658.42409530282,2658.9316818788648,2658.914984948933,2658.914984948933,2659.114990822971,2659.614158809185,2659.9145983308554,2660.916828200221,2660.9330147206783,left,1,2660.9330147206783,2660.9330147206783,,,0.008359961211681366,0.49025067687034607,0.690476767718792,2661.418385207653,practice,1,0.32697657495737076,,,,,,,,,,,,,,,,,,,,,,,,,,,,,s031,001,2024-08-19_10h01.23.651,simplestop_skeleton,2022.2.2,59.89557145032964,
$currentCorrectResponse,$currentGoStim,0,0,0,0,4,1,17,0,,,,,,,,,,,,,,,,,2661.418813370168,go,squareblack.png,right,0.2,2661.4384950473905,2661.4384950473905,2661.9517522901297,2661.9350371435285,2661.9350371435285,2662.135000117123,2662.635603323579,2662.934927508235,2663.937220543623,2663.9536426886916,right,1,2663.9536426886916,2663.9536426886916,2664.4584711790085,2664.4584711790085,0.0017667487263679504,0.4903334900736809,0.6906086131930351,2664.438401401043,practice,1,0.3264182135462761,,,,,,,,,,,,,,,,,,,,,,,,,,,,,s031,001,2024-08-19_10h01.23.651,simplestop_skeleton,2022.2.2,59.89557145032964,
None,None,0,0,0,0,4,2,18,2,,,,,,,,,,,,,,,,,2664.438902772963,go,circleblack.png,left,0.2,2664.4584711790085,2664.4584711790085,2664.971310272813,2664.9545998573303,2664.9545998573303,2665.1548007577658,2665.654072023928,2665.9547784999013,2666.956843480468,2666.973519191146,left,1,2666.973519191146,2666.973519191146,2667.4785493314266,2667.4785493314266,0.0017843842506408691,0.49004125595092773,0.6901413053274155,2667.45862647146,practice,1,0.318265862762928,,,,,,,,,,,,,,,,,,,,,,,,,,,,,s031,001,2024-08-19_10h01.23.651,simplestop_skeleton,2022.2.2,59.89557145032964,
None,None,0,0,0,0,4,3,19,2,,,,,,,,,,,,,,,,,2667.4590507373214,go,squareblack.png,right,0.2,2667.4785493314266,2667.4785493314266,2667.9914113879204,2667.9746502265334,2667.9746502265334,2668.1749567613006,2668.674105025828,2668.975017271936,2669.9769608080387,2669.9937548711896,right,1,2669.9937548711896,2669.9937548711896,2670.498324945569,2670.498324945569,0.0016018003225326538,0.4897764176130295,0.6898296773433685,2670.478580981493,practice,1,0.2867893651127815,,,,,,,,,,,,,,,,,,,,,,,,,,,,,s031,001,2024-08-19_10h01.23.651,simplestop_skeleton,2022.2.2,59.89557145032964,
$currentCorrectResponse,$currentGoStim,0,0,0,0,5,0,20,0,,,,,,,,,,,,,,,,,2670.479019150138,go,circleblack.png,left,0.2,2670.498324945569,2670.498324945569,2671.0117405727506,2670.9946359097958,2670.9946359097958,2671.194859549403,2671.693997338414,2671.994358435273,2672.9970642626286,2673.0136385187507,left,1,2673.0136385187507,2673.0136385187507,2673.51846357435,2673.51846357435,0.0017175078392028809,0.4900355711579323,0.6901071593165398,2673.498640038073,practice,1,0.30781295895576477,,,,,,,,,,,,,,,,,,,,,,,,,,,,,s031,001,2024-08-19_10h01.23.651,simplestop_skeleton,2022.2.2,59.89557145032964,
$currentCorrectResponse,$currentGoStim,0,0,0,0,5,1,21,0,,,,,,,,,,,,,,,,,2673.49905577302,stop,circleblack.png,left,0.2,2673.51846357435,2673.51846357435,2674.0312856063247,2674.0147594437003,2674.0147594437003,2674.215063713491,2674.7154531776905,2675.0143866464496,2676.0169213563204,2676.033927001059,left,1,2676.033927001059,2676.033927001059,2676.5381755381823,2676.5381755381823,0.0012763068079948425,0.48988915234804153,0.6900550574064255,2676.518388144672,practice,1,0.4131916016340256,,,,,,,,,,,,,,,,,,,,,,,,,,,,,s031,001,2024-08-19_10h01.23.651,simplestop_skeleton,2022.2.2,59.89557145032964,
None,None,0,0,0,0,5,2,22,3,,,,,,,,,,,,,,,,,2676.5188103467226,stop,circleblack.png,left,0.15,2676.5381755381823,2676.5381755381823,2677.0516874939203,2677.03468310833,2677.03468310833,2677.184759013355,2677.6853982508183,2678.035749204457,2679.0370323956013,2679.0536368861794,None,0,2679.0536368861794,2679.0536368861794,2679.5584977716208,2679.5584977716208,0.0013378635048866272,0.490041546523571,0.6402409002184868,2679.538486227393,practice,1,,,,,,,,,,,,,,,,,,,,,,,,,,,,,,s031,001,2024-08-19_10h01.23.651,simplestop_skeleton,2022.2.2,59.89557145032964,
None,None,0,0,0,0,5,3,23,3,,,,,,,,,,,,,,,,,2679.5389118120074,stop,squareblack.png,right,0.2,2679.5584977716208,2679.5584977716208,2680.071376770735,2680.0547442659736,2680.0547442659736,2680.2550026252866,2680.7540302723646,2681.0545931234956,2682.0569249093533,2682.0736910179257,right,1,2682.0736910179257,2682.0736910179257,2682.575827933848,2682.575827933848,0.0017696917057037354,0.4898558631539345,0.6903235837817192,2682.558419533074,practice,1,0.31198006868362427,,,,,,,,,,,,,,,,,,,,,,,,,,,,,s031,001,2024-08-19_10h01.23.651,simplestop_skeleton,2022.2.2,59.89557145032964,
,,0,0,0,0,,,,,,,,,,,,,"[{'fileName': 'squareblack.png', 'correct_response': 'right', 'condition': 'stop'}, {'fileName': 'squareblack.png', 'correct_response': 'right', 'condition': 'stop'}, {'fileName': 'squareblack.png', 'correct_response': 'right', 'condition': 'go'}, {'fileName': 'circleblack.png', 'correct_response': 'left', 'condition': 'go'}, {'fileName': 'circleblack.png', 'correct_response': 'left', 'condition': 'go'}, {'fileName': 'squareblack.png', 'correct_response': 'right', 'condition': 'go'}, {'fileName': 'squareblack.png', 'correct_response': 'right', 'condition': 'go'}, {'fileName': 'circleblack.png', 'correct_response': 'left', 'condition': 'go'}, {'fileName': 'circleblack.png', 'correct_response': 'left', 'condition': 'stop'}, {'fileName': 'circleblack.png', 'correct_response': 'left', 'condition': 'go'}, {'fileName': 'squareblack.png', 'correct_response': 'right', 'condition': 'go'}, {'fileName': 'circleblack.png', 'correct_response': 'left', 'condition': 'stop'}, {'fileName': 'circleblack.png', 'correct_response': 'left', 'condition': 'go'}, {'fileName': 'circleblack.png', 'correct_response': 'left', 'condition': 'go'}, {'fileName': 'squareblack.png', 'correct_response': 'right', 'condition': 'go'}, {'fileName': 'squareblack.png', 'correct_response': 'right', 'condition': 'go'}, {'fileName': 'circleblack.png', 'correct_response': 'left', 'condition': 'go'}, {'fileName': 'squareblack.png', 'correct_response': 'right', 'condition': 'go'}, {'fileName': 'squareblack.png', 'correct_response': 'right', 'condition': 'go'}, {'fileName': 'circleblack.png', 'correct_response': 'left', 'condition': 'stop'}, {'fileName': 'circleblack.png', 'correct_response': 'left', 'condition': 'stop'}, {'fileName': 'squareblack.png', 'correct_response': 'right', 'condition': 'stop'}, {'fileName': 'circleblack.png', 'correct_response': 'left', 'condition': 'go'}, {'fileName': 'squareblack.png', 'correct_response': 'right', 'condition': 'stop'}]",,,,,,,,,,,,,,,,,,,,,,,,,,,,,,,,,,,,2682.575827933848,2682.575827933848,return,8.819899126887321,,,,,,,,,,,,,,,,,,,,,,,,,s031,001,2024-08-19_10h01.23.651,simplestop_skeleton,2022.2.2,59.89557145032964,
None,None,,,,,,,,,0,0,0,0,0,0,0,3,,,,,,,,,2697.5080035999417,go,circleblack.png,left,0.15,,,,,,,,,,,,,,,,,0.0031658485531806946,0.48915693163871765,,2700.0114345774055,test,1,,,,,,2691.4175085797906,2691.4175085797906,2697.529629819095,2698.0246078148484,2698.0246078148484,2698.041287831962,2698.174809113145,2698.6752573102713,2699.0255939736962,2700.0357816293836,left,1,0.43877343088388443,0.15,,,,,,,,,,,s031,001,2024-08-19_10h01.23.651,simplestop_skeleton,2022.2.2,59.89557145032964,
None,None,,,,,,,,,0,0,0,0,0,1,1,2,,,,,,,,,2700.0119820013642,stop,squareblack.png,right,0.15,,,,,,,,,,,,,,,,,0.0072365328669548035,0.48927393555641174,0.6394058763980865,2702.5143184512854,test,1,,,,,,,,2700.0357816293836,2700.527499459684,2700.527499459684,2700.544381558895,2700.6775483191013,2701.1780367791653,2701.527011498809,2702.533417508006,right,1,0.318764291703701,0.1,,,,,,,,,,,s031,001,2024-08-19_10h01.23.651,simplestop_skeleton,2022.2.2,59.89557145032964,
None,None,,,,,,,,,0,0,0,0,0,2,2,1,,,,,,,,,2702.5147618427873,go,squareblack.png,right,0.1,,,,,,,,,,,,,,,,,0.0014036446809768677,0.48925551772117615,,2705.0163462013006,test,1,,,,,,,,2702.533417508006,2703.0300991609693,2703.0300991609693,2703.046963147819,2703.130095049739,2703.6312878355384,2704.0298225581646,2705.0408059731126,right,1,0.3886167034506798,0.1,,,,,,,,,,,s031,001,2024-08-19_10h01.23.651,simplestop_skeleton,2022.2.2,59.89557145032964,
$currentCorrectResponse,$currentGoStim,,,,,,,,,0,0,0,0,0,3,3,0,,,,,,,,,2705.0167863965034,go,circleblack.png,left,0.1,,,,,,,,,,,,,,,,,0.007772959768772125,0.490125872194767,,2707.5197802856565,test,1,,,,,,,,2705.0408059731126,2705.5329170897603,2705.5329170897603,2705.549741715193,2705.632970534265,2706.1340954080224,2706.5325812622905,2707.5388342812657,left,1,0.34386153519153595,0.1,,,,,,,,,,,s031,001,2024-08-19_10h01.23.651,simplestop_skeleton,2022.2.2,59.89557145032964,
None,None,,,,,,,,,0,0,0,0,1,0,4,1,,,,,,,,,2707.520228199661,go,squareblack.png,right,0.1,,,,,,,,,,,,,,,,,0.0017577782273292542,0.48973647505044937,,2710.022171072662,test,1,,,,,,,,2707.5388342812657,2708.035684287548,2708.035684287548,2708.0522648990154,2708.1356516182423,2708.6348675116897,2709.035481221974,2710.0415796861053,right,1,0.284763440489769,0.1,,,,,,,,,,,s031,001,2024-08-19_10h01.23.651,simplestop_skeleton,2022.2.2,59.89557145032964,
$currentCorrectResponse,$currentGoStim,,,,,,,,,0,0,0,0,1,1,5,0,,,,,,,,,2710.022608079016,stop,circleblack.png,left,0.1,,,,,,,,,,,,,,,,,0.0018448904156684875,0.48968397825956345,0.5900255143642426,2712.5252300947905,test,1,,,,,,,,2710.0415796861053,2710.538361519575,2710.538361519575,2710.555026523769,2710.6385628953576,2711.137833930552,2711.5381089374423,2712.5447149574757,left,1,0.29227494448423386,0.05,,,,,,,,,,,s031,001,2024-08-19_10h01.23.651,simplestop_skeleton,2022.2.2,59.89557145032964,
None,None,,,,,,,,,0,0,0,0,1,2,6,2,,,,,,,,,2712.5256817266345,go,squareblack.png,right,0.05,,,,,,,,,,,,,,,,,0.0017572641372680664,0.48923342674970627,,2715.0276985540986,test,1,,,,,,,,2712.5447149574757,2713.041254475713,2713.041254475713,2713.057859428227,2713.091076001525,2713.5916890501976,2714.0408790782094,2715.0471772551537,right,1,0.27904651314020157,0.05,,,,,,,,,,,s031,001,2024-08-19_10h01.23.651,simplestop_skeleton,2022.2.2,59.89557145032964,
None,None,,,,,,,,,0,0,0,0,1,3,7,3,,,,,,,,,2715.028134584427,go,circleblack.png,left,0.05,,,,,,,,,,,,,,,,,0.001862853765487671,0.4895578846335411,,2717.5303537473083,test,1,,,,,,,,2715.0471772551537,2715.5440264865756,2715.5440264865756,2715.560513585806,2715.5937562584877,2716.0948759689927,2716.543504372239,2717.5492357090116,left,1,0.31143277138471603,0.05,,,,,,,,,,,s031,001,2024-08-19_10h01.23.651,simplestop_skeleton,2022.2.2,59.89557145032964,
None,None,,,,,,,,,0,0,0,0,2,0,8,2,,,,,,,,,2717.530789345503,stop,circleblack.png,left,0.05,,,,,,,,,,,,,,,,,0.0012832209467887878,0.4897654801607132,0.5399774685502052,2720.0333088114858,test,1,,,,,,,,2717.5492357090116,2718.0465209186077,2718.0465209186077,2718.0634198710322,2718.096727773547,2718.597077794373,2719.0478085651994,2720.0524066984653,None,0,,0.1,,,,,,,,,,,s031,001,2024-08-19_10h01.23.651,simplestop_skeleton,2022.2.2,59.89557145032964,
None,None,,,,,,,,,0,0,0,0,2,1,9,2,,,,,,,,,2720.033742889762,stop,squareblack.png,right,0.1,,,,,,,,,,,,,,,,,0.0017180442810058594,0.48968883603811264,0.5899890437722206,2722.5362304747105,test,1,,,,,,,,2720.0524066984653,2720.5493721440434,2720.5493721440434,2720.5660652667284,2720.649549499154,2721.1487488895655,2721.549054197967,2722.555275864899,right,1,0.2902803495526314,0.05,,,,,,,,,,,s031,001,2024-08-19_10h01.23.651,simplestop_skeleton,2022.2.2,59.89557145032964,
None,None,,,,,,,,,0,0,0,0,2,2,10,1,,,,,,,,,2722.536684766412,go,squareblack.png,right,0.05,,,,,,,,,,,,,,,,,0.0013195425271987915,0.48967842757701874,,2725.0385475829244,test,1,,,,,,,,2722.555275864899,2723.0521566569805,2723.0521566569805,2723.068882495165,2723.1023185029626,2723.6033745333552,2724.051936008036,2725.056220471859,right,1,0.5421570762991905,0.05,,,,,,,,,,,s031,001,2024-08-19_10h01.23.651,simplestop_skeleton,2022.2.2,59.89557145032964,
None,None,,,,,,,,,0,0,0,0,2,3,11,1,,,,,,,,,2725.0389951989055,go,circleblack.png,left,0.05,,,,,,,,,,,,,,,,,0.0020212605595588684,0.4899967536330223,,2727.5411828383803,test,1,,,,,,,,2725.056220471859,2725.5549357384443,2725.5549357384443,2725.5715842172503,2725.605042591691,2726.1055435687304,2726.5546729415655,2727.557706773281,left,1,0.4756042957305908,0.05,,,,,,,,,,,s031,001,2024-08-19_10h01.23.651,simplestop_skeleton,2022.2.2,59.89557145032964,
None,None,,,,,,,,,0,0,0,0,3,0,12,3,,,,,,,,,2727.5416235923767,go,circleblack.png,left,0.05,,,,,,,,,,,,,,,,,0.0012892037630081177,0.489980086684227,,2730.044427752495,test,1,,,,,,,,2727.557706773281,2728.0580438151956,2728.0580438151956,2728.0580438151956,2728.107798911631,2728.608685322106,2729.0574261397123,2730.063602462411,left,1,0.31010255217552185,0.05,,,,,,,,,,,s031,001,2024-08-19_10h01.23.651,simplestop_skeleton,2022.2.2,59.89557145032964,
$currentCorrectResponse,$currentGoStim,,,,,,,,,0,0,0,0,3,1,13,0,,,,,,,,,2730.0448770448565,stop,circleblack.png,left,0.05,,,,,,,,,,,,,,,,,0.0013546273112297058,0.48942214995622635,0.539512537419796,2732.5471286028624,test,1,,,,,,,,2730.063602462411,2730.5602569505572,2730.5602569505572,2730.5772232860327,2730.610510163009,2731.1109795346856,2731.561569288373,2732.5665099322796,None,0,,0.1,,,,,,,,,,,s031,001,2024-08-19_10h01.23.651,simplestop_skeleton,2022.2.2,59.89557145032964,
None,None,,,,,,,,,0,0,0,0,3,2,14,3,,,,,,,,,2732.5475617796183,go,squareblack.png,right,0.1,,,,,,,,,,,,,,,,,0.0017086565494537354,0.4896884188055992,,2735.0498290657997,test,1,,,,,,,,2732.5665099322796,2733.063038058579,2733.063038058579,2733.079948067665,2733.1632726937532,2733.6637839898467,2734.0628243014216,2735.0687069520354,right,1,0.3146635740995407,0.1,,,,,,,,,,,s031,001,2024-08-19_10h01.23.651,simplestop_skeleton,2022.2.2,59.89557145032964,
None,None,,,,,,,,,0,0,0,0,3,3,15,2,,,,,,,,,2735.05027474463,stop,squareblack.png,right,0.1,,,,,,,,,,,,,,,,,0.001257479190826416,0.48966139554977417,0.5899190306663513,2737.552388884127,test,1,,,,,,,,2735.0687069520354,2735.565982811153,2735.565982811153,2735.582773588598,2735.6661750897765,2736.167085789144,2736.5655585974455,2737.568544857204,right,1,0.3767438903450966,0.05,,,,,,,,,,,s031,001,2024-08-19_10h01.23.651,simplestop_skeleton,2022.2.2,59.89557145032964,
None,None,,,,,,,,,0,0,0,0,4,0,16,3,,,,,,,,,2737.552840538323,go,squareblack.png,right,0.05,,,,,,,,,,,,,,,,,0.001210331916809082,0.489864282310009,,2740.0548823550344,test,1,,,,,,,,2737.568544857204,2738.068556264043,2738.068556264043,2738.068556264043,2738.1187632009387,2738.6195008158684,2739.0684092491865,2740.0789057910442,right,1,0.47718339413404465,0.05,,,,,,,,,,,s031,001,2024-08-19_10h01.23.651,simplestop_skeleton,2022.2.2,59.89557145032964,
None,None,,,,,,,,,0,0,0,0,4,1,17,3,,,,,,,,,2740.0553315356374,go,circleblack.png,left,0.05,,,,,,,,,,,,,,,,,0.008788742125034332,0.49000440537929535,,2742.55759768188,test,1,,,,,,,,2740.0789057910442,2740.571359284222,2740.571359284222,2740.588517539203,2740.6214337721467,2741.1221401542425,2741.5711464732885,2742.575397744775,left,1,0.4409260079264641,0.05,,,,,,,,,,,s031,001,2024-08-19_10h01.23.651,simplestop_skeleton,2022.2.2,59.89557145032964,
None,None,,,,,,,,,0,0,0,0,4,2,18,2,,,,,,,,,2742.5580345392227,stop,squareblack.png,right,0.05,,,,,,,,,,,,,,,,,0.0016759559512138367,0.49007175862789154,0.5404071658849716,2745.061188824475,test,1,,,,,,,,2742.575397744775,2743.074075959623,2743.074075959623,2743.0910370498896,2743.1243421435356,2743.624961897731,2744.075350396335,2745.080559320748,None,0,,0.1,,,,,,,,,,,s031,001,2024-08-19_10h01.23.651,simplestop_skeleton,2022.2.2,59.89557145032964,
$currentCorrectResponse,$currentGoStim,,,,,,,,,0,0,0,0,4,3,19,0,,,,,,,,,2745.06162661314,go,squareblack.png,right,0.1,,,,,,,,,,,,,,,,,0.001421608030796051,0.489310160279274,,2747.5635482147336,test,1,,,,,,,,2745.080559320748,2745.5770279169083,2745.5770279169083,2745.593724437058,2745.6771911531687,2746.1783015727997,2746.576809152961,2747.5866998434067,left,0,0.4220491573214531,0.1,,,,,,,,,,,s031,001,2024-08-19_10h01.23.651,simplestop_skeleton,2022.2.2,59.89557145032964,
$currentCorrectResponse,$currentGoStim,,,,,,,,,0,0,0,0,5,0,20,0,,,,,,,,,2747.5640617012978,stop,circleblack.png,left,0.1,,,,,,,,,,,,,,,,,0.007853157818317413,0.4898669570684433,0.5898274555802345,2750.066425897181,test,1,,,,,,,,2747.5866998434067,2748.0798651501536,2748.0798651501536,2748.0967003405094,2748.1798581257463,2748.6791391521692,2749.0794138386846,2750.0852434039116,left,1,0.29556187987327576,0.05,,,,,,,,,,,s031,001,2024-08-19_10h01.23.651,simplestop_skeleton,2022.2.2,59.89557145032964,
None,None,,,,,,,,,0,0,0,0,5,1,21,2,,,,,,,,,2750.066859446466,go,circleblack.png,left,0.05,,,,,,,,,,,,,,,,,0.0013827681541442871,0.4895212650299072,,2752.5689218193293,test,1,,,,,,,,2750.0852434039116,2750.582544349134,2750.582544349134,2750.599121004343,2750.632528439164,2751.133433498442,2751.5821396782994,2752.5864821076393,left,1,0.4177241399884224,0.05,,,,,,,,,,,s031,001,2024-08-19_10h01.23.651,simplestop_skeleton,2022.2.2,59.89557145032964,
None,None,,,,,,,,,0,0,0,0,5,2,22,3,,,,,,,,,2752.5693610459566,go,squareblack.png,right,0.05,,,,,,,,,,,,,,,,,0.0017426535487174988,0.48970188200473785,,2755.072002775967,test,1,,,,,,,,2752.5864821076393,2753.085319004953,2753.085319004953,2753.1017854213715,2753.135480172932,2753.636410102248,2754.0849805623293,2755.091440051794,right,1,0.3219994083046913,0.05,,,,,,,,,,,s031,001,2024-08-19_10h01.23.651,simplestop_skeleton,2022.2.2,59.89557145032964,
None,None,,,,,,,,,0,0,0,0,5,3,23,1,,,,,,,,,2755.0724548324943,go,circleblack.png,left,0.05,,,,,,,,,,,,,,,,,0.001705065369606018,0.48956508189439774,,2757.5746438354254,test,1,,,,,,,,2755.091440051794,2755.588010676205,2755.588010676205,2755.6047658473253,2755.638117082417,2756.1387558057904,2756.587810829282,2757.594017520547,left,1,0.27626825869083405,0.05,,,,,,,,,,,s031,001,2024-08-19_10h01.23.651,simplestop_skeleton,2022.2.2,59.89557145032964,
None,None,,,,,,,,,0,0,0,0,6,0,24,1,,,,,,,,,2757.575079843402,go,squareblack.png,right,0.05,,,,,,,,,,,,,,,,,0.0017289593815803528,0.48960617184638977,,2760.077790811658,test,1,,,,,,,,2757.594017520547,2758.090822674334,2758.090822674334,2758.1074894741178,2758.14088960737,2758.642247095704,2759.0905759185553,2760.1013592779636,right,1,0.2932739704847336,0.05,,,,,,,,,,,s031,001,2024-08-19_10h01.23.651,simplestop_skeleton,2022.2.2,59.89557145032964,
None,None,,,,,,,,,0,0,0,0,6,1,25,1,,,,,,,,,2760.078256994486,go,circleblack.png,left,0.05,,,,,,,,,,,,,,,,,0.0026606768369674683,0.4858572781085968,,2762.580024123192,test,1,,,,,,,,2760.1013592779636,2760.593498520553,2760.593498520553,2760.6101927235723,2760.643523424864,2761.14449031651,2761.59319909662,2762.5994937568903,left,1,0.33508099615573883,0.05,,,,,,,,,,,s031,001,2024-08-19_10h01.23.651,simplestop_skeleton,2022.2.2,59.89557145032964,
None,None,,,,,,,,,0,0,0,0,6,2,26,2,,,,,,,,,2762.580481648445,stop,circleblack.png,left,0.05,,,,,,,,,,,,,,,,,0.001258261501789093,0.4898483082652092,0.5400947481393814,2765.0830512568355,test,1,,,,,,,,2762.5994937568903,2763.0964612811804,2763.0964612811804,2763.112856462598,2763.1463647410274,2763.6470777615905,2764.097538769245,2765.102204069495,None,0,,0.1,,,,,,,,,,,s031,001,2024-08-19_10h01.23.651,simplestop_skeleton,2022.2.2,59.89557145032964,
None,None,,,,,,,,,0,0,0,0,6,3,27,2,,,,,,,,,2765.083501704037,go,squareblack.png,right,0.1,,,,,,,,,,,,,,,,,0.001588769257068634,0.48947522789239883,,2767.5858067572117,test,1,,,,,,,,2765.102204069495,2765.598995536566,2765.598995536566,2765.615643814206,2765.6991981714964,2766.1999949216843,2766.5987925082445,2767.605266585946,right,1,0.29798829555511475,0.1,,,,,,,,,,,s031,001,2024-08-19_10h01.23.651,simplestop_skeleton,2022.2.2,59.89557145032964,
None,None,,,,,,,,,0,0,0,0,7,0,28,3,,,,,,,,,2767.5862672254443,stop,circleblack.png,left,0.1,,,,,,,,,,,,,,,,,0.0017557293176651,0.4897751733660698,0.5899839699268341,2770.087905474007,test,1,,,,,,,,2767.605266585946,2768.101806476712,2768.101806476712,2768.118386633694,2768.202030003071,2768.7028331011534,2769.101399704814,2770.1058313176036,left,1,0.3167010322213173,0.05,,,,,,,,,,,s031,001,2024-08-19_10h01.23.651,simplestop_skeleton,2022.2.2,59.89557145032964,
None,None,,,,,,,,,0,0,0,0,7,1,29,1,,,,,,,,,2770.088347584009,go,squareblack.png,right,0.05,,,,,,,,,,,,,,,,,0.00166282057762146,0.49034009873867035,,2772.5913788452744,test,1,,,,,,,,2770.1058313176036,2770.6046238020062,2770.6046238020062,2770.6211966350675,2770.654598802328,2771.1556209027767,2771.604333281517,2772.610579766333,right,1,0.3097527250647545,0.05,,,,,,,,,,,s031,001,2024-08-19_10h01.23.651,simplestop_skeleton,2022.2.2,59.89557145032964,
None,None,,,,,,,,,0,0,0,0,7,2,30,3,,,,,,,,,2772.5918923690915,go,squareblack.png,right,0.05,,,,,,,,,,,,,,,,,0.0013778209686279297,0.4895266517996788,,2775.0935131534934,test,1,,,,,,,,2772.610579766333,2773.107415162027,2773.107415162027,2773.1241761147976,2773.1574637517333,2773.6583684831858,2774.1070661991835,2775.1114124432206,right,1,0.43855271488428116,0.05,,,,,,,,,,,s031,001,2024-08-19_10h01.23.651,simplestop_skeleton,2022.2.2,59.89557145032964,
$currentCorrectResponse,$currentGoStim,,,,,,,,,0,0,0,0,7,3,31,0,,,,,,,,,2775.0939597710967,go,circleblack.png,left,0.05,,,,,,,,,,,,,,,,,0.0018672272562980652,0.4904465302824974,,2777.5965273603797,test,1,,,,,,,,2775.1114124432206,2775.6101470291615,2775.6101470291615,2775.6268017292023,2775.6602999940515,2776.161074668169,2776.6097646579146,2777.613849848509,left,1,0.39610639959573746,0.05,,,,,,,,,,,s031,001,2024-08-19_10h01.23.651,simplestop_skeleton,2022.2.2,59.89557145032964,
None,None,,,,,,,,,0,0,0,0,8,0,32,1,,,,,,,,,2777.596962377429,go,circleblack.png,left,0.05,,,,,,,,,,,,,,,,,0.001354217529296875,0.48966916650533676,,2780.0995193123817,test,1,,,,,,,,2777.613849848509,2778.11286303401,2778.11286303401,2778.129597865045,2778.163017615676,2778.6638369485736,2779.112496830523,2780.117351152003,left,1,0.39192648231983185,0.05,,,,,,,,,,,s031,001,2024-08-19_10h01.23.651,simplestop_skeleton,2022.2.2,59.89557145032964,
None,None,,,,,,,,,0,0,0,0,8,1,33,2,,,,,,,,,2780.099996343255,stop,squareblack.png,right,0.05,,,,,,,,,,,,,,,,,0.0018083974719047546,0.4891575500369072,0.5392970368266106,2782.602323643863,test,1,,,,,,,,2780.117351152003,2780.6155793070793,2780.6155793070793,2780.6322809010744,2780.665624126792,2781.1661850884557,2781.616715684533,2782.6217289343476,None,0,,0.1,,,,,,,,,,,s031,001,2024-08-19_10h01.23.651,simplestop_skeleton,2022.2.2,59.89557145032964,
None,None,,,,,,,,,0,0,0,0,8,2,34,3,,,,,,,,,2782.602752022445,go,circleblack.png,left,0.1,,,,,,,,,,,,,,,,,0.0018295645713806152,0.4896811619400978,,2785.104436941445,test,1,,,,,,,,2782.6217289343476,2783.1184104532003,2783.1184104532003,2783.134877935052,2783.2185526564717,2783.719578959048,2784.1181329861283,2785.121307902038,left,1,0.40241897851228714,0.1,,,,,,,,,,,s031,001,2024-08-19_10h01.23.651,simplestop_skeleton,2022.2.2,59.89557145032964,
None,None,,,,,,,,,0,0,0,0,8,3,35,3,,,,,,,,,2785.104890629649,stop,squareblack.png,right,0.1,,,,,,,,,,,,,,,,,0.001677297055721283,0.49023401737213135,0.5906079411506653,2787.6079967170954,test,1,,,,,,,,2785.121307902038,2785.6211638078094,2785.6211638078094,2785.6211638078094,2785.721261650324,2786.2219086438417,2786.622483305633,2787.6274167895317,None,0,,0.15,,,,,,,,,,,s031,001,2024-08-19_10h01.23.651,simplestop_skeleton,2022.2.2,59.89557145032964,
$currentCorrectResponse,$currentGoStim,,,,,,,,,0,0,0,0,9,0,36,0,,,,,,,,,2787.608438126743,stop,circleblack.png,left,0.15,,,,,,,,,,,,,,,,,0.001906655728816986,0.48970647901296616,0.6398634538054466,2790.1102028116584,test,1,,,,,,,,2787.6274167895317,2788.1239236593246,2788.1239236593246,2788.1407044678926,2788.2740476876497,2788.7749831154943,2789.1236431375146,2790.1279039904475,left,1,0.4738074764609337,0.1,,,,,,,,,,,s031,001,2024-08-19_10h01.23.651,simplestop_skeleton,2022.2.2,59.89557145032964,
None,None,,,,,,,,,0,0,0,0,9,1,37,1,,,,,,,,,2790.110664360225,stop,squareblack.png,right,0.1,,,,,,,,,,,,,,,,,0.001783415675163269,0.49029213935136795,0.5903324112296104,2792.6130825802684,test,1,,,,,,,,2790.1279039904475,2790.626822553575,2790.626822553575,2790.643810480833,2790.7267483472824,2791.227815017104,2791.6265603527427,2792.630688585341,right,1,0.4061153084039688,0.05,,,,,,,,,,,s031,001,2024-08-19_10h01.23.651,simplestop_skeleton,2022.2.2,59.89557145032964,
$currentCorrectResponse,$currentGoStim,,,,,,,,,0,0,0,0,9,2,38,0,,,,,,,,,2792.6135174036026,stop,circleblack.png,left,0.05,,,,,,,,,,,,,,,,,0.0018057078123092651,0.4902040660381317,0.5404689833521843,2795.1165080443025,test,1,,,,,,,,2792.630688585341,2793.129616238177,2793.129616238177,2793.146187737584,2793.1795951873064,2793.6801380440593,2794.1305438429117,2795.1356161534786,None,0,,0.1,,,,,,,,,,,s031,001,2024-08-19_10h01.23.651,simplestop_skeleton,2022.2.2,59.89557145032964,
None,None,,,,,,,,,0,0,0,0,9,3,39,2,,,,,,,,,2795.116944387555,stop,squareblack.png,right,0.1,,,,,,,,,,,,,,,,,0.0016450807452201843,0.48958270996809006,0.5898502841591835,2797.6192961856723,test,1,,,,,,,,2795.1356161534786,2795.632278740406,2795.632278740406,2795.6489570960402,2795.7324825897813,2796.2329601719975,2796.6333188563585,2797.6381763517857,None,0,,0.15,,,,,,,,,,,s031,001,2024-08-19_10h01.23.651,simplestop_skeleton,2022.2.2,59.89557145032964,
$currentCorrectResponse,$currentGoStim,,,,,,,,,0,0,0,0,10,0,40,0,,,,,,,,,2797.6197418794036,go,squareblack.png,right,0.15,,,,,,,,,,,,,,,,,0.0013002455234527588,0.4893353506922722,,2800.1212974712253,test,1,,,,,,,,2797.6381763517857,2798.1353797763586,2798.1353797763586,2798.1516291946173,2798.285089984536,2798.786119543016,2799.134710781276,2800.1381428316236,left,0,0.3922785744071007,0.15,,,,,,,,,,,s031,001,2024-08-19_10h01.23.651,simplestop_skeleton,2022.2.2,59.89557145032964,
$currentCorrectResponse,$currentGoStim,,,,,,,,,0,0,0,0,10,1,41,0,,,,,,,,,2800.121748201549,go,squareblack.png,right,0.15,,,,,,,,,,,,,,,,,0.001217961311340332,0.4899781122803688,,2802.6241906434298,test,1,,,,,,,,2800.1381428316236,2800.637741662562,2800.637741662562,2800.637741662562,2800.788094751537,2801.288817025721,2801.6376189142466,2802.6444411054254,right,1,0.43872906267642975,0.15,,,,,,,,,,,s031,001,2024-08-19_10h01.23.651,simplestop_skeleton,2022.2.2,59.89557145032964,
None,None,,,,,,,,,0,0,0,0,10,2,42,2,,,,,,,,,2802.624631740153,go,circleblack.png,left,0.15,,,,,,,,,,,,,,,,,0.005278050899505615,0.48990535736083984,,2805.1269764900208,test,1,,,,,,,,2802.6444411054254,2803.140484727919,2803.140484727919,2803.1572250425816,2803.2908051088452,2803.790029928088,2804.1401874423027,2805.1438799500465,left,1,0.3512133061885834,0.15,,,,,,,,,,,s031,001,2024-08-19_10h01.23.651,simplestop_skeleton,2022.2.2,59.89557145032964,
$currentCorrectResponse,$currentGoStim,,,,,,,,,0,0,0,0,10,3,43,0,,,,,,,,,2805.127417422831,go,circleblack.png,left,0.15,,,,,,,,,,,,,,,,,0.0012665092945098877,0.4899831861257553,,2807.6295344159007,test,1,,,,,,,,2805.1438799500465,2805.6434870809317,2805.6434870809317,2805.6434870809317,2805.794017352164,2806.294446028769,2806.642986923456,2807.6467321515083,left,1,0.4195351079106331,0.15,,,,,,,,,,,s031,001,2024-08-19_10h01.23.651,simplestop_skeleton,2022.2.2,59.89557145032964,
$currentCorrectResponse,$currentGoStim,,,,,,,,,0,0,0,0,11,0,44,0,,,,,,,,,2807.6299832761288,go,circleblack.png,left,0.15,,,,,,,,,,,,,,,,,0.0012675672769546509,0.49031929671764374,,2810.1325972378254,test,1,,,,,,,,2807.6467321515083,2808.146106533706,2808.146106533706,2808.146106533706,2808.296374902129,2808.796869494021,2809.145726054907,2810.149603717029,left,1,0.36118342727422714,0.15,,,,,,,,,,,s031,001,2024-08-19_10h01.23.651,simplestop_skeleton,2022.2.2,59.89557145032964,
None,None,,,,,,,,,0,0,0,0,11,1,45,3,,,,,,,,,2810.1330990344286,go,circleblack.png,left,0.15,,,,,,,,,,,,,,,,,0.001244857907295227,0.48979105800390244,,2812.634587712586,test,1,,,,,,,,2810.149603717029,2810.6488075256348,2810.6488075256348,2810.6488075256348,2810.7991884425282,2811.2999822869897,2811.648652203381,2812.657664857805,left,1,0.36890197545289993,0.15,,,,,,,,,,,s031,001,2024-08-19_10h01.23.651,simplestop_skeleton,2022.2.2,59.89557145032964,
None,None,,,,,,,,,0,0,0,0,11,2,46,1,,,,,,,,,2812.6350396052003,go,squareblack.png,right,0.15,,,,,,,,,,,,,,,,,0.007635548710823059,0.49057091772556305,,2815.1375316530466,test,1,,,,,,,,2812.657664857805,2813.151556663215,2813.151556663215,2813.168401554227,2813.3016854971647,2813.8027414232492,2814.151288546622,2815.1548883765936,right,1,0.3848046734929085,0.15,,,,,,,,,,,s031,001,2024-08-19_10h01.23.651,simplestop_skeleton,2022.2.2,59.89557145032964,
None,None,,,,,,,,,0,0,0,0,11,3,47,1,,,,,,,,,2815.137967184186,go,squareblack.png,right,0.15,,,,,,,,,,,,,,,,,0.0012073293328285217,0.4903600439429283,,2817.6407086253166,test,1,,,,,,,,2815.1548883765936,2815.6544778496027,2815.6544778496027,2815.6544778496027,2815.8052725344896,2816.3202743530273,2816.654038541019,2817.6675277352333,right,1,0.3207502216100693,0.15,,,,,,,,,,,s031,001,2024-08-19_10h01.23.651,simplestop_skeleton,2022.2.2,59.89557145032964,
,,,,,,,,,,0,0,0,0,,,,,,"[{'fileName': 'squareblack.png', 'correct_response': 'right', 'condition': 'stop'}, {'fileName': 'circleblack.png', 'correct_response': 'left', 'condition': 'go'}, {'fileName': 'squareblack.png', 'correct_response': 'right', 'condition': 'go'}, {'fileName': 'circleblack.png', 'correct_response': 'left', 'condition': 'stop'}, {'fileName': 'circleblack.png', 'correct_response': 'left', 'condition': 'go'}, {'fileName': 'circleblack.png', 'correct_response': 'left', 'condition': 'stop'}, {'fileName': 'circleblack.png', 'correct_response': 'left', 'condition': 'go'}, {'fileName': 'squareblack.png', 'correct_response': 'right', 'condition': 'go'}, {'fileName': 'squareblack.png', 'correct_response': 'right', 'condition': 'go'}, {'fileName': 'squareblack.png', 'correct_response': 'right', 'condition': 'go'}, {'fileName': 'squareblack.png', 'correct_response': 'right', 'condition': 'stop'}, {'fileName': 'circleblack.png', 'correct_response': 'left', 'condition': 'go'}, {'fileName': 'circleblack.png', 'correct_response': 'left', 'condition': 'stop'}, {'fileName': 'circleblack.png', 'correct_response': 'left', 'condition': 'go'}, {'fileName': 'squareblack.png', 'correct_response': 'right', 'condition': 'stop'}, {'fileName': 'squareblack.png', 'correct_response': 'right', 'condition': 'go'}, {'fileName': 'squareblack.png', 'correct_response': 'right', 'condition': 'go'}, {'fileName': 'squareblack.png', 'correct_response': 'right', 'condition': 'stop'}, {'fileName': 'squareblack.png', 'correct_response': 'right', 'condition': 'go'}, {'fileName': 'circleblack.png', 'correct_response': 'left', 'condition': 'go'}, {'fileName': 'squareblack.png', 'correct_response': 'right', 'condition': 'go'}, {'fileName': 'circleblack.png', 'correct_response': 'left', 'condition': 'stop'}, {'fileName': 'circleblack.png', 'correct_response': 'left', 'condition': 'go'}, {'fileName': 'circleblack.png', 'correct_response': 'left', 'condition': 'go'}, {'fileName': 'squareblack.png', 'correct_response': 'right', 'condition': 'go'}, {'fileName': 'circleblack.png', 'correct_response': 'left', 'condition': 'go'}, {'fileName': 'squareblack.png', 'correct_response': 'right', 'condition': 'stop'}, {'fileName': 'squareblack.png', 'correct_response': 'right', 'condition': 'stop'}, {'fileName': 'squareblack.png', 'correct_response': 'right', 'condition': 'go'}, {'fileName': 'circleblack.png', 'correct_response': 'left', 'condition': 'stop'}, {'fileName': 'circleblack.png', 'correct_response': 'left', 'condition': 'stop'}, {'fileName': 'squareblack.png', 'correct_response': 'right', 'condition': 'go'}, {'fileName': 'circleblack.png', 'correct_response': 'left', 'condition': 'go'}, {'fileName': 'squareblack.png', 'correct_response': 'right', 'condition': 'go'}, {'fileName': 'circleblack.png', 'correct_response': 'left', 'condition': 'go'}, {'fileName': 'circleblack.png', 'correct_response': 'left', 'condition': 'go'}, {'fileName': 'squareblack.png', 'correct_response': 'right', 'condition': 'go'}, {'fileName': 'squareblack.png', 'correct_response': 'right', 'condition': 'go'}, {'fileName': 'circleblack.png', 'correct_response': 'left', 'condition': 'go'}, {'fileName': 'squareblack.png', 'correct_response': 'right', 'condition': 'go'}, {'fileName': 'circleblack.png', 'correct_response': 'left', 'condition': 'go'}, {'fileName': 'squareblack.png', 'correct_response': 'right', 'condition': 'go'}, {'fileName': 'squareblack.png', 'correct_response': 'right', 'condition': 'stop'}, {'fileName': 'circleblack.png', 'correct_response': 'left', 'condition': 'stop'}, {'fileName': 'circleblack.png', 'correct_response': 'left', 'condition': 'go'}, {'fileName': 'squareblack.png', 'correct_response': 'right', 'condition': 'stop'}, {'fileName': 'circleblack.png', 'correct_response': 'left', 'condition': 'go'}, {'fileName': 'circleblack.png', 'correct_response': 'left', 'condition': 'stop'}]",,,,,,,,,,,,,,,,,,,,,,,,,,,,,,,,,,,,,,,,,,,,,,,,,,,,,2817.6675277352333,2817.6675277352333,return,24.57098890095949,,,,,,,s031,001,2024-08-19_10h01.23.651,simplestop_skeleton,2022.2.2,59.89557145032964,
None,None,,,,,,,,,1,0,1,0,0,0,0,2,,,,,,,,,2842.2748479396105,stop,squareblack.png,right,0.15,,,,,,,,,,,,,,,,,0.0018782392144203186,0.49881818145513535,0.6490083709359169,2844.7878310754895,test,2,,,,,,,,2842.2954123541713,2842.8008634522557,2842.8008634522557,2842.8008634522557,2842.9513130635023,2843.4517107084394,2843.802350707352,2844.813487738371,None,0,,0.2,,,,,,,,,,,s031,001,2024-08-19_10h01.23.651,simplestop_skeleton,2022.2.2,59.89557145032964,
None,None,,,,,,,,,1,0,1,0,0,1,1,2,,,,,,,,,2844.7883875370026,go,circleblack.png,left,0.2,,,,,,,,,,,,,,,,,0.008898422122001648,0.489513523876667,,2847.289794124663,test,2,,,,,,,,2844.813487738371,2845.3037065714598,2845.3037065714598,2845.3205632045865,2845.5041227936745,2846.0198779702187,2846.303470171988,2847.3079025894403,left,1,0.31776776909828186,0.2,,,,,,,,,,,s031,001,2024-08-19_10h01.23.651,simplestop_skeleton,2022.2.2,59.89557145032964,
None,None,,,,,,,,,1,0,1,0,0,2,2,3,,,,,,,,,2847.2902266308665,go,squareblack.png,right,0.2,,,,,,,,,,,,,,,,,0.0017522424459457397,0.4901762381196022,,2849.7927794232965,test,2,,,,,,,,2847.3079025894403,2847.8065548166633,2847.8065548166633,2847.823178268969,2848.0067514553666,2848.505938708782,2848.8060057088733,2849.8109552562237,right,1,0.3048107773065567,0.2,,,,,,,,,,,s031,001,2024-08-19_10h01.23.651,simplestop_skeleton,2022.2.2,59.89557145032964,
None,None,,,,,,,,,1,0,1,0,0,3,3,1,,,,,,,,,2849.793223515153,stop,circleblack.png,left,0.2,,,,,,,,,,,,,,,,,0.001980431377887726,0.489191472530365,0.6895337700843811,2852.295155160129,test,2,,,,,,,,2849.8109552562237,2850.3092321008444,2850.3092321008444,2850.325757019222,2850.5093168392777,2851.008481308818,2851.3088501244783,2852.3126122951508,left,1,0.30604326725006104,0.15,,,,,,,,,,,s031,001,2024-08-19_10h01.23.651,simplestop_skeleton,2022.2.2,59.89557145032964,
None,None,,,,,,,,,1,0,1,0,1,0,4,3,,,,,,,,,2852.29560110718,go,circleblack.png,left,0.15,,,,,,,,,,,,,,,,,0.0012910589575767517,0.4904806688427925,,2854.798421896994,test,2,,,,,,,,2852.3126122951508,2852.811978958547,2852.811978958547,2852.811978958547,2852.961971819401,2853.463038675487,2853.811600923538,2854.8150868043303,left,1,0.4661029651761055,0.15,,,,,,,,,,,s031,001,2024-08-19_10h01.23.651,simplestop_skeleton,2022.2.2,59.89557145032964,
None,None,,,,,,,,,1,0,1,0,1,1,5,2,,,,,,,,,2854.7988723516464,stop,circleblack.png,left,0.15,,,,,,,,,,,,,,,,,0.0012539997696876526,0.4900921881198883,0.6402564570307732,2857.3007730841637,test,2,,,,,,,,2854.8150868043303,2855.3148421645164,2855.3148421645164,2855.3148421645164,2855.4649089947343,2855.964357085526,2856.3143826574087,2857.3178150579333,right,0,0.3301263898611069,0.1,,,,,,,,,,,s031,001,2024-08-19_10h01.23.651,simplestop_skeleton,2022.2.2,59.89557145032964,
None,None,,,,,,,,,1,0,1,0,1,2,6,3,,,,,,,,,2857.3012171164155,go,circleblack.png,left,0.1,,,,,,,,,,,,,,,,,0.0012733861804008484,0.49039750546216965,,2859.803465001285,test,2,,,,,,,,2857.3178150579333,2857.817597605288,2857.817597605288,2857.817597605288,2857.9175778478384,2858.418703980744,2858.81716837734,2859.826124109328,left,1,0.40103884041309357,0.1,,,,,,,,,,,s031,001,2024-08-19_10h01.23.651,simplestop_skeleton,2022.2.2,59.89557145032964,
None,None,,,,,,,,,1,0,1,0,1,3,7,3,,,,,,,,,2859.8039062172174,go,squareblack.png,right,0.1,,,,,,,,,,,,,,,,,0.0072799623012542725,0.4905772805213928,,2862.3065754398704,test,2,,,,,,,,2859.826124109328,2860.320358969271,2860.320358969271,2860.3370309844613,2860.420377343893,2860.921726234257,2861.319921553135,2862.3232487291098,right,1,0.46107496321201324,0.1,,,,,,,,,,,s031,001,2024-08-19_10h01.23.651,simplestop_skeleton,2022.2.2,59.89557145032964,
None,None,,,,,,,,,1,0,1,0,2,0,8,2,,,,,,,,,2862.3070142641664,go,squareblack.png,right,0.1,,,,,,,,,,,,,,,,,0.0012086257338523865,0.49012014269828796,,2864.809250280261,test,2,,,,,,,,2862.3232487291098,2862.8229969739914,2862.8229969739914,2862.8229969739914,2862.9233083873987,2863.42403229326,2863.822639860213,2864.8255250677466,right,1,0.40326256304979324,0.1,,,,,,,,,,,s031,001,2024-08-19_10h01.23.651,simplestop_skeleton,2022.2.2,59.89557145032964,
$currentCorrectResponse,$currentGoStim,,,,,,,,,1,0,1,0,2,1,9,0,,,,,,,,,2864.8096912279725,go,squareblack.png,right,0.1,,,,,,,,,,,,,,,,,0.0012187361717224121,0.49006278812885284,,2867.3116854950786,test,2,,,,,,,,2864.8255250677466,2865.325668938458,2865.325668938458,2865.325668938458,2865.426082678139,2865.9269864186645,2866.3253491297364,2867.328819155693,right,1,0.4179394543170929,0.1,,,,,,,,,,,s031,001,2024-08-19_10h01.23.651,simplestop_skeleton,2022.2.2,59.89557145032964,
None,None,,,,,,,,,1,0,1,0,2,2,10,1,,,,,,,,,2867.312121294439,stop,squareblack.png,right,0.1,,,,,,,,,,,,,,,,,0.0011948943138122559,0.48904386907815933,0.5891053676605225,2869.814986169338,test,2,,,,,,,,2867.328819155693,2867.8270684853196,2867.8270684853196,2867.8437313213944,2867.927186012268,2868.4277307614684,2868.8313049152493,2869.839761927724,None,0,,0.15,,,,,,,,,,,s031,001,2024-08-19_10h01.23.651,simplestop_skeleton,2022.2.2,59.89557145032964,
$currentCorrectResponse,$currentGoStim,,,,,,,,,1,0,1,0,2,3,11,0,,,,,,,,,2869.815437503159,go,circleblack.png,left,0.15,,,,,,,,,,,,,,,,,0.007953770458698273,0.4897541180253029,,2872.3174173012376,test,2,,,,,,,,2869.839761927724,2870.3311972618103,2870.3311972618103,2870.3479426279664,2870.4813840016723,2870.9823785424232,2871.3309251219034,2872.33479501307,left,1,0.3678205907344818,0.15,,,,,,,,,,,s031,001,2024-08-19_10h01.23.651,simplestop_skeleton,2022.2.2,59.89557145032964,
None,None,,,,,,,,,1,0,1,0,3,0,12,2,,,,,,,,,2872.3178620934486,stop,circleblack.png,left,0.15,,,,,,,,,,,,,,,,,0.0012828335165977478,0.4902275502681732,0.6403658986091614,2874.8204223290086,test,2,,,,,,,,2872.33479501307,2872.8339050114155,2872.8339050114155,2872.8339050114155,2872.9841411709785,2873.4834978729486,2873.833735652268,2874.8369896933436,left,1,0.33358830213546753,0.1,,,,,,,,,,,s031,001,2024-08-19_10h01.23.651,simplestop_skeleton,2022.2.2,59.89557145032964,
None,None,,,,,,,,,1,0,1,0,3,1,13,1,,,,,,,,,2874.820910654962,go,circleblack.png,left,0.1,,,,,,,,,,,,,,,,,0.0012877434492111206,0.4900013878941536,,2877.323136113584,test,2,,,,,,,,2874.8369896933436,2875.336875550449,2875.336875550449,2875.336875550449,2875.4368716031313,2875.937767535448,2876.3363729417324,2877.3407173603773,left,1,0.42192287743091583,0.1,,,,,,,,,,,s031,001,2024-08-19_10h01.23.651,simplestop_skeleton,2022.2.2,59.89557145032964,
None,None,,,,,,,,,1,0,1,0,3,2,14,3,,,,,,,,,2877.3235850036144,stop,squareblack.png,right,0.1,,,,,,,,,,,,,,,,,0.001735098659992218,0.48992224782705307,0.5902107432484627,2879.8262589648366,test,2,,,,,,,,2877.3407173603773,2877.8395726829767,2877.8395726829767,2877.8562484011054,2877.9396252408624,2878.440204501152,2878.8408103585243,2879.8452009409666,None,0,,0.15,,,,,,,,,,,s031,001,2024-08-19_10h01.23.651,simplestop_skeleton,2022.2.2,59.89557145032964,
None,None,,,,,,,,,1,0,1,0,3,3,15,1,,,,,,,,,2879.8266867920756,go,squareblack.png,right,0.15,,,,,,,,,,,,,,,,,0.001362137496471405,0.48975062370300293,,2882.3283654004335,test,2,,,,,,,,2879.8452009409666,2880.3427602499723,2880.3427602499723,2880.359265767038,2880.4928033277392,2880.993683926761,2881.3420424461365,2882.3458487018943,right,1,0.3795795738697052,0.15,,,,,,,,,,,s031,001,2024-08-19_10h01.23.651,simplestop_skeleton,2022.2.2,59.89557145032964,
None,None,,,,,,,,,1,0,1,0,4,0,16,2,,,,,,,,,2882.328813031316,go,squareblack.png,right,0.15,,,,,,,,,,,,,,,,,0.0012845098972320557,0.4903259128332138,,2884.831117577851,test,2,,,,,,,,2882.3458487018943,2882.8451269492507,2882.8451269492507,2882.8451269492507,2882.995245732367,2883.4963256269693,2883.844778597355,2884.848274037242,right,1,0.389697328209877,0.15,,,,,,,,,,,s031,001,2024-08-19_10h01.23.651,simplestop_skeleton,2022.2.2,59.89557145032964,
$currentCorrectResponse,$currentGoStim,,,,,,,,,1,0,1,0,4,1,17,0,,,,,,,,,2884.831551961601,stop,squareblack.png,right,0.15,,,,,,,,,,,,,,,,,0.0011960342526435852,0.4902801066637039,0.640452429652214,2887.333344563842,test,2,,,,,,,,2884.848274037242,2885.3477936312556,2885.3477936312556,2885.3477936312556,2885.498027689755,2885.9988911524415,2886.34745387733,2887.3500960841775,right,1,0.503923662006855,0.1,,,,,,,,,,,s031,001,2024-08-19_10h01.23.651,simplestop_skeleton,2022.2.2,59.89557145032964,
None,None,,,,,,,,,1,0,1,0,4,2,18,3,,,,,,,,,2887.3338972702622,go,squareblack.png,right,0.1,,,,,,,,,,,,,,,,,0.0012491047382354736,0.49075503647327423,,2889.836572960019,test,2,,,,,,,,2887.3500960841775,2887.8504747375846,2887.8504747375846,2887.8504747375846,2887.950680859387,2888.4516524896026,2888.850296445191,2889.855938464403,right,1,0.38569503277540207,0.1,,,,,,,,,,,s031,001,2024-08-19_10h01.23.651,simplestop_skeleton,2022.2.2,59.89557145032964,
None,None,,,,,,,,,1,0,1,0,4,3,19,2,,,,,,,,,2889.8370172306895,go,circleblack.png,left,0.1,,,,,,,,,,,,,,,,,0.0037958472967147827,0.49017612636089325,,2892.3396080881357,test,2,,,,,,,,2889.855938464403,2890.353455044329,2890.353455044329,2890.370008006692,2890.4535626992583,2890.9543472900987,2891.3530116975307,2892.357036277652,left,1,0.3931201994419098,0.1,,,,,,,,,,,s031,001,2024-08-19_10h01.23.651,simplestop_skeleton,2022.2.2,59.89557145032964,
None,None,,,,,,,,,1,0,1,0,5,0,20,3,,,,,,,,,2892.340076930821,go,squareblack.png,right,0.1,,,,,,,,,,,,,,,,,0.0017862021923065186,0.4900342971086502,,2894.842615276575,test,2,,,,,,,,2892.357036277652,2892.8560639098287,2892.8560639098287,2892.8560639098287,2892.956407316029,2893.4573140069842,2893.8557735159993,2894.859948374331,right,1,0.42762085050344467,0.1,,,,,,,,,,,s031,001,2024-08-19_10h01.23.651,simplestop_skeleton,2022.2.2,59.89557145032964,
None,None,,,,,,,,,1,0,1,0,5,1,21,2,,,,,,,,,2894.8430659025908,stop,circleblack.png,left,0.1,,,,,,,,,,,,,,,,,0.0017174333333969116,0.48999373614788055,0.5898981466889381,2897.345834136009,test,2,,,,,,,,2894.859948374331,2895.359140768647,2895.359140768647,2895.359140768647,2895.4589855596423,2895.9595330655575,2896.359815314412,2897.3649632409215,None,0,,0.15,,,,,,,,,,,s031,001,2024-08-19_10h01.23.651,simplestop_skeleton,2022.2.2,59.89557145032964,
$currentCorrectResponse,$currentGoStim,,,,,,,,,1,0,1,0,5,2,22,0,,,,,,,,,2897.346267707646,go,circleblack.png,left,0.15,,,,,,,,,,,,,,,,,0.0013595744967460632,0.48795586079359055,,2899.8483325839043,test,2,,,,,,,,2897.3649632409215,2897.8601972833276,2897.8601972833276,2897.8768834993243,2898.010505333543,2898.5109396651387,2898.8634500578046,2899.8673378899693,left,1,0.3931480199098587,0.15,,,,,,,,,,,s031,001,2024-08-19_10h01.23.651,simplestop_skeleton,2022.2.2,59.89557145032964,
$currentCorrectResponse,$currentGoStim,,,,,,,,,1,0,1,0,5,3,23,0,,,,,,,,,2899.8487583994865,go,circleblack.png,left,0.15,,,,,,,,,,,,,,,,,0.0013838335871696472,0.48965518176555634,,2902.3503995910287,test,2,,,,,,,,2899.8673378899693,2900.3647377490997,2900.3647377490997,2900.3812016248703,2900.5145179331303,2901.015523388982,2901.3640920445323,2902.370172433555,left,1,0.41755928099155426,0.15,,,,,,,,,,,s031,001,2024-08-19_10h01.23.651,simplestop_skeleton,2022.2.2,59.89557145032964,
None,None,,,,,,,,,1,0,1,0,6,0,24,3,,,,,,,,,2902.350844360888,go,squareblack.png,right,0.15,,,,,,,,,,,,,,,,,0.0043496862053871155,0.49031663686037064,,2904.8536354601383,test,2,,,,,,,,2902.370172433555,2902.8671459406614,2902.8671459406614,2902.8838073015213,2903.017197817564,2903.5164321810007,2903.867165878415,2904.8709663674235,right,1,0.2905304431915283,0.15,,,,,,,,,,,s031,001,2024-08-19_10h01.23.651,simplestop_skeleton,2022.2.2,59.89557145032964,
None,None,,,,,,,,,1,0,1,0,6,1,25,3,,,,,,,,,2904.8540731072426,go,circleblack.png,left,0.15,,,,,,,,,,,,,,,,,0.001823529601097107,0.4899628162384033,,2907.356001138687,test,2,,,,,,,,2904.8709663674235,2905.3699055314064,2905.3699055314064,2905.3865738883615,2905.5201437026262,2906.0210872516036,2906.3695576786995,2907.373594738543,left,1,0.368232399225235,0.15,,,,,,,,,,,s031,001,2024-08-19_10h01.23.651,simplestop_skeleton,2022.2.2,59.89557145032964,
None,None,,,,,,,,,1,0,1,0,6,2,26,2,,,,,,,,,2907.3564351946115,stop,squareblack.png,right,0.15,,,,,,,,,,,,,,,,,0.001616351306438446,0.490271620452404,0.6404852047562599,2909.859611004591,test,2,,,,,,,,2907.373594738543,2907.872518323362,2907.872518323362,2907.872518323362,2908.022767804563,2908.523469902575,2908.873966000974,2909.8784289881587,None,0,,0.2,,,,,,,,,,,s031,001,2024-08-19_10h01.23.651,simplestop_skeleton,2022.2.2,59.89557145032964,
None,None,,,,,,,,,1,0,1,0,6,3,27,1,,,,,,,,,2909.8600526601076,stop,squareblack.png,right,0.2,,,,,,,,,,,,,,,,,0.0012634694576263428,0.4895939230918884,0.6898234486579895,2912.361359797418,test,2,,,,,,,,2909.8784289881587,2910.3756352439523,2910.3756352439523,2910.3921620622277,2910.5760048255324,2911.075072772801,2911.375216126442,2912.3787937387824,right,1,0.3909253552556038,0.15,,,,,,,,,,,s031,001,2024-08-19_10h01.23.651,simplestop_skeleton,2022.2.2,59.89557145032964,
$currentCorrectResponse,$currentGoStim,,,,,,,,,1,0,1,0,7,0,28,0,,,,,,,,,2912.361805766821,go,squareblack.png,right,0.15,,,,,,,,,,,,,,,,,0.0011989399790763855,0.4904293864965439,,2914.866087600589,test,2,,,,,,,,2912.3787937387824,2912.878941833973,2912.878941833973,2912.878941833973,2913.0284032970667,2913.5293239429593,2913.8945340141654,2914.8843125477433,right,1,0.4462929293513298,0.15,,,,,,,,,,,s031,001,2024-08-19_10h01.23.651,simplestop_skeleton,2022.2.2,59.89557145032964,
$currentCorrectResponse,$currentGoStim,,,,,,,,,1,0,1,0,7,1,29,0,,,,,,,,,2914.866532564163,stop,circleblack.png,left,0.15,,,,,,,,,,,,,,,,,0.002536781132221222,0.4880850613117218,0.6385703533887863,2917.366939738393,test,2,,,,,,,,2914.8843125477433,2915.380963675678,2915.380963675678,2915.397811755538,2915.5311127752066,2916.0302924364805,2916.3805587515235,2917.3842957019806,left,1,0.3516868129372597,0.1,,,,,,,,,,,s031,001,2024-08-19_10h01.23.651,simplestop_skeleton,2022.2.2,59.89557145032964,
None,None,,,,,,,,,1,0,1,0,7,2,30,1,,,,,,,,,2917.3673893138766,stop,circleblack.png,left,0.1,,,,,,,,,,,,,,,,,0.001271560788154602,0.49033910781145096,0.5903324708342552,2919.8704522922635,test,2,,,,,,,,2917.3842957019806,2917.883710540831,2917.883710540831,2917.883710540831,2917.9837855622172,2918.4843193665147,2918.88497004658,2919.8899223431945,None,0,,0.15,,,,,,,,,,,s031,001,2024-08-19_10h01.23.651,simplestop_skeleton,2022.2.2,59.89557145032964,
None,None,,,,,,,,,1,0,1,0,7,3,31,2,,,,,,,,,2919.8708908334374,go,squareblack.png,right,0.15,,,,,,,,,,,,,,,,,0.001745276153087616,0.48955773562192917,,2922.3723124042153,test,2,,,,,,,,2919.8899223431945,2920.386497043073,2920.386497043073,2920.4031834602356,2920.536733791232,2921.037621051073,2921.3863947689533,2922.390047326684,right,1,0.35168880224227905,0.15,,,,,,,,,,,s031,001,2024-08-19_10h01.23.651,simplestop_skeleton,2022.2.2,59.89557145032964,
None,None,,,,,,,,,1,0,1,0,8,0,32,3,,,,,,,,,2922.372758358717,go,circleblack.png,left,0.15,,,,,,,,,,,,,,,,,0.0018414556980133057,0.49051010608673096,,2924.875271499157,test,2,,,,,,,,2922.390047326684,2922.889128677547,2922.889128677547,2922.889128677547,2923.039256155491,2923.538531988859,2923.8889534920454,2924.892963320017,left,1,0.27660661935806274,0.15,,,,,,,,,,,s031,001,2024-08-19_10h01.23.651,simplestop_skeleton,2022.2.2,59.89557145032964,
None,None,,,,,,,,,1,0,1,0,8,1,33,2,,,,,,,,,2924.8757044151425,go,squareblack.png,right,0.15,,,,,,,,,,,,,,,,,0.0016430765390396118,0.4901953414082527,,2927.378021143377,test,2,,,,,,,,2924.892963320017,2925.392018854618,2925.392018854618,2925.4086980074644,2925.5423044115305,2926.0432826429605,2926.391645178199,2927.396926127374,right,1,0.34821370244026184,0.15,,,,,,,,,,,s031,001,2024-08-19_10h01.23.651,simplestop_skeleton,2022.2.2,59.89557145032964,
None,None,,,,,,,,,1,0,1,0,8,2,34,1,,,,,,,,,2927.3784612864256,go,circleblack.png,left,0.15,,,,,,,,,,,,,,,,,0.0018702149391174316,0.4896700754761696,,2929.881876297295,test,2,,,,,,,,2927.396926127374,2927.8934528380632,2927.8934528380632,2927.9100277796388,2928.0435467511415,2928.543998531997,2928.895190656185,2929.8995702564716,left,1,0.3493161201477051,0.15,,,,,,,,,,,s031,001,2024-08-19_10h01.23.651,simplestop_skeleton,2022.2.2,59.89557145032964,
$currentCorrectResponse,$currentGoStim,,,,,,,,,1,0,1,0,8,3,35,0,,,,,,,,,2929.882321752608,go,circleblack.png,left,0.15,,,,,,,,,,,,,,,,,0.0015323236584663391,0.48897554725408554,,2932.3836917877197,test,2,,,,,,,,2929.8995702564716,2930.3976178988814,2930.3976178988814,2930.4143889322877,2930.5477548986673,2931.0484928116202,2931.3972773849964,2932.4012536630034,left,1,0.4093732312321663,0.15,,,,,,,,,,,s031,001,2024-08-19_10h01.23.651,simplestop_skeleton,2022.2.2,59.89557145032964,
$currentCorrectResponse,$currentGoStim,,,,,,,,,1,0,1,0,9,0,36,0,,,,,,,,,2932.38414029032,go,squareblack.png,right,0.15,,,,,,,,,,,,,,,,,0.0018789097666740417,0.490165114402771,,2934.8864042162895,test,2,,,,,,,,2932.4012536630034,2932.900206312537,2932.900206312537,2932.900206312537,2933.050455853343,2933.5495004951954,2933.9006943404675,2934.9045304581523,right,1,0.29774539172649384,0.15,,,,,,,,,,,s031,001,2024-08-19_10h01.23.651,simplestop_skeleton,2022.2.2,59.89557145032964,
None,None,,,,,,,,,1,0,1,0,9,1,37,2,,,,,,,,,2934.8868561312556,go,squareblack.png,right,0.15,,,,,,,,,,,,,,,,,0.001300625503063202,0.4900612160563469,,2937.3892280831933,test,2,,,,,,,,2934.9045304581523,2935.403123937547,2935.403123937547,2935.419612132013,2935.55304056406,2936.0542675331235,2936.4026898518205,2937.4079957678914,right,1,0.4112239331007004,0.15,,,,,,,,,,,s031,001,2024-08-19_10h01.23.651,simplestop_skeleton,2022.2.2,59.89557145032964,
None,None,,,,,,,,,1,0,1,0,9,2,38,1,,,,,,,,,2937.389676645398,go,circleblack.png,left,0.15,,,,,,,,,,,,,,,,,0.0026166215538978577,0.4891432374715805,,2939.891881637275,test,2,,,,,,,,2937.4079957678914,2937.905691295862,2937.905691295862,2937.922475025058,2938.0562339127064,2938.5717314481735,2938.9054496213794,2939.9093322381377,left,1,0.36727529019117355,0.15,,,,,,,,,,,s031,001,2024-08-19_10h01.23.651,simplestop_skeleton,2022.2.2,59.89557145032964,
None,None,,,,,,,,,1,0,1,0,9,3,39,1,,,,,,,,,2939.892337433994,go,squareblack.png,right,0.15,,,,,,,,,,,,,,,,,0.0016559213399887085,0.4905015230178833,,2942.3948670476675,test,2,,,,,,,,2939.9093322381377,2940.408704444766,2940.408704444766,2940.408704444766,2940.5587843135,2941.0585450455546,2941.4083200618625,2942.4122603982687,right,1,0.3527052700519562,0.15,,,,,,,,,,,s031,001,2024-08-19_10h01.23.651,simplestop_skeleton,2022.2.2,59.89557145032964,
None,None,,,,,,,,,1,0,1,0,10,0,40,1,,,,,,,,,2942.3953321427107,go,circleblack.png,left,0.15,,,,,,,,,,,,,,,,,0.0017418265342712402,0.49019841849803925,,2944.8972748965025,test,2,,,,,,,,2942.4122603982687,2942.9113510623574,2942.9113510623574,2942.9113510623574,2943.0613031983376,2943.5607494562864,2943.9110167324543,2944.9150550812483,left,1,0.3168853223323822,0.15,,,,,,,,,,,s031,001,2024-08-19_10h01.23.651,simplestop_skeleton,2022.2.2,59.89557145032964,
None,None,,,,,,,,,1,0,1,0,10,1,41,1,,,,,,,,,2944.8977116420865,go,squareblack.png,right,0.15,,,,,,,,,,,,,,,,,0.0016785115003585815,0.49036454409360886,,2947.3999848142266,test,2,,,,,,,,2944.9150550812483,2945.414349526167,2945.414349526167,2945.414349526167,2945.5642717704177,2946.074415266514,2946.413818962872,2947.416993267834,right,1,0.3791133612394333,0.15,,,,,,,,,,,s031,001,2024-08-19_10h01.23.651,simplestop_skeleton,2022.2.2,59.89557145032964,
$currentCorrectResponse,$currentGoStim,,,,,,,,,1,0,1,0,10,2,42,0,,,,,,,,,2947.4004429504275,stop,squareblack.png,right,0.15,,,,,,,,,,,,,,,,,0.0012181028723716736,0.4905107542872429,0.6405150517821312,2949.9038176462054,test,2,,,,,,,,2947.416993267834,2947.916694328189,2947.916694328189,2947.916694328189,2948.0669736266136,2948.5692955106497,2948.917968839407,2949.9233890473843,None,0,,0.2,,,,,,,,,,,s031,001,2024-08-19_10h01.23.651,simplestop_skeleton,2022.2.2,59.89557145032964,
None,None,,,,,,,,,1,0,1,0,10,3,43,3,,,,,,,,,2949.9042632356286,stop,circleblack.png,left,0.2,,,,,,,,,,,,,,,,,0.0019816309213638306,0.48937661200761795,0.6896262988448143,2952.406161054969,test,2,,,,,,,,2949.9233890473843,2950.4197183847427,2950.4197183847427,2950.436544023454,2950.6199671924114,2951.1190373301506,2951.4195346087217,2952.4233416989446,left,1,0.3427158296108246,0.15,,,,,,,,,,,s031,001,2024-08-19_10h01.23.651,simplestop_skeleton,2022.2.2,59.89557145032964,
$currentCorrectResponse,$currentGoStim,,,,,,,,,1,0,1,0,11,0,44,0,,,,,,,,,2952.406602010131,go,circleblack.png,left,0.15,,,,,,,,,,,,,,,,,0.0014882087707519531,0.4897647351026535,,2954.9088201001287,test,2,,,,,,,,2952.4233416989446,2952.922358572483,2952.922358572483,2952.922358572483,2953.072572812438,2953.5717628598213,2953.9219959005713,2954.92721170187,right,0,0.28435926884412766,0.15,,,,,,,,,,,s031,001,2024-08-19_10h01.23.651,simplestop_skeleton,2022.2.2,59.89557145032964,
None,None,,,,,,,,,1,0,1,0,11,1,45,1,,,,,,,,,2954.909284621477,stop,squareblack.png,right,0.15,,,,,,,,,,,,,,,,,0.002028144896030426,0.48881543427705765,0.6389744952321053,2957.4124805554748,test,2,,,,,,,,2954.92721170187,2955.4251644834876,2955.4251644834876,2955.4419593364,2955.5751937925816,2956.075763940811,2956.4262547567487,2957.4334375038743,None,0,,0.2,,,,,,,,,,,s031,001,2024-08-19_10h01.23.651,simplestop_skeleton,2022.2.2,59.89557145032964,
$currentCorrectResponse,$currentGoStim,,,,,,,,,1,0,1,0,11,2,46,0,,,,,,,,,2957.412922978401,go,circleblack.png,left,0.2,,,,,,,,,,,,,,,,,0.0023722946643829346,0.48638729751110077,,2959.9133426323533,test,2,,,,,,,,2957.4334375038743,2957.926508486271,2957.926508486271,2957.9430919364095,2958.1266828402877,2958.627249635756,2958.927834816277,2959.929991014302,left,1,0.4377090036869049,0.2,,,,,,,,,,,s031,001,2024-08-19_10h01.23.651,simplestop_skeleton,2022.2.2,59.89557145032964,
None,None,,,,,,,,,1,0,1,0,11,3,47,3,,,,,,,,,2959.91381791234,stop,circleblack.png,left,0.2,,,,,,,,,,,,,,,,,0.0012249425053596497,0.48955897986888885,0.6899368837475777,2962.417493917048,test,2,,,,,,,,2959.929991014302,2960.429328247905,2960.429328247905,2960.429328247905,2960.6295665949583,2961.1301806122065,2961.4303046688437,2962.433701634407,None,0,,0.25,,,,,,,,,,,s031,001,2024-08-19_10h01.23.651,simplestop_skeleton,2022.2.2,59.89557145032964,
,,,,,,,,,,1,0,1,0,,,,,,,,,,,,,,,,,,,,,,,,,,,,,,,,,,,,,,,,,,,,,,,,,,,,,,,,,,,2962.433701634407,2962.433701634407,return,38.229206539690495,"[{'fileName': 'squareblack.png', 'correct_response': 'right', 'condition': 'go'}, {'fileName': 'squareblack.png', 'correct_response': 'right', 'condition': 'go'}, {'fileName': 'squareblack.png', 'correct_response': 'right', 'condition': 'go'}, {'fileName': 'circleblack.png', 'correct_response': 'left', 'condition': 'go'}, {'fileName': 'circleblack.png', 'correct_response': 'left', 'condition': 'go'}, {'fileName': 'circleblack.png', 'correct_response': 'left', 'condition': 'stop'}, {'fileName': 'squareblack.png', 'correct_response': 'right', 'condition': 'go'}, {'fileName': 'circleblack.png', 'correct_response': 'left', 'condition': 'stop'}, {'fileName': 'squareblack.png', 'correct_response': 'right', 'condition': 'stop'}, {'fileName': 'circleblack.png', 'correct_response': 'left', 'condition': 'go'}, {'fileName': 'squareblack.png', 'correct_response': 'right', 'condition': 'stop'}, {'fileName': 'circleblack.png', 'correct_response': 'left', 'condition': 'go'}, {'fileName': 'circleblack.png', 'correct_response': 'left', 'condition': 'stop'}, {'fileName': 'squareblack.png', 'correct_response': 'right', 'condition': 'go'}, {'fileName': 'squareblack.png', 'correct_response': 'right', 'condition': 'go'}, {'fileName': 'circleblack.png', 'correct_response': 'left', 'condition': 'go'}, {'fileName': 'squareblack.png', 'correct_response': 'right', 'condition': 'stop'}, {'fileName': 'circleblack.png', 'correct_response': 'left', 'condition': 'stop'}, {'fileName': 'squareblack.png', 'correct_response': 'right', 'condition': 'stop'}, {'fileName': 'squareblack.png', 'correct_response': 'right', 'condition': 'go'}, {'fileName': 'circleblack.png', 'correct_response': 'left', 'condition': 'go'}, {'fileName': 'circleblack.png', 'correct_response': 'left', 'condition': 'go'}, {'fileName': 'squareblack.png', 'correct_response': 'right', 'condition': 'go'}, {'fileName': 'circleblack.png', 'correct_response': 'left', 'condition': 'go'}, {'fileName': 'squareblack.png', 'correct_response': 'right', 'condition': 'stop'}, {'fileName': 'circleblack.png', 'correct_response': 'left', 'condition': 'stop'}, {'fileName': 'circleblack.png', 'correct_response': 'left', 'condition': 'go'}, {'fileName': 'circleblack.png', 'correct_response': 'left', 'condition': 'stop'}, {'fileName': 'circleblack.png', 'correct_response': 'left', 'condition': 'go'}, {'fileName': 'squareblack.png', 'correct_response': 'right', 'condition': 'go'}, {'fileName': 'squareblack.png', 'correct_response': 'right', 'condition': 'go'}, {'fileName': 'squareblack.png', 'correct_response': 'right', 'condition': 'go'}, {'fileName': 'circleblack.png', 'correct_response': 'left', 'condition': 'go'}, {'fileName': 'squareblack.png', 'correct_response': 'right', 'condition': 'go'}, {'fileName': 'circleblack.png', 'correct_response': 'left', 'condition': 'go'}, {'fileName': 'squareblack.png', 'correct_response': 'right', 'condition': 'stop'}, {'fileName': 'squareblack.png', 'correct_response': 'right', 'condition': 'stop'}, {'fileName': 'circleblack.png', 'correct_response': 'left', 'condition': 'go'}, {'fileName': 'circleblack.png', 'correct_response': 'left', 'condition': 'stop'}, {'fileName': 'circleblack.png', 'correct_response': 'left', 'condition': 'go'}, {'fileName': 'circleblack.png', 'correct_response': 'left', 'condition': 'go'}, {'fileName': 'squareblack.png', 'correct_response': 'right', 'condition': 'go'}, {'fileName': 'squareblack.png', 'correct_response': 'right', 'condition': 'go'}, {'fileName': 'squareblack.png', 'correct_response': 'right', 'condition': 'go'}, {'fileName': 'squareblack.png', 'correct_response': 'right', 'condition': 'stop'}, {'fileName': 'circleblack.png', 'correct_response': 'left', 'condition': 'go'}, {'fileName': 'squareblack.png', 'correct_response': 'right', 'condition': 'go'}, {'fileName': 'circleblack.png', 'correct_response': 'left', 'condition': 'stop'}]",,,,,,s031,001,2024-08-19_10h01.23.651,simplestop_skeleton,2022.2.2,59.89557145032964,
None,None,,,,,,,,,2,0,2,0,0,0,0,3,,,,,,,,,3000.700923278928,go,squareblack.png,right,0.25,,,,,,,,,,,,,,,,,0.0025941208004951477,0.4942174404859543,,3003.212678588927,test,3,,,,,,,,3000.7272686213255,3001.2258768230677,3001.2258768230677,3001.242366760969,3001.4757401123643,3001.9766349717975,3002.22673805058,3003.231888450682,right,1,0.44278302788734436,0.25,,,,,,,,,,,s031,001,2024-08-19_10h01.23.651,simplestop_skeleton,2022.2.2,59.89557145032964,
$currentCorrectResponse,$currentGoStim,,,,,,,,,2,0,2,0,0,1,1,0,,,,,,,,,3003.213208064437,go,squareblack.png,right,0.25,,,,,,,,,,,,,,,,,0.0014663785696029663,0.48940517008304596,,3005.714324630797,test,3,,,,,,,,3003.231888450682,3003.7287806123495,3003.7287806123495,3003.7453740909696,3003.97894526273,3004.478102900088,3004.7282016202807,3005.7331955507398,right,1,0.38424642384052277,0.25,,,,,,,,,,,s031,001,2024-08-19_10h01.23.651,simplestop_skeleton,2022.2.2,59.89557145032964,
None,None,,,,,,,,,2,0,2,0,0,2,2,2,,,,,,,,,3005.7148039489985,go,squareblack.png,right,0.25,,,,,,,,,,,,,,,,,0.0014338418841362,0.48786552250385284,,3008.217967659235,test,3,,,,,,,,3005.7331955507398,3006.2299101799726,3006.2299101799726,3006.246605992317,3006.4820317029953,3006.9972887411714,3007.2322402223945,3008.2414736673236,right,1,0.4843679219484329,0.25,,,,,,,,,,,s031,001,2024-08-19_10h01.23.651,simplestop_skeleton,2022.2.2,59.89557145032964,
$currentCorrectResponse,$currentGoStim,,,,,,,,,2,0,2,0,0,3,3,0,,,,,,,,,3008.218413464725,go,circleblack.png,left,0.25,,,,,,,,,,,,,,,,,0.005782105028629303,0.48888374865055084,,3010.721851222217,test,3,,,,,,,,3008.2414736673236,3008.733931273222,3008.733931273222,3008.750744357705,3008.9846027567983,3009.483655065298,3009.733694382012,3010.739543825388,left,1,0.41792812943458557,0.25,,,,,,,,,,,s031,001,2024-08-19_10h01.23.651,simplestop_skeleton,2022.2.2,59.89557145032964,
None,None,,,,,,,,,2,0,2,0,1,0,4,3,,,,,,,,,3010.7222990468144,go,circleblack.png,left,0.25,,,,,,,,,,,,,,,,,0.0019885972142219543,0.48844053596258163,,3013.2228859066963,test,3,,,,,,,,3010.739543825388,3011.236725009978,3011.236725009978,3011.253620184958,3011.4870187342167,3011.9860674217343,3012.2364398911595,3013.240166336298,left,1,0.33509472012519836,0.25,,,,,,,,,,,s031,001,2024-08-19_10h01.23.651,simplestop_skeleton,2022.2.2,59.89557145032964,
None,None,,,,,,,,,2,0,2,0,1,1,5,3,,,,,,,,,3013.2233195081353,stop,circleblack.png,left,0.25,,,,,,,,,,,,,,,,,0.0013570040464401245,0.48974766582250595,0.7399869784712791,3015.7253351807594,test,3,,,,,,,,3013.240166336298,3013.739733159542,3013.739733159542,3013.739733159542,3013.9898049533367,3014.4891583546996,3014.739216797054,3015.743766643107,left,1,0.45796632766723633,0.2,,,,,,,,,,,s031,001,2024-08-19_10h01.23.651,simplestop_skeleton,2022.2.2,59.89557145032964,
None,None,,,,,,,,,2,0,2,0,1,2,6,1,,,,,,,,,3015.725808277726,go,squareblack.png,right,0.2,,,,,,,,,,,,,,,,,0.0017212331295013428,0.48824429512023926,,3018.2289842516184,test,3,,,,,,,,3015.743766643107,3016.2408276051283,3016.2408276051283,3016.257483229041,3016.4410105347633,3016.941570587456,3017.2428212314844,3018.2483882904053,right,1,0.35536228120326996,0.2,,,,,,,,,,,s031,001,2024-08-19_10h01.23.651,simplestop_skeleton,2022.2.2,59.89557145032964,
None,None,,,,,,,,,2,0,2,0,1,3,7,1,,,,,,,,,3018.22941377759,stop,circleblack.png,left,0.2,,,,,,,,,,,,,,,,,0.0018975138664245605,0.48969142884016037,0.6900620460510254,3020.731373757124,test,3,,,,,,,,3018.2483882904053,3018.745112299919,3018.745112299919,3018.761653609574,3018.945139862597,3019.4442266002297,3019.744617678225,3020.7485385984182,left,1,0.3095124289393425,0.15,,,,,,,,,,,s031,001,2024-08-19_10h01.23.651,simplestop_skeleton,2022.2.2,59.89557145032964,
$currentCorrectResponse,$currentGoStim,,,,,,,,,2,0,2,0,2,0,8,0,,,,,,,,,3020.7318120226264,stop,squareblack.png,right,0.15,,,,,,,,,,,,,,,,,0.0016729757189750671,0.4898611679673195,0.6400842666625977,3023.2344502285123,test,3,,,,,,,,3020.7485385984182,3021.247634589672,3021.247634589672,3021.247634589672,3021.397794254124,3021.898873396218,3022.249088168144,3023.253828547895,None,0,,0.2,,,,,,,,,,,s031,001,2024-08-19_10h01.23.651,simplestop_skeleton,2022.2.2,59.89557145032964,
None,None,,,,,,,,,2,0,2,0,2,1,9,2,,,,,,,,,3023.2348949983716,go,circleblack.png,left,0.2,,,,,,,,,,,,,,,,,0.001804850995540619,0.48954296857118607,,3025.7367572411895,test,3,,,,,,,,3023.253828547895,3023.750451207161,3023.750451207161,3023.767028540373,3023.9508152380586,3024.4665063247085,3024.7500554546714,3025.754654675722,left,1,0.26098236441612244,0.2,,,,,,,,,,,s031,001,2024-08-19_10h01.23.651,simplestop_skeleton,2022.2.2,59.89557145032964,
None,None,,,,,,,,,2,0,2,0,2,2,10,3,,,,,,,,,3025.7372046783566,stop,squareblack.png,right,0.2,,,,,,,,,,,,,,,,,0.0017441436648368835,0.49005525559186935,0.6902609840035439,3028.2394940257072,test,3,,,,,,,,3025.754654675722,3026.253275923431,3026.253275923431,3026.269778698683,3026.453415289521,3026.9526987299323,3027.252918072045,3028.257456332445,right,1,0.301157608628273,0.15,,,,,,,,,,,s031,001,2024-08-19_10h01.23.651,simplestop_skeleton,2022.2.2,59.89557145032964,
$currentCorrectResponse,$currentGoStim,,,,,,,,,2,0,2,0,2,3,11,0,,,,,,,,,3028.239925570786,go,circleblack.png,left,0.15,,,,,,,,,,,,,,,,,0.0018451213836669922,0.4903247579932213,,3030.7426525503397,test,3,,,,,,,,3028.257456332445,3028.757482036948,3028.757482036948,3028.773264810443,3028.9066949263215,3029.4221109822392,3029.7725451737642,3030.7617521062493,left,1,0.30148454010486603,0.15,,,,,,,,,,,s031,001,2024-08-19_10h01.23.651,simplestop_skeleton,2022.2.2,59.89557145032964,
None,None,,,,,,,,,2,0,2,0,3,0,12,1,,,,,,,,,3030.7430809885263,stop,circleblack.png,left,0.15,,,,,,,,,,,,,,,,,0.001306183636188507,0.4895136132836342,0.6398035883903503,3033.2450330778956,test,3,,,,,,,,3030.7617521062493,3031.2589689418674,3031.2589689418674,3031.275607742369,3031.408956475556,3031.908169604838,3032.258519254625,3033.262568578124,right,0,0.33349211513996124,0.1,,,,,,,,,,,s031,001,2024-08-19_10h01.23.651,simplestop_skeleton,2022.2.2,59.89557145032964,
None,None,,,,,,,,,2,0,2,0,3,1,13,2,,,,,,,,,3033.2454881444573,go,squareblack.png,right,0.1,,,,,,,,,,,,,,,,,0.0018884986639022827,0.4902166575193405,,3035.7478747814894,test,3,,,,,,,,3033.262568578124,3033.7616336867213,3033.7616336867213,3033.778432674706,3033.8616982400417,3034.362711802125,3034.7612664550543,3035.766110904515,right,1,0.3944148123264313,0.1,,,,,,,,,,,s031,001,2024-08-19_10h01.23.651,simplestop_skeleton,2022.2.2,59.89557145032964,
None,None,,,,,,,,,2,0,2,0,3,2,14,2,,,,,,,,,3035.7483083307743,go,squareblack.png,right,0.1,,,,,,,,,,,,,,,,,0.0020796656608581543,0.48999694734811783,,3038.249653413892,test,3,,,,,,,,3035.766110904515,3036.2643434107304,3036.2643434107304,3036.2811327278614,3036.36469437927,3036.8653396442533,3037.263914205134,3038.2671347633004,right,1,0.442134290933609,0.1,,,,,,,,,,,s031,001,2024-08-19_10h01.23.651,simplestop_skeleton,2022.2.2,59.89557145032964,
None,None,,,,,,,,,2,0,2,0,3,3,15,3,,,,,,,,,3038.2501241117716,go,circleblack.png,left,0.1,,,,,,,,,,,,,,,,,0.0018006488680839539,0.48960818350315094,,3040.753644399345,test,3,,,,,,,,3038.2671347633004,3038.765733361244,3038.765733361244,3038.782281950116,3038.8657808229327,3039.3664058819413,3039.766761854291,3040.773078598082,left,1,0.3075883463025093,0.1,,,,,,,,,,,s031,001,2024-08-19_10h01.23.651,simplestop_skeleton,2022.2.2,59.89557145032964,
None,None,,,,,,,,,2,0,2,0,4,0,16,2,,,,,,,,,3040.7541027516127,stop,squareblack.png,right,0.1,,,,,,,,,,,,,,,,,0.001741953194141388,0.48959334194660187,0.5897977575659752,3043.256469666958,test,3,,,,,,,,3040.773078598082,3041.269933216274,3041.269933216274,3041.286392122507,3041.3698894903064,3041.8705172091722,3042.270827524364,3043.2758695334196,None,0,,0.15,,,,,,,,,,,s031,001,2024-08-19_10h01.23.651,simplestop_skeleton,2022.2.2,59.89557145032964,
$currentCorrectResponse,$currentGoStim,,,,,,,,,2,0,2,0,4,1,17,0,,,,,,,,,3043.256912358105,stop,circleblack.png,left,0.15,,,,,,,,,,,,,,,,,0.0018088221549987793,0.48990409821271896,0.6403223648667336,3045.7585965022445,test,3,,,,,,,,3043.2758695334196,3043.77265830338,3043.77265830338,3043.7893588915467,3043.922781892121,3044.423899270594,3044.772316545248,3045.7897272482514,left,1,0.30848532170057297,0.1,,,,,,,,,,,s031,001,2024-08-19_10h01.23.651,simplestop_skeleton,2022.2.2,59.89557145032964,
None,None,,,,,,,,,2,0,2,0,4,2,18,1,,,,,,,,,3045.7590320184827,stop,squareblack.png,right,0.1,,,,,,,,,,,,,,,,,0.0015981122851371765,0.49073509126901627,0.5909969136118889,3048.261170051992,test,3,,,,,,,,3045.7897272482514,3046.27552254498,3046.27552254498,3046.2920601442456,3046.375474125147,3046.8761174455285,3047.276533395052,3048.2782031446695,None,0,,0.15,,,,,,,,,,,s031,001,2024-08-19_10h01.23.651,simplestop_skeleton,2022.2.2,59.89557145032964,
None,None,,,,,,,,,2,0,2,0,4,3,19,2,,,,,,,,,3048.261627279222,go,squareblack.png,right,0.15,,,,,,,,,,,,,,,,,0.0012391135096549988,0.4889661744236946,,3050.7643548175693,test,3,,,,,,,,3048.2782031446695,3048.776636891067,3048.776636891067,3048.793298341334,3048.9267322719097,3049.42727933079,3049.777781814337,3050.7824682444334,right,1,0.2982420399785042,0.15,,,,,,,,,,,s031,001,2024-08-19_10h01.23.651,simplestop_skeleton,2022.2.2,59.89557145032964,
None,None,,,,,,,,,2,0,2,0,5,0,20,2,,,,,,,,,3050.7647936940193,go,circleblack.png,left,0.15,,,,,,,,,,,,,,,,,0.0019190385937690735,0.490176722407341,,3053.2707372382283,test,3,,,,,,,,3050.7824682444334,3051.280770726502,3051.280770726502,3051.297686651349,3051.4311339482665,3051.931936621666,3052.280408151448,3053.288310177624,left,1,0.31458863615989685,0.15,,,,,,,,,,,s031,001,2024-08-19_10h01.23.651,simplestop_skeleton,2022.2.2,59.89557145032964,
None,None,,,,,,,,,2,0,2,0,5,1,21,1,,,,,,,,,3053.2711843177676,go,circleblack.png,left,0.15,,,,,,,,,,,,,,,,,0.0012777447700500488,0.48554592579603195,,3055.770294211805,test,3,,,,,,,,3053.288310177624,3053.7835534214973,3053.7835534214973,3053.8002948984504,3053.933954015374,3054.449693337083,3054.783275604248,3055.7877018153667,left,1,0.29294101893901825,0.15,,,,,,,,,,,s031,001,2024-08-19_10h01.23.651,simplestop_skeleton,2022.2.2,59.89557145032964,
$currentCorrectResponse,$currentGoStim,,,,,,,,,2,0,2,0,5,2,22,0,,,,,,,,,3055.770764634013,go,squareblack.png,right,0.15,,,,,,,,,,,,,,,,,0.0016552209854125977,0.48966575413942337,,3058.276111289859,test,3,,,,,,,,3055.7877018153667,3056.286338917911,3056.286338917911,3056.3031469509006,3056.4365421682596,3056.937648124993,3057.2860971987247,3058.2943851724267,right,1,0.3783032149076462,0.15,,,,,,,,,,,s031,001,2024-08-19_10h01.23.651,simplestop_skeleton,2022.2.2,59.89557145032964,
None,None,,,,,,,,,2,0,2,0,5,3,23,1,,,,,,,,,3058.27655300498,go,circleblack.png,left,0.15,,,,,,,,,,,,,,,,,0.0017687305808067322,0.48583241552114487,,3060.775593429804,test,3,,,,,,,,3058.2943851724267,3058.789252579212,3058.789252579212,3058.8060096874833,3058.939332716167,3059.438603423536,3059.788865931332,3060.7952226772904,left,1,0.30289507657289505,0.15,,,,,,,,,,,s031,001,2024-08-19_10h01.23.651,simplestop_skeleton,2022.2.2,59.89557145032964,
None,None,,,,,,,,,2,0,2,0,6,0,24,1,,,,,,,,,3060.7760617509484,stop,squareblack.png,right,0.15,,,,,,,,,,,,,,,,,0.0017120018601417542,0.4899211451411247,0.6400281339883804,3063.278883099556,test,3,,,,,,,,3060.7952226772904,3061.2919953390956,3061.2919953390956,3061.308743290603,3061.4423254057765,3061.942820072174,3062.292775258422,3063.2983964681625,None,0,,0.2,,,,,,,,,,,s031,001,2024-08-19_10h01.23.651,simplestop_skeleton,2022.2.2,59.89557145032964,
None,None,,,,,,,,,2,0,2,0,6,1,25,2,,,,,,,,,3063.2793162837625,stop,circleblack.png,left,0.2,,,,,,,,,,,,,,,,,0.0019846931099891663,0.48921721428632736,0.6894276440143585,3065.781137250364,test,3,,,,,,,,3063.2983964681625,3063.794643446803,3063.794643446803,3063.811349518597,3063.9949215352535,3064.494130641222,3064.7944058179855,3065.7979780063033,left,1,0.35896752029657364,0.15,,,,,,,,,,,s031,001,2024-08-19_10h01.23.651,simplestop_skeleton,2022.2.2,59.89557145032964,
$currentCorrectResponse,$currentGoStim,,,,,,,,,2,0,2,0,6,2,26,0,,,,,,,,,3065.781579300761,go,circleblack.png,left,0.15,,,,,,,,,,,,,,,,,0.0012548267841339111,0.4900696575641632,,3068.28260704875,test,3,,,,,,,,3065.7979780063033,3066.297398239374,3066.297398239374,3066.297398239374,3066.447618216276,3066.948411524296,3067.297036655247,3068.299481101334,left,1,0.4203355610370636,0.15,,,,,,,,,,,s031,001,2024-08-19_10h01.23.651,simplestop_skeleton,2022.2.2,59.89557145032964,
None,None,,,,,,,,,2,0,2,0,6,3,27,3,,,,,,,,,3068.2830606997013,stop,circleblack.png,left,0.15,,,,,,,,,,,,,,,,,0.0012215226888656616,0.489631287753582,0.639795795083046,3070.7870477586985,test,3,,,,,,,,3068.299481101334,3068.798794493079,3068.798794493079,3068.798794493079,3068.94895721972,3069.44948284328,3069.799803264439,3070.8060179129243,None,0,,0.2,,,,,,,,,,,s031,001,2024-08-19_10h01.23.651,simplestop_skeleton,2022.2.2,59.89557145032964,
$currentCorrectResponse,$currentGoStim,,,,,,,,,2,0,2,0,7,0,28,0,,,,,,,,,3070.7874987646937,go,circleblack.png,left,0.2,,,,,,,,,,,,,,,,,0.0013559311628341675,0.4895111247897148,,3073.2882135361433,test,3,,,,,,,,3070.8060179129243,3071.303045101464,3071.303045101464,3071.3195858225226,3071.5031893849373,3072.0041244775057,3072.302621640265,3073.3106295764446,left,1,0.49149373918771744,0.2,,,,,,,,,,,s031,001,2024-08-19_10h01.23.651,simplestop_skeleton,2022.2.2,59.89557145032964,
None,None,,,,,,,,,2,0,2,0,7,1,29,3,,,,,,,,,3073.2886789143085,go,squareblack.png,right,0.2,,,,,,,,,,,,,,,,,0.007370933890342712,0.4916486293077469,,3075.7923126518726,test,3,,,,,,,,3073.3106295764446,3073.805690728128,3073.805690728128,3073.8223674073815,3074.0044839680195,3074.505213096738,3074.8054506853223,3075.8110849410295,right,1,0.3336612358689308,0.2,,,,,,,,,,,s031,001,2024-08-19_10h01.23.651,simplestop_skeleton,2022.2.2,59.89557145032964,
None,None,,,,,,,,,2,0,2,0,7,2,30,3,,,,,,,,,3075.7927606403828,go,squareblack.png,right,0.2,,,,,,,,,,,,,,,,,0.001239582896232605,0.48975930362939835,,3078.2938034161925,test,3,,,,,,,,3075.8110849410295,3076.308536618948,3076.308536618948,3076.3250583186746,3076.5088114365935,3077.0096897259355,3077.308081947267,3078.3105005919933,right,1,0.4202878326177597,0.2,,,,,,,,,,,s031,001,2024-08-19_10h01.23.651,simplestop_skeleton,2022.2.2,59.89557145032964,
None,None,,,,,,,,,2,0,2,0,7,3,31,1,,,,,,,,,3078.294266320765,go,squareblack.png,right,0.2,,,,,,,,,,,,,,,,,0.0011757612228393555,0.48973460495471954,,3080.797863394022,test,3,,,,,,,,3078.3105005919933,3078.809843093157,3078.809843093157,3078.809843093157,3079.009981215,3079.510584615171,3079.8108487427235,3080.8177399784327,right,1,0.4162173792719841,0.2,,,,,,,,,,,s031,001,2024-08-19_10h01.23.651,simplestop_skeleton,2022.2.2,59.89557145032964,
None,None,,,,,,,,,2,0,2,0,8,0,32,1,,,,,,,,,3080.79829120636,go,circleblack.png,left,0.2,,,,,,,,,,,,,,,,,0.0020996853709220886,0.48962097615003586,,3083.3042035251856,test,3,,,,,,,,3080.8177399784327,3081.314071677625,3081.314071677625,3081.330540217459,3081.5140910074115,3082.0134933665395,3082.313656575978,3083.3222613856196,left,1,0.340319961309433,0.2,,,,,,,,,,,s031,001,2024-08-19_10h01.23.651,simplestop_skeleton,2022.2.2,59.89557145032964,
None,None,,,,,,,,,2,0,2,0,8,1,33,2,,,,,,,,,3083.304655022919,go,squareblack.png,right,0.2,,,,,,,,,,,,,,,,,0.0016543865203857422,0.4851640462875366,,3085.804205752909,test,3,,,,,,,,3083.3222613856196,3083.8166133910418,3083.8166133910418,3083.8336391821504,3084.0169610604644,3084.5163385868073,3084.8169510141015,3085.823600180447,right,1,0.34203722327947617,0.2,,,,,,,,,,,s031,001,2024-08-19_10h01.23.651,simplestop_skeleton,2022.2.2,59.89557145032964,
$currentCorrectResponse,$currentGoStim,,,,,,,,,2,0,2,0,8,2,34,0,,,,,,,,,3085.8046626597643,go,circleblack.png,left,0.2,,,,,,,,,,,,,,,,,0.002774856984615326,0.4879651591181755,,3088.3055402711034,test,3,,,,,,,,3085.823600180447,3086.31954895705,3086.31954895705,3086.3361566737294,3086.519586801529,3087.0188723132014,3087.31922762841,3088.3226026818156,left,1,0.2760959267616272,0.2,,,,,,,,,,,s031,001,2024-08-19_10h01.23.651,simplestop_skeleton,2022.2.2,59.89557145032964,
None,None,,,,,,,,,2,0,2,0,8,3,35,3,,,,,,,,,3088.305990882218,stop,squareblack.png,right,0.2,,,,,,,,,,,,,,,,,0.0016462653875350952,0.49069052189588547,0.6907105818390846,3090.808345146477,test,3,,,,,,,,3088.3226026818156,3088.822449669242,3088.822449669242,3088.822449669242,3089.0227525755763,3089.538457736373,3089.8221511617303,3090.8256363272667,right,1,0.2916967198252678,0.15,,,,,,,,,,,s031,001,2024-08-19_10h01.23.651,simplestop_skeleton,2022.2.2,59.89557145032964,
$currentCorrectResponse,$currentGoStim,,,,,,,,,2,0,2,0,9,0,36,0,,,,,,,,,3090.8088707476854,stop,squareblack.png,right,0.15,,,,,,,,,,,,,,,,,0.0011512413620948792,0.48860741406679153,0.6386341452598572,3093.3117363229394,test,3,,,,,,,,3090.8256363272667,3091.323744893074,3091.323744893074,3091.3403381109238,3091.4738024696708,3091.974413201213,3092.325078561902,3093.331514939666,None,0,,0.2,,,,,,,,,,,s031,001,2024-08-19_10h01.23.651,simplestop_skeleton,2022.2.2,59.89557145032964,
$currentCorrectResponse,$currentGoStim,,,,,,,,,2,0,2,0,9,1,37,0,,,,,,,,,3093.3121801391244,go,circleblack.png,left,0.2,,,,,,,,,,,,,,,,,0.0019924044609069824,0.4895796403288841,,3095.8129608407617,test,3,,,,,,,,3093.331514939666,3093.827980287373,3093.827980287373,3093.8443183228374,3094.0279824361205,3094.5271738171577,3094.827402949333,3095.8297551572323,left,1,0.39320290833711624,0.2,,,,,,,,,,,s031,001,2024-08-19_10h01.23.651,simplestop_skeleton,2022.2.2,59.89557145032964,
None,None,,,,,,,,,2,0,2,0,9,2,38,3,,,,,,,,,3095.813396833837,stop,circleblack.png,left,0.2,,,,,,,,,,,,,,,,,0.0012172535061836243,0.48982761800289154,0.6900499984622002,3098.317230656743,test,3,,,,,,,,3095.8297551572323,3096.329066693783,3096.329066693783,3096.329066693783,3096.5293498933315,3097.0299344956875,3097.330164834857,3098.336163714528,None,0,,0.25,,,,,,,,,,,s031,001,2024-08-19_10h01.23.651,simplestop_skeleton,2022.2.2,59.89557145032964,
None,None,,,,,,,,,2,0,2,0,9,3,39,1,,,,,,,,,3098.317662805319,go,circleblack.png,left,0.25,,,,,,,,,,,,,,,,,0.001283407211303711,0.4898303300142288,,3100.8186656981707,test,3,,,,,,,,3098.336163714528,3098.833779633045,3098.833779633045,3098.850049071014,3099.0837365090847,3099.5829487368464,3099.833056628704,3100.8356284946203,left,1,0.4213188514113426,0.25,,,,,,,,,,,s031,001,2024-08-19_10h01.23.651,simplestop_skeleton,2022.2.2,59.89557145032964,
None,None,,,,,,,,,2,0,2,0,10,0,40,1,,,,,,,,,3100.81913574785,go,circleblack.png,left,0.25,,,,,,,,,,,,,,,,,0.0012452304363250732,0.4895959049463272,,3103.3232957720757,test,3,,,,,,,,3100.8356284946203,3101.3347249403596,3101.3347249403596,3101.3347249403596,3101.5850893855095,3102.085618443787,3102.3357903286815,3103.347649656236,left,1,0.4393691197037697,0.25,,,,,,,,,,,s031,001,2024-08-19_10h01.23.651,simplestop_skeleton,2022.2.2,59.89557145032964,
None,None,,,,,,,,,2,0,2,0,10,1,41,3,,,,,,,,,3103.323740437627,go,squareblack.png,right,0.25,,,,,,,,,,,,,,,,,0.0073429495096206665,0.4889259487390518,,3105.8251157328486,test,3,,,,,,,,3103.347649656236,3103.8388548493385,3103.8388548493385,3103.855494208634,3104.0890648439527,3104.588413797319,3104.838538825512,3105.8428891301155,right,1,0.3487382307648659,0.25,,,,,,,,,,,s031,001,2024-08-19_10h01.23.651,simplestop_skeleton,2022.2.2,59.89557145032964,
None,None,,,,,,,,,2,0,2,0,10,2,42,2,,,,,,,,,3105.8257793337107,go,squareblack.png,right,0.25,,,,,,,,,,,,,,,,,0.0011599212884902954,0.48980413377285004,,3108.3269242867827,test,3,,,,,,,,3105.8428891301155,3106.3415343016386,3106.3415343016386,3106.35815294832,3106.5918119624257,3107.0911768078804,3107.3412457704544,3108.343656733632,right,1,0.3951552137732506,0.25,,,,,,,,,,,s031,001,2024-08-19_10h01.23.651,simplestop_skeleton,2022.2.2,59.89557145032964,
None,None,,,,,,,,,2,0,2,0,10,3,43,2,,,,,,,,,3108.327376253903,go,squareblack.png,right,0.25,,,,,,,,,,,,,,,,,0.0011809170246124268,0.48977161943912506,,3110.8313251808286,test,3,,,,,,,,3108.343656733632,3108.8430221676826,3108.8430221676826,3108.8430221676826,3109.0931606143713,3109.593867495656,3109.844024129212,3110.8503069132566,right,1,0.36122263967990875,0.25,,,,,,,,,,,s031,001,2024-08-19_10h01.23.651,simplestop_skeleton,2022.2.2,59.89557145032964,
None,None,,,,,,,,,2,0,2,0,11,0,44,3,,,,,,,,,3110.8317692279816,stop,squareblack.png,right,0.25,,,,,,,,,,,,,,,,,0.001351870596408844,0.48940765857696533,0.739770695567131,3113.3326778262854,test,3,,,,,,,,3110.8503069132566,3111.347138494253,3111.347138494253,3111.3637736961246,3111.597446091473,3112.096710398793,3112.3467563018203,3113.355495944619,right,1,0.41590438038110733,0.2,,,,,,,,,,,s031,001,2024-08-19_10h01.23.651,simplestop_skeleton,2022.2.2,59.89557145032964,
$currentCorrectResponse,$currentGoStim,,,,,,,,,2,0,2,0,11,1,45,0,,,,,,,,,3113.333115503192,go,circleblack.png,left,0.2,,,,,,,,,,,,,,,,,0.007949508726596832,0.49104857444763184,,3115.8364970237017,test,3,,,,,,,,3113.355495944619,3113.850027039647,3113.850027039647,3113.86663851887,3114.048863105476,3114.5492898896337,3114.849522061646,3115.855987906456,left,1,0.3024742603302002,0.2,,,,,,,,,,,s031,001,2024-08-19_10h01.23.651,simplestop_skeleton,2022.2.2,59.89557145032964,
None,None,,,,,,,,,2,0,2,0,11,2,46,2,,,,,,,,,3115.8369415551424,go,squareblack.png,right,0.2,,,,,,,,,,,,,,,,,0.0017002075910568237,0.48967383801937103,,3118.3385777920485,test,3,,,,,,,,3115.855987906456,3116.352573685348,3116.352573685348,3116.3695685863495,3116.5528618991375,3117.052151031792,3117.3523451313376,3118.3579716682434,right,1,0.3270299732685089,0.2,,,,,,,,,,,s031,001,2024-08-19_10h01.23.651,simplestop_skeleton,2022.2.2,59.89557145032964,
None,None,,,,,,,,,2,0,2,0,11,3,47,1,,,,,,,,,3118.3392195776105,stop,circleblack.png,left,0.2,,,,,,,,,,,,,,,,,0.0027911216020584106,0.4873509854078293,0.6875466853380203,3120.8422025218606,test,3,,,,,,,,3118.3579716682434,3118.8539443984628,3118.8539443984628,3118.8706819042563,3119.054171413183,3119.554640248418,3119.8550737649202,3120.861819885671,left,1,0.3006807118654251,0.15,,,,,,,,,,,s031,001,2024-08-19_10h01.23.651,simplestop_skeleton,2022.2.2,59.89557145032964,
