corrGoResp,shape,practiceBlocks.thisRepN,practiceBlocks.thisTrialN,practiceBlocks.thisN,practiceBlocks.thisIndex,practiceTrials.thisRepN,practiceTrials.thisTrialN,practiceTrials.thisN,practiceTrials.thisIndex,stopBlocks.thisRepN,stopBlocks.thisTrialN,stopBlocks.thisN,stopBlocks.thisIndex,testTrials.thisRepN,testTrials.thisTrialN,testTrials.thisN,testTrials.thisIndex,stopPracTrialList,Test Block: 1,welcome.started,start_exp.started,start_exp.keys,start_exp.rt,instrStopText.started,start_prac.started,StartTrialTimeStamp,trialType,goStim,correctResponse,ssd,fixation.started,rules.started,goStim.started,goResp.started,fixation.stopped,stopSignal.started,stopSignal.stopped,goStim.stopped,goResp.stopped,rules.stopped,goResp.keys,goResp.corr,goResp.rt,text.started,rules_2.started,text.stopped,rules_2.stopped,fixationOnset,goStimOnset,stopSignalOnset,EndTrialTimeStamp,Phase,Block,text_5.started,key_resp_3.started,key_resp_3.keys,key_resp_3.rt,key_resp.started,testText.started,test_fixation.started,goStim_test.started,goResp_test.started,test_fixation.stopped,stopSignal_test.started,stopSignal_test.stopped,goStim_test.stopped,goResp_test.stopped,goResp_test.keys,goResp_test.corr,EndingSSD,goResp_test.rt,text_6.started,key_resp_4.started,key_resp_4.keys,key_resp_4.rt,Test Block: 2,Test Block: 3,ending_text.started,end_resp.started,end_resp.keys,end_resp.rt,participant,session,date,expName,psychopyVersion,frameRate,
,,,,,,,,,,,,,,,,,,"[{'fileName': 'squareblack.png', 'correct_response': 'right', 'condition': 'stop'}, {'fileName': 'circleblack.png', 'correct_response': 'left', 'condition': 'go'}, {'fileName': 'squareblack.png', 'correct_response': 'right', 'condition': 'go'}, {'fileName': 'circleblack.png', 'correct_response': 'left', 'condition': 'stop'}, {'fileName': 'circleblack.png', 'correct_response': 'left', 'condition': 'go'}, {'fileName': 'squareblack.png', 'correct_response': 'right', 'condition': 'go'}, {'fileName': 'squareblack.png', 'correct_response': 'right', 'condition': 'stop'}, {'fileName': 'circleblack.png', 'correct_response': 'left', 'condition': 'go'}, {'fileName': 'circleblack.png', 'correct_response': 'left', 'condition': 'go'}, {'fileName': 'circleblack.png', 'correct_response': 'left', 'condition': 'stop'}, {'fileName': 'squareblack.png', 'correct_response': 'right', 'condition': 'go'}, {'fileName': 'squareblack.png', 'correct_response': 'right', 'condition': 'go'}, {'fileName': 'squareblack.png', 'correct_response': 'right', 'condition': 'stop'}, {'fileName': 'circleblack.png', 'correct_response': 'left', 'condition': 'stop'}, {'fileName': 'squareblack.png', 'correct_response': 'right', 'condition': 'go'}, {'fileName': 'squareblack.png', 'correct_response': 'right', 'condition': 'go'}, {'fileName': 'squareblack.png', 'correct_response': 'right', 'condition': 'go'}, {'fileName': 'circleblack.png', 'correct_response': 'left', 'condition': 'go'}, {'fileName': 'circleblack.png', 'correct_response': 'left', 'condition': 'stop'}, {'fileName': 'circleblack.png', 'correct_response': 'left', 'condition': 'go'}, {'fileName': 'circleblack.png', 'correct_response': 'left', 'condition': 'go'}, {'fileName': 'circleblack.png', 'correct_response': 'left', 'condition': 'go'}, {'fileName': 'squareblack.png', 'correct_response': 'right', 'condition': 'go'}, {'fileName': 'squareblack.png', 'correct_response': 'right', 'condition': 'stop'}]","[{'fileName': 'squareblack.png', 'correct_response': 'right', 'condition': 'stop'}, {'fileName': 'squareblack.png', 'correct_response': 'right', 'condition': 'go'}, {'fileName': 'circleblack.png', 'correct_response': 'left', 'condition': 'stop'}, {'fileName': 'squareblack.png', 'correct_response': 'right', 'condition': 'go'}, {'fileName': 'circleblack.png', 'correct_response': 'left', 'condition': 'go'}, {'fileName': 'circleblack.png', 'correct_response': 'left', 'condition': 'stop'}, {'fileName': 'squareblack.png', 'correct_response': 'right', 'condition': 'go'}, {'fileName': 'circleblack.png', 'correct_response': 'left', 'condition': 'go'}, {'fileName': 'squareblack.png', 'correct_response': 'right', 'condition': 'stop'}, {'fileName': 'circleblack.png', 'correct_response': 'left', 'condition': 'go'}, {'fileName': 'squareblack.png', 'correct_response': 'right', 'condition': 'go'}, {'fileName': 'circleblack.png', 'correct_response': 'left', 'condition': 'go'}, {'fileName': 'circleblack.png', 'correct_response': 'left', 'condition': 'stop'}, {'fileName': 'circleblack.png', 'correct_response': 'left', 'condition': 'go'}, {'fileName': 'squareblack.png', 'correct_response': 'right', 'condition': 'go'}, {'fileName': 'squareblack.png', 'correct_response': 'right', 'condition': 'go'}, {'fileName': 'circleblack.png', 'correct_response': 'left', 'condition': 'go'}, {'fileName': 'squareblack.png', 'correct_response': 'right', 'condition': 'go'}, {'fileName': 'circleblack.png', 'correct_response': 'left', 'condition': 'go'}, {'fileName': 'circleblack.png', 'correct_response': 'left', 'condition': 'stop'}, {'fileName': 'circleblack.png', 'correct_response': 'left', 'condition': 'go'}, {'fileName': 'squareblack.png', 'correct_response': 'right', 'condition': 'stop'}, {'fileName': 'squareblack.png', 'correct_response': 'right', 'condition': 'go'}, {'fileName': 'squareblack.png', 'correct_response': 'right', 'condition': 'stop'}, {'fileName': 'circleblack.png', 'correct_response': 'left', 'condition': 'go'}, {'fileName': 'circleblack.png', 'correct_response': 'left', 'condition': 'go'}, {'fileName': 'circleblack.png', 'correct_response': 'left', 'condition': 'stop'}, {'fileName': 'squareblack.png', 'correct_response': 'right', 'condition': 'stop'}, {'fileName': 'squareblack.png', 'correct_response': 'right', 'condition': 'stop'}, {'fileName': 'squareblack.png', 'correct_response': 'right', 'condition': 'go'}, {'fileName': 'squareblack.png', 'correct_response': 'right', 'condition': 'go'}, {'fileName': 'squareblack.png', 'correct_response': 'right', 'condition': 'go'}, {'fileName': 'circleblack.png', 'correct_response': 'left', 'condition': 'go'}, {'fileName': 'circleblack.png', 'correct_response': 'left', 'condition': 'stop'}, {'fileName': 'squareblack.png', 'correct_response': 'right', 'condition': 'go'}, {'fileName': 'circleblack.png', 'correct_response': 'left', 'condition': 'go'}, {'fileName': 'circleblack.png', 'correct_response': 'left', 'condition': 'stop'}, {'fileName': 'squareblack.png', 'correct_response': 'right', 'condition': 'go'}, {'fileName': 'squareblack.png', 'correct_response': 'right', 'condition': 'stop'}, {'fileName': 'circleblack.png', 'correct_response': 'left', 'condition': 'go'}, {'fileName': 'circleblack.png', 'correct_response': 'left', 'condition': 'stop'}, {'fileName': 'circleblack.png', 'correct_response': 'left', 'condition': 'go'}, {'fileName': 'circleblack.png', 'correct_response': 'left', 'condition': 'go'}, {'fileName': 'squareblack.png', 'correct_response': 'right', 'condition': 'go'}, {'fileName': 'squareblack.png', 'correct_response': 'right', 'condition': 'go'}, {'fileName': 'squareblack.png', 'correct_response': 'right', 'condition': 'go'}, {'fileName': 'circleblack.png', 'correct_response': 'left', 'condition': 'go'}, {'fileName': 'squareblack.png', 'correct_response': 'right', 'condition': 'stop'}]",553.6512619592249,553.6512619592249,return,2.776647426187992,,,,,,,,,,,,,,,,,,,,,,,,,,,,,,,,,,,,,,,,,,,,,,,,,,,,,,,,,,,s022,001,2024-07-26_14h00.48.151,simplestop_skeleton,2022.2.2,59.92023224014411,
None,None,0,0,0,0,0,0,0,2,,,,,,,,,,,,,,,556.4738370999694,556.4738370999694,619.4239936284721,stop,squareblack.png,right,0.35,619.4457672797143,619.4457672797143,619.9448963031173,619.9448963031173,619.9615270532668,620.2953732907772,620.7959087602794,620.946212798357,621.9482423700392,621.9482423700392,left,0,1.456211980432272,621.9482423700392,621.9482423700392,622.4577301628888,622.4577301628888,0.0027763433754444122,0.4937439486384392,0.8440740816295147,622.4321943037212,practice,1,,,,,,,,,,,,,,,,,,,,,,,,,,,,,s022,001,2024-07-26_14h00.48.151,simplestop_skeleton,2022.2.2,59.92023224014411,
None,None,0,0,0,0,0,1,1,2,,,,,,,,,,,,,,,,,622.43274172768,go,circleblack.png,left,0.3,622.4577301628888,622.4577301628888,622.9481484629214,622.9481484629214,622.9649393446743,623.2485539019108,623.7494472377002,623.9495772831142,624.9508993923664,624.9675786010921,left,1,1.8865742236375809,624.9675786010921,624.9675786010921,,,0.008057139813899994,0.4895288646221161,0.790103368461132,625.4671319238842,practice,1,,,,,,,,,,,,,,,,,,,,,,,,,,,,,s022,001,2024-07-26_14h00.48.151,simplestop_skeleton,2022.2.2,59.92023224014411,
None,None,0,0,0,0,0,2,2,1,,,,,,,,,,,,,,,,,625.4675892405212,go,squareblack.png,right,0.3,625.4852472469211,625.4852472469211,625.9837271980941,625.9837271980941,626.0004786662757,626.2839804030955,626.7844161652029,626.9848442152143,627.9858230873942,627.9858230873942,right,1,0.8468679860234261,627.9858230873942,627.9858230873942,628.4888677373528,628.4888677373528,0.0016536116600036621,0.4902779832482338,0.7905412949621677,628.4705738499761,practice,1,,,,,,,,,,,,,,,,,,,,,,,,,,,,,s022,001,2024-07-26_14h00.48.151,simplestop_skeleton,2022.2.2,59.92023224014411,
None,None,0,0,0,0,0,3,3,1,,,,,,,,,,,,,,,,,628.4709978252649,stop,circleblack.png,left,0.3,628.4888677373528,628.4888677373528,628.9883834049106,628.9883834049106,628.9883834049106,629.2872391082346,629.7878660783172,629.9879035688937,630.990337908268,630.990337908268,left,1,0.9728846400976181,630.990337908268,630.990337908268,,,0.0017354600131511688,0.4915141798555851,0.7903389781713486,631.4755158275366,practice,1,,,,,,,,,,,,,,,,,,,,,,,,,,,,,s022,001,2024-07-26_14h00.48.151,simplestop_skeleton,2022.2.2,59.92023224014411,
$currentCorrectResponse,$currentGoStim,0,0,0,0,1,0,4,0,,,,,,,,,,,,,,,,,631.4759803153574,go,circleblack.png,left,0.25,631.4945771060884,631.4945771060884,631.9914843924344,631.9914843924344,632.0082483589649,632.2419297285378,632.7424111999571,632.9925457388163,633.9924912750721,634.0090001933277,left,1,1.148628942668438,634.0090001933277,634.0090001933277,634.511736843735,634.511736843735,0.0013736598193645477,0.4898356571793556,0.739997323602438,634.493834991008,practice,1,,,,,,,,,,,,,,,,,,,,,,,,,,,,,s022,001,2024-07-26_14h00.48.151,simplestop_skeleton,2022.2.2,59.92023224014411,
None,None,0,0,0,0,1,1,5,3,,,,,,,,,,,,,,,,,634.4942847564816,go,squareblack.png,right,0.25,634.511736843735,634.511736843735,635.0124695636332,635.0124695636332,635.0124695636332,635.2605198733509,635.7611497789621,636.0115161091089,637.0133774094284,637.0133774094284,right,1,0.5315590091049671,637.0133774094284,637.0133774094284,,,0.0016907863318920135,0.4910925254225731,0.7405727915465832,637.4984149746597,practice,1,,,,,,,,,,,,,,,,,,,,,,,,,,,,,s022,001,2024-07-26_14h00.48.151,simplestop_skeleton,2022.2.2,59.92023224014411,
None,None,0,0,0,0,1,2,6,3,,,,,,,,,,,,,,,,,637.498835220933,stop,squareblack.png,right,0.25,637.5168114751577,637.5168114751577,638.0148546360433,638.0148546360433,638.0314928330481,638.2650733552873,638.7660813629627,639.0161398723722,640.0174289308488,640.0174289308488,None,0,,640.0174289308488,640.0174289308488,640.5222645439208,640.5222645439208,0.0012002475559711456,0.4901438392698765,0.7404448874294758,640.5020453035831,practice,1,,,,,,,,,,,,,,,,,,,,,,,,,,,,,s022,001,2024-07-26_14h00.48.151,simplestop_skeleton,2022.2.2,59.92023224014411,
None,None,0,0,0,0,1,3,7,1,,,,,,,,,,,,,,,,,640.5024636238813,go,circleblack.png,left,0.3,640.5222645439208,640.5222645439208,641.018373310566,641.018373310566,641.0351711325347,641.3184978999197,641.8195812962949,642.0200827121735,643.0193031728268,643.0359403155744,left,1,0.8504151366651058,643.0359403155744,643.0359403155744,643.5381852388382,643.5381852388382,0.0020776577293872833,0.48987533524632454,0.7905434593558311,643.5205427818,practice,1,,,,,,,,,,,,,,,,,,,,,,,,,,,,,s022,001,2024-07-26_14h00.48.151,simplestop_skeleton,2022.2.2,59.92023224014411,
$currentCorrectResponse,$currentGoStim,0,0,0,0,2,0,8,0,,,,,,,,,,,,,,,,,643.5209646001458,go,circleblack.png,left,0.3,643.5381852388382,643.5381852388382,644.0370392240584,644.0370392240584,644.0539365708828,644.3372012898326,644.837776646018,645.0379946231842,646.0407146550715,646.0407146550715,left,1,0.545847199857235,646.0407146550715,646.0407146550715,646.5437130592763,646.5437130592763,0.0012465491890907288,0.49015026167035103,0.7902186885476112,646.5250775963068,practice,1,,,,,,,,,,,,,,,,,,,,,,,,,,,,,s022,001,2024-07-26_14h00.48.151,simplestop_skeleton,2022.2.2,59.92023224014411,
None,None,0,0,0,0,2,1,9,2,,,,,,,,,,,,,,,,,646.5254940316081,stop,circleblack.png,left,0.3,646.5437130592763,646.5437130592763,647.0417495183647,647.0417495183647,647.0580832287669,647.3418260663748,647.8411796353757,648.0410771854222,649.0429148636758,649.0429148636758,left,1,0.43110691756010056,649.0429148636758,649.0429148636758,649.5473930165172,649.5473930165172,0.0012874267995357513,0.4900067634880543,0.7903400622308254,649.5272262580693,practice,1,,,,,,,,,,,,,,,,,,,,,,,,,,,,,s022,001,2024-07-26_14h00.48.151,simplestop_skeleton,2022.2.2,59.92023224014411,
None,None,0,0,0,0,2,2,10,3,,,,,,,,,,,,,,,,,649.5276412963867,go,squareblack.png,right,0.25,649.5473930165172,649.5473930165172,650.0453883782029,650.0453883782029,650.062163002789,650.293783839792,650.7944017872214,651.0614234767854,652.0474405288696,652.0474405288696,right,1,1.0570358447730541,652.0474405288696,652.0474405288696,652.550577390939,652.550577390939,0.004697650671005249,0.4918104261159897,0.7403395846486092,652.5318536683917,practice,1,,,,,,,,,,,,,,,,,,,,,,,,,,,,,s022,001,2024-07-26_14h00.48.151,simplestop_skeleton,2022.2.2,59.92023224014411,
None,None,0,0,0,0,2,3,11,3,,,,,,,,,,,,,,,,,652.5322662256658,go,squareblack.png,right,0.25,652.550577390939,652.550577390939,653.0482960008085,653.0482960008085,653.0649281144142,653.2984820306301,653.7992886081338,654.04941399768,655.0489893257618,655.065666243434,right,1,1.056807093322277,655.065666243434,655.065666243434,655.5675631761551,655.5675631761551,0.0011816732585430145,0.49023347347974777,0.7404804229736328,655.5503204129636,practice,1,,,,,,,,,,,,,,,,,,,,,,,,,,,,,s022,001,2024-07-26_14h00.48.151,simplestop_skeleton,2022.2.2,59.92023224014411,
$currentCorrectResponse,$currentGoStim,0,0,0,0,3,0,12,0,,,,,,,,,,,,,,,,,655.5507401749492,stop,squareblack.png,right,0.25,655.5675631761551,655.5675631761551,656.0674249306321,656.0674249306321,656.0674249306321,656.3169414028525,656.8175892271101,657.0679728835821,658.0703479610384,658.0703479610384,right,1,0.41246819123625755,658.0703479610384,658.0703479610384,,,0.0011709481477737427,0.4905710369348526,0.7405418232083321,658.5548864342272,practice,1,,,,,,,,,,,,,,,,,,,,,,,,,,,,,s022,001,2024-07-26_14h00.48.151,simplestop_skeleton,2022.2.2,59.92023224014411,
None,None,0,0,0,0,3,1,13,2,,,,,,,,,,,,,,,,,658.5553055368364,stop,circleblack.png,left,0.2,658.5812713876367,658.5812713876367,659.0714184306562,659.0714184306562,659.0880485661328,659.2716681435704,659.7723686769605,660.0728088691831,661.074029725045,661.0904380343854,None,0,,661.0904380343854,661.0904380343854,661.5958003997803,661.5958003997803,0.008872605860233307,0.490345124155283,0.6907063499093056,661.5756982266903,practice,1,,,,,,,,,,,,,,,,,,,,,,,,,,,,,s022,001,2024-07-26_14h00.48.151,simplestop_skeleton,2022.2.2,59.92023224014411,
None,None,0,0,0,0,3,2,14,2,,,,,,,,,,,,,,,,,661.5761388428509,go,squareblack.png,right,0.25,661.5958003997803,661.5958003997803,662.0914101749659,662.0914101749659,662.1083283349872,662.34228971228,662.8423927612603,663.0926170051098,664.0922591872513,664.1090815104544,right,1,1.0577586255967617,664.1090815104544,664.1090815104544,664.6112486161292,664.6112486161292,0.0018854998052120209,0.48956407979130745,0.7400687076151371,664.5938056148589,practice,1,,,,,,,,,,,,,,,,,,,,,,,,,,,,,s022,001,2024-07-26_14h00.48.151,simplestop_skeleton,2022.2.2,59.92023224014411,
$currentCorrectResponse,$currentGoStim,0,0,0,0,3,3,15,0,,,,,,,,,,,,,,,,,664.5942551866174,go,squareblack.png,right,0.25,664.6112486161292,664.6112486161292,665.1099849641323,665.1099849641323,665.1266715377569,665.3603774048388,665.8608108684421,666.1116546802223,667.1129169799387,667.1129169799387,right,1,0.9682507291436195,667.1129169799387,667.1129169799387,,,0.0011956579983234406,0.49000606685876846,0.740465447306633,667.5982788950205,practice,1,,,,,,,,,,,,,,,,,,,,,,,,,,,,,s022,001,2024-07-26_14h00.48.151,simplestop_skeleton,2022.2.2,59.92023224014411,
$currentCorrectResponse,$currentGoStim,0,0,0,0,4,0,16,0,,,,,,,,,,,,,,,,,667.598701633513,go,squareblack.png,right,0.25,667.6168291121721,667.6168291121721,668.1147812306881,668.1147812306881,668.1315653771162,668.365088801831,668.865491438657,669.1163935177028,670.115494556725,670.1321711726487,right,1,0.9893765933811665,670.1321711726487,670.1321711726487,670.6397466287017,670.6397466287017,0.0011922270059585571,0.49018147215247154,0.7404395565390587,670.6169541366398,practice,1,,,,,,,,,,,,,,,,,,,,,,,,,,,,,s022,001,2024-07-26_14h00.48.151,simplestop_skeleton,2022.2.2,59.92023224014411,
None,None,0,0,0,0,4,1,17,1,,,,,,,,,,,,,,,,,670.6174027808011,go,circleblack.png,left,0.25,670.6397466287017,670.6397466287017,671.13337880373,671.13337880373,671.1500672101974,671.3835889063776,671.8844622634351,672.13460213691,673.1369714327157,673.1538432464004,left,1,1.0847698897123337,673.1538432464004,673.1538432464004,673.6580512411892,673.6580512411892,0.007368374615907669,0.4901761934161186,0.7402126602828503,673.6384245976806,practice,1,,,,,,,,,,,,,,,,,,,,,,,,,,,,,s022,001,2024-07-26_14h00.48.151,simplestop_skeleton,2022.2.2,59.92023224014411,
None,None,0,0,0,0,4,2,18,3,,,,,,,,,,,,,,,,,673.6388527713716,stop,circleblack.png,left,0.25,673.6580512411892,673.6580512411892,674.1548020392656,674.1548020392656,674.1713687442243,674.405188459903,674.9057071879506,675.1561744511127,676.1558825932443,676.1724946275353,None,0,,676.1724946275353,676.1724946275353,676.6742306388915,676.6742306388915,0.001252938061952591,0.48998017236590385,0.7402069829404354,676.6572470776737,practice,1,,,,,,,,,,,,,,,,,,,,,,,,,,,,,s022,001,2024-07-26_14h00.48.151,simplestop_skeleton,2022.2.2,59.92023224014411,
None,None,0,0,0,0,4,3,19,2,,,,,,,,,,,,,,,,,676.6576647758484,go,circleblack.png,left,0.3,676.6742306388915,676.6742306388915,677.1735226176679,677.1735226176679,677.1735226176679,677.4737265855074,677.975784201175,678.1747799441218,679.1772313192487,679.1772313192487,left,1,0.7401979267597198,679.1772313192487,679.1772313192487,,,0.0012116320431232452,0.4903283566236496,0.7904416024684906,679.6618901602924,practice,1,,,,,,,,,,,,,,,,,,,,,,,,,,,,,s022,001,2024-07-26_14h00.48.151,simplestop_skeleton,2022.2.2,59.92023224014411,
$currentCorrectResponse,$currentGoStim,0,0,0,0,5,0,20,0,,,,,,,,,,,,,,,,,679.6624519005418,go,circleblack.png,left,0.3,679.6828286200762,679.6828286200762,680.1780561134219,680.1780561134219,680.1947277523577,680.4784318134189,680.9791133180261,681.1778636947274,682.1788226999342,682.19556376338,left,1,0.6628850921988487,682.19556376338,682.19556376338,682.6985650658607,682.6985650658607,0.001469586044549942,0.4893553741276264,0.7897807471454144,682.6802225336432,practice,1,,,,,,,,,,,,,,,,,,,,,,,,,,,,,s022,001,2024-07-26_14h00.48.151,simplestop_skeleton,2022.2.2,59.92023224014411,
None,None,0,0,0,0,5,1,21,1,,,,,,,,,,,,,,,,,682.6806768216193,go,circleblack.png,left,0.3,682.6985650658607,682.6985650658607,683.1966503635049,683.1966503635049,683.2134006246924,683.4970318898559,683.9975055530667,684.1976870596409,685.2002013511956,685.2002013511956,left,1,0.8865937031805515,685.2002013511956,685.2002013511956,685.7100176252425,685.7100176252425,0.001326199620962143,0.4897848963737488,0.7901179753243923,685.6850916482508,practice,1,,,,,,,,,,,,,,,,,,,,,,,,,,,,,s022,001,2024-07-26_14h00.48.151,simplestop_skeleton,2022.2.2,59.92023224014411,
None,None,0,0,0,0,5,2,22,3,,,,,,,,,,,,,,,,,685.6855998672545,go,squareblack.png,right,0.3,685.7100176252425,685.7100176252425,686.20150866732,686.20150866732,686.2180390767753,686.5016582049429,687.002494353801,687.2025148533285,688.2021973952651,688.2188202477992,right,1,1.088899616152048,688.2188202477992,688.2188202477992,,,0.007614485919475555,0.4897860698401928,0.7901365794241428,688.7040211260319,practice,1,,,,,,,,,,,,,,,,,,,,,,,,,,,,,s022,001,2024-07-26_14h00.48.151,simplestop_skeleton,2022.2.2,59.92023224014411,
None,None,0,0,0,0,5,3,23,1,,,,,,,,,,,,,,,,,688.704454086721,stop,squareblack.png,right,0.3,688.7211005911231,688.7211005911231,689.220354180783,689.220354180783,689.236933875829,689.5213674493134,690.02091409266,690.2210548147559,691.222037833184,691.222037833184,None,0,,691.222037833184,691.222037833184,,,0.001175563782453537,0.48975034803152084,0.7915879301726818,691.7082477137446,practice,1,,,,,,,,,,,,,,,,,,,,,,,,,,,,,s022,001,2024-07-26_14h00.48.151,simplestop_skeleton,2022.2.2,59.92023224014411,
,,0,0,0,0,,,,,,,,,,,,,"[{'fileName': 'circleblack.png', 'correct_response': 'left', 'condition': 'go'}, {'fileName': 'squareblack.png', 'correct_response': 'right', 'condition': 'go'}, {'fileName': 'circleblack.png', 'correct_response': 'left', 'condition': 'go'}, {'fileName': 'circleblack.png', 'correct_response': 'left', 'condition': 'go'}, {'fileName': 'squareblack.png', 'correct_response': 'right', 'condition': 'stop'}, {'fileName': 'squareblack.png', 'correct_response': 'right', 'condition': 'go'}, {'fileName': 'circleblack.png', 'correct_response': 'left', 'condition': 'stop'}, {'fileName': 'squareblack.png', 'correct_response': 'right', 'condition': 'stop'}, {'fileName': 'squareblack.png', 'correct_response': 'right', 'condition': 'go'}, {'fileName': 'squareblack.png', 'correct_response': 'right', 'condition': 'go'}, {'fileName': 'circleblack.png', 'correct_response': 'left', 'condition': 'stop'}, {'fileName': 'circleblack.png', 'correct_response': 'left', 'condition': 'go'}, {'fileName': 'circleblack.png', 'correct_response': 'left', 'condition': 'go'}, {'fileName': 'circleblack.png', 'correct_response': 'left', 'condition': 'go'}, {'fileName': 'squareblack.png', 'correct_response': 'right', 'condition': 'go'}, {'fileName': 'squareblack.png', 'correct_response': 'right', 'condition': 'go'}, {'fileName': 'squareblack.png', 'correct_response': 'right', 'condition': 'stop'}, {'fileName': 'circleblack.png', 'correct_response': 'left', 'condition': 'go'}, {'fileName': 'squareblack.png', 'correct_response': 'right', 'condition': 'stop'}, {'fileName': 'circleblack.png', 'correct_response': 'left', 'condition': 'stop'}, {'fileName': 'squareblack.png', 'correct_response': 'right', 'condition': 'go'}, {'fileName': 'circleblack.png', 'correct_response': 'left', 'condition': 'stop'}, {'fileName': 'circleblack.png', 'correct_response': 'left', 'condition': 'go'}, {'fileName': 'squareblack.png', 'correct_response': 'right', 'condition': 'go'}]",,,,,,,,,,,,,,,,,,,,,,,,,,,,,,,,,,,,691.7318262942135,691.7318262942135,return,13.26869460195303,,,,,,,,,,,,,,,,,,,,,,,,,s022,001,2024-07-26_14h00.48.151,simplestop_skeleton,2022.2.2,59.92023224014411,
None,None,,,,,,,,,0,0,0,0,0,0,0,2,,,,,,,,,712.7197557501495,stop,squareblack.png,right,0.35,,,,,,,,,,,,,,,,,,0.0024835243821144104,0.4844493232667446,0.8348755687475204,715.2184766829014,test,1,,,,,705.0232170112431,705.0232170112431,712.740670606494,713.2312233783305,713.2312233783305,713.2478501200676,713.5816517695785,714.0822527073324,714.2324094995856,715.2379028089345,None,0,0.4,,,,,,,,,,,,s022,001,2024-07-26_14h00.48.151,simplestop_skeleton,2022.2.2,59.92023224014411,
None,None,,,,,,,,,0,0,0,0,0,1,1,1,,,,,,,,,715.2190327718854,go,squareblack.png,right,0.4,,,,,,,,,,,,,,,,,,0.0020673610270023346,0.48876268044114113,,717.7195571437478,test,1,,,,,,,715.2379028089345,715.734291985631,715.734291985631,715.7509308122098,716.1343935094774,716.6338624171913,716.7338326610625,717.7415006831288,right,1,0.4,0.5884171016514301,,,,,,,,,,,s022,001,2024-07-26_14h00.48.151,simplestop_skeleton,2022.2.2,59.92023224014411,
$currentCorrectResponse,$currentGoStim,,,,,,,,,0,0,0,0,0,2,2,0,,,,,,,,,717.7199954278767,stop,circleblack.png,left,0.4,,,,,,,,,,,,,,,,,,0.007329721003770828,0.48952075466513634,0.8900231756269932,720.2244940698147,test,1,,,,,,,717.7415006831288,718.2353664673865,718.2353664673865,718.2520056031644,718.636212259531,719.1364404596388,719.2364970631897,720.2417486235499,None,0,0.45,,,,,,,,,,,,s022,001,2024-07-26_14h00.48.151,simplestop_skeleton,2022.2.2,59.92023224014411,
None,None,,,,,,,,,0,0,0,0,0,3,3,1,,,,,,,,,720.2249445803463,go,squareblack.png,right,0.45,,,,,,,,,,,,,,,,,,0.0020640604197978973,0.4887560121715069,,722.725911591202,test,1,,,,,,,720.2417486235499,720.7393797412515,720.7393797412515,720.7561241127551,721.1900396347046,721.6908272765577,721.7408784739673,722.7449762672186,right,1,0.45,0.739851351827383,,,,,,,,,,,s022,001,2024-07-26_14h00.48.151,simplestop_skeleton,2022.2.2,59.92023224014411,
None,None,,,,,,,,,0,0,0,0,1,0,4,1,,,,,,,,,722.7263628616929,go,circleblack.png,left,0.45,,,,,,,,,,,,,,,,,,0.0026371031999588013,0.4877684488892555,,725.2274383828044,test,1,,,,,,,722.7449762672186,723.2407200932503,723.2407200932503,723.257615365088,723.6913850642741,724.191840313375,724.2417556233704,725.2442071698606,left,1,0.45,0.6125447563827038,,,,,,,,,,,s022,001,2024-07-26_14h00.48.151,simplestop_skeleton,2022.2.2,59.92023224014411,
$currentCorrectResponse,$currentGoStim,,,,,,,,,0,0,0,0,1,1,5,0,,,,,,,,,725.2278874740005,stop,circleblack.png,left,0.45,,,,,,,,,,,,,,,,,,0.0013511329889297485,0.48965035378932953,0.9402843192219734,727.7317802682519,test,1,,,,,,,725.2442071698606,725.7435049638152,725.7435049638152,725.7602079436183,726.1939633637667,726.6949938498437,726.7446753978729,727.751446582377,left,1,0.4,0.5519093759357929,,,,,,,,,,,s022,001,2024-07-26_14h00.48.151,simplestop_skeleton,2022.2.2,59.92023224014411,
$currentCorrectResponse,$currentGoStim,,,,,,,,,0,0,0,0,1,2,6,0,,,,,,,,,727.7322174757719,go,squareblack.png,right,0.4,,,,,,,,,,,,,,,,,,0.0017540305852890015,0.4896206855773926,,730.233126334846,test,1,,,,,,,727.751446582377,728.2477817460895,728.2477817460895,728.2644006833434,728.648197427392,729.1491151563823,729.2475599050522,730.2516023367643,right,1,0.4,0.6674220561981201,,,,,,,,,,,s022,001,2024-07-26_14h00.48.151,simplestop_skeleton,2022.2.2,59.92023224014411,
None,None,,,,,,,,,0,0,0,0,1,3,7,3,,,,,,,,,730.2335733138025,go,circleblack.png,left,0.4,,,,,,,,,,,,,,,,,,0.002234991639852524,0.4890926033258438,,732.7363914176822,test,1,,,,,,,730.2516023367643,730.7491360008717,730.7491360008717,730.7656927295029,731.1496664397418,731.6502199694514,731.750167787075,732.7552892155945,left,1,0.4,0.6828236468136311,,,,,,,,,,,s022,001,2024-07-26_14h00.48.151,simplestop_skeleton,2022.2.2,59.92023224014411,
$currentCorrectResponse,$currentGoStim,,,,,,,,,0,0,0,0,2,0,8,0,,,,,,,,,732.7368256263435,stop,squareblack.png,right,0.4,,,,,,,,,,,,,,,,,,0.0015994347631931305,0.49061234295368195,0.8911393880844116,735.2405308298767,test,1,,,,,,,732.7552892155945,733.2531461939216,733.2531461939216,733.2700276710093,733.6537590250373,734.154214438051,734.2543176822364,735.261673271656,None,0,0.45,,,,,,,,,,,,s022,001,2024-07-26_14h00.48.151,simplestop_skeleton,2022.2.2,59.92023224014411,
None,None,,,,,,,,,0,0,0,0,2,1,9,1,,,,,,,,,735.2409815937281,go,circleblack.png,left,0.45,,,,,,,,,,,,,,,,,,0.0028586238622665405,0.4869850389659405,,737.7413334622979,test,1,,,,,,,735.261673271656,735.7546367682517,735.7546367682517,735.7713385224342,736.2052378952503,736.7058708146214,736.7557129003108,737.75887221843,left,1,0.45,0.7985709756612778,,,,,,,,,,,s022,001,2024-07-26_14h00.48.151,simplestop_skeleton,2022.2.2,59.92023224014411,
$currentCorrectResponse,$currentGoStim,,,,,,,,,0,0,0,0,2,2,10,0,,,,,,,,,737.7417942993343,go,squareblack.png,right,0.45,,,,,,,,,,,,,,,,,,0.0016096457839012146,0.49066027998924255,,740.2442044988275,test,1,,,,,,,737.75887221843,738.2592172548175,738.2592172548175,738.2592172548175,738.7079814709723,739.2093554735184,739.259234841913,740.2639289461076,right,1,0.45,0.7666905634105206,,,,,,,,,,,s022,001,2024-07-26_14h00.48.151,simplestop_skeleton,2022.2.2,59.92023224014411,
None,None,,,,,,,,,0,0,0,0,2,3,11,2,,,,,,,,,740.2446729578078,go,circleblack.png,left,0.45,,,,,,,,,,,,,,,,,,0.002604864537715912,0.48758577182888985,,742.7470460832119,test,1,,,,,,,740.2639289461076,740.7602085620165,740.7602085620165,740.776803996414,741.2107281349599,741.7111711390316,741.76131137833,742.778059322387,left,1,0.45,0.7333233766257763,,,,,,,,,,,s022,001,2024-07-26_14h00.48.151,simplestop_skeleton,2022.2.2,59.92023224014411,
None,None,,,,,,,,,0,0,0,0,3,0,12,3,,,,,,,,,742.7475112266839,stop,circleblack.png,left,0.45,,,,,,,,,,,,,,,,,,0.0012512393295764923,0.48935047537088394,0.9398241639137268,745.2511248514056,test,1,,,,,,,742.778059322387,743.2627882547677,743.2627882547677,743.2795532420278,743.7134312987328,744.2139840200543,744.2639552988112,745.2700454480946,None,0,0.5,,,,,,,,,,,,s022,001,2024-07-26_14h00.48.151,simplestop_skeleton,2022.2.2,59.92023224014411,
None,None,,,,,,,,,0,0,0,0,3,1,13,1,,,,,,,,,745.2516592852771,go,circleblack.png,left,0.5,,,,,,,,,,,,,,,,,,0.0013978853821754456,0.48947854340076447,,747.7537647262216,test,1,,,,,,,745.2700454480946,745.7671055532992,745.7671055532992,745.783689931035,746.2676110044122,746.7684138417244,746.7684138417244,747.7723720706999,left,1,0.5,0.822355255484581,,,,,,,,,,,s022,001,2024-07-26_14h00.48.151,simplestop_skeleton,2022.2.2,59.92023224014411,
None,None,,,,,,,,,0,0,0,0,3,2,14,2,,,,,,,,,747.7542326822877,go,squareblack.png,right,0.5,,,,,,,,,,,,,,,,,,0.0024210140109062195,0.48751580342650414,,750.2550243921578,test,1,,,,,,,747.7723720706999,748.2684418298304,748.2684418298304,748.2850638777018,748.7690951190889,749.2696022763848,749.2696022763848,750.2719243727624,right,1,0.5,0.7804208546876907,,,,,,,,,,,s022,001,2024-07-26_14h00.48.151,simplestop_skeleton,2022.2.2,59.92023224014411,
None,None,,,,,,,,,0,0,0,0,3,3,15,2,,,,,,,,,750.2554783374071,go,squareblack.png,right,0.5,,,,,,,,,,,,,,,,,,0.0012131929397583008,0.48970426991581917,,752.7592756859958,test,1,,,,,,,750.2719243727624,750.7712998725474,750.7712998725474,750.7712998725474,751.2717086821795,751.7722439840436,751.7722439840436,752.7790018357337,right,1,0.5,0.6306782811880112,,,,,,,,,,,s022,001,2024-07-26_14h00.48.151,simplestop_skeleton,2022.2.2,59.92023224014411,
$currentCorrectResponse,$currentGoStim,,,,,,,,,0,0,0,0,4,0,16,0,,,,,,,,,752.7597172185779,go,circleblack.png,left,0.5,,,,,,,,,,,,,,,,,,0.0019016265869140625,0.48970428481698036,,755.2628382146358,test,1,,,,,,,752.7790018357337,753.2753510996699,753.2753510996699,753.2920862734318,753.7759289592505,754.2918303534389,754.2752036750317,755.2841028906405,left,1,0.5,0.6446647867560387,,,,,,,,,,,s022,001,2024-07-26_14h00.48.151,simplestop_skeleton,2022.2.2,59.92023224014411,
None,None,,,,,,,,,0,0,0,0,4,1,17,1,,,,,,,,,755.2632983699441,go,squareblack.png,right,0.5,,,,,,,,,,,,,,,,,,0.0023806989192962646,0.4866796135902405,,757.763221975416,test,1,,,,,,,755.2841028906405,755.7769084051251,755.7769084051251,755.7933078929782,756.277401983738,756.7777635529637,756.7777635529637,757.7807901836932,right,1,0.5,1.0457678511738777,,,,,,,,,,,s022,001,2024-07-26_14h00.48.151,simplestop_skeleton,2022.2.2,59.92023224014411,
$currentCorrectResponse,$currentGoStim,,,,,,,,,0,0,0,0,4,2,18,0,,,,,,,,,757.763659413904,go,circleblack.png,left,0.5,,,,,,,,,,,,,,,,,,0.0018046610057353973,0.4898010604083538,,760.2676312327385,test,1,,,,,,,757.7807901836932,758.2794303260744,758.2794303260744,758.2960400693119,758.7798875197768,759.2804876752198,759.2804876752198,760.2870001979172,left,1,0.5,0.8281113728880882,,,,,,,,,,,s022,001,2024-07-26_14h00.48.151,simplestop_skeleton,2022.2.2,59.92023224014411,
None,None,,,,,,,,,0,0,0,0,4,3,19,1,,,,,,,,,760.2680974528193,stop,circleblack.png,left,0.5,,,,,,,,,,,,,,,,,,0.0014054737985134125,0.48951616138219833,0.9901744164526463,762.7701157107949,test,1,,,,,,,760.2870001979172,760.7835433073342,760.7835433073342,760.8003109432757,761.2841505520046,761.7836573310196,761.7836573310196,762.7890570946038,left,1,0.45,0.684423565864563,,,,,,,,,,,s022,001,2024-07-26_14h00.48.151,simplestop_skeleton,2022.2.2,59.92023224014411,
$currentCorrectResponse,$currentGoStim,,,,,,,,,0,0,0,0,5,0,20,0,,,,,,,,,762.7705691829324,go,circleblack.png,left,0.45,,,,,,,,,,,,,,,,,,0.0018387474119663239,0.4876353032886982,,765.2715665325522,test,1,,,,,,,762.7890570946038,763.2850550860167,763.2850550860167,763.3016223423183,763.7356325984001,764.2359341867268,764.2861970551312,765.2940889783204,left,1,0.45,0.7287787348031998,,,,,,,,,,,s022,001,2024-07-26_14h00.48.151,simplestop_skeleton,2022.2.2,59.92023224014411,
None,None,,,,,,,,,0,0,0,0,5,1,21,3,,,,,,,,,765.2720257639885,stop,squareblack.png,right,0.45,,,,,,,,,,,,,,,,,,0.007468078285455704,0.4897887855768204,0.9401418417692184,767.7760218121111,test,1,,,,,,,765.2940889783204,765.787952452898,765.787952452898,765.8045400716364,766.2381916083395,766.7389378324151,766.7889572642744,767.7936208061874,None,0,0.5,,,,,,,,,,,,s022,001,2024-07-26_14h00.48.151,simplestop_skeleton,2022.2.2,59.92023224014411,
None,None,,,,,,,,,0,0,0,0,5,2,22,3,,,,,,,,,767.7764537967741,go,squareblack.png,right,0.5,,,,,,,,,,,,,,,,,,0.0012861266732215881,0.4896589554846287,,770.277424518019,test,1,,,,,,,767.7936208061874,768.2919929176569,768.2919929176569,768.3087541386485,768.79249939695,769.2920649722219,769.2920649722219,770.2946226298809,right,1,0.5,0.9485251940786839,,,,,,,,,,,s022,001,2024-07-26_14h00.48.151,simplestop_skeleton,2022.2.2,59.92023224014411,
None,None,,,,,,,,,0,0,0,0,5,3,23,2,,,,,,,,,770.27785442397,stop,squareblack.png,right,0.5,,,,,,,,,,,,,,,,,,0.001162797212600708,0.489553090184927,0.989950630813837,772.7802976407111,test,1,,,,,,,770.2946226298809,770.7932379283011,770.7932379283011,770.8099664710462,771.293887283653,771.7943525500596,771.7943525500596,772.7993807867169,None,0,0.55,,,,,,,,,,,,s022,001,2024-07-26_14h00.48.151,simplestop_skeleton,2022.2.2,59.92023224014411,
None,None,,,,,,,,,0,0,0,0,6,0,24,1,,,,,,,,,772.7807518877089,go,circleblack.png,left,0.55,,,,,,,,,,,,,,,,,,0.0018656663596630096,0.4914877191185951,,775.2879832461476,test,1,,,,,,,772.7993807867169,773.2976270653307,773.2976270653307,773.3141219615936,773.8466314896941,774.3470761403441,774.297035112977,775.3058819845319,left,1,0.55,0.7148507684469223,,,,,,,,,,,s022,001,2024-07-26_14h00.48.151,simplestop_skeleton,2022.2.2,59.92023224014411,
None,None,,,,,,,,,0,0,0,0,6,1,25,3,,,,,,,,,775.2884197048843,go,circleblack.png,left,0.55,,,,,,,,,,,,,,,,,,0.001279100775718689,0.4849248081445694,,777.785751607269,test,1,,,,,,,775.3058819845319,775.8002506569028,775.8002506569028,775.8168058916926,776.3507705926895,776.8517722934484,776.8014891408384,777.8031764961779,left,1,0.55,0.7769262567162514,,,,,,,,,,,s022,001,2024-07-26_14h00.48.151,simplestop_skeleton,2022.2.2,59.92023224014411,
None,None,,,,,,,,,0,0,0,0,6,2,26,2,,,,,,,,,777.7862220779061,stop,circleblack.png,left,0.55,,,,,,,,,,,,,,,,,,0.0012635104358196259,0.48910218477249146,1.0399275980889797,780.2890823371708,test,1,,,,,,,777.8031764961779,778.3015928938985,778.3015928938985,778.3182235844433,778.8522400259972,779.352795612067,779.3026077337563,780.3084766566753,left,1,0.5,0.4544617459177971,,,,,,,,,,,s022,001,2024-07-26_14h00.48.151,simplestop_skeleton,2022.2.2,59.92023224014411,
None,None,,,,,,,,,0,0,0,0,6,3,27,1,,,,,,,,,780.2896721996367,stop,squareblack.png,right,0.5,,,,,,,,,,,,,,,,,,0.002865944057703018,0.4878968298435211,0.9882842972874641,782.792343813926,test,1,,,,,,,780.3084766566753,780.8044104985893,780.8044104985893,780.8212135061622,781.3048925288022,781.8055795133114,781.8055795133114,782.8101754561067,None,0,0.55,,,,,,,,,,,,s022,001,2024-07-26_14h00.48.151,simplestop_skeleton,2022.2.2,59.92023224014411,
None,None,,,,,,,,,0,0,0,0,7,0,28,1,,,,,,,,,782.79279031232,stop,squareblack.png,right,0.55,,,,,,,,,,,,,,,,,,0.0011876188218593597,0.48978930711746216,1.0391041785478592,785.2939695939422,test,1,,,,,,,782.8101754561067,783.3085574358702,783.3085574358702,783.3251281529665,783.8579706028104,784.3581478260458,784.3082104362547,785.311263743788,None,0,0.6,,,,,,,,,,,,s022,001,2024-07-26_14h00.48.151,simplestop_skeleton,2022.2.2,59.92023224014411,
None,None,,,,,,,,,0,0,0,0,7,1,29,2,,,,,,,,,785.2944263145328,go,squareblack.png,right,0.6,,,,,,,,,,,,,,,,,,0.0013433322310447693,0.48925795406103134,,787.7981498911977,test,1,,,,,,,785.311263743788,785.8099167719483,785.8099167719483,785.8268170133233,786.4104643389583,786.9110423512757,786.8111540935934,787.8160049393773,right,1,0.6,1.0332903526723385,,,,,,,,,,,s022,001,2024-07-26_14h00.48.151,simplestop_skeleton,2022.2.2,59.92023224014411,
None,None,,,,,,,,,0,0,0,0,7,2,30,3,,,,,,,,,787.7986032813787,go,squareblack.png,right,0.6,,,,,,,,,,,,,,,,,,0.0014058388769626617,0.48954132571816444,,790.2998945303261,test,1,,,,,,,787.8160049393773,788.3138714618981,788.3138714618981,788.3310633525252,788.914604768157,789.4140081591904,789.3138502761722,790.3174027949572,right,1,0.6,0.6592625714838505,,,,,,,,,,,s022,001,2024-07-26_14h00.48.151,simplestop_skeleton,2022.2.2,59.92023224014411,
None,None,,,,,,,,,0,0,0,0,7,3,31,2,,,,,,,,,790.300357863307,go,squareblack.png,right,0.6,,,,,,,,,,,,,,,,,,0.0012443140149116516,0.48883431404829025,,792.8019714206457,test,1,,,,,,,790.3174027949572,790.815297819674,790.815297819674,790.832013182342,791.4159257523715,791.9165324606001,791.8164608627558,792.8248864598572,right,1,0.6,0.8432468883693218,,,,,,,,,,,s022,001,2024-07-26_14h00.48.151,simplestop_skeleton,2022.2.2,59.92023224014411,
None,None,,,,,,,,,0,0,0,0,8,0,32,3,,,,,,,,,792.8024425245821,go,circleblack.png,left,0.6,,,,,,,,,,,,,,,,,,0.007943332195281982,0.4917997010052204,,795.3058388121426,test,1,,,,,,,792.8248864598572,793.3199633434415,793.3199633434415,793.3366239778697,793.9186892434955,794.4195360168815,794.3193098977208,795.3219460695982,left,1,0.6,0.8340280055999756,,,,,,,,,,,s022,001,2024-07-26_14h00.48.151,simplestop_skeleton,2022.2.2,59.92023224014411,
None,None,,,,,,,,,0,0,0,0,8,1,33,3,,,,,,,,,795.3062718175352,stop,circleblack.png,left,0.6,,,,,,,,,,,,,,,,,,0.0013019517064094543,0.490426953881979,1.089184146374464,797.8092605285347,test,1,,,,,,,795.3219460695982,795.8226202093065,795.8226202093065,795.8226202093065,796.4214726164937,796.9222464188933,796.8221360631287,797.8284695968032,None,0,0.65,,,,,,,,,,,,s022,001,2024-07-26_14h00.48.151,simplestop_skeleton,2022.2.2,59.92023224014411,
None,None,,,,,,,,,0,0,0,0,8,2,34,3,,,,,,,,,797.8096981048584,go,squareblack.png,right,0.65,,,,,,,,,,,,,,,,,,0.0017367489635944366,0.4893728718161583,,800.3106680810452,test,1,,,,,,,797.8284695968032,798.3249317109585,798.3249317109585,798.3417713716626,798.9757360741496,799.4916296452284,799.3265955001116,800.328199736774,right,1,0.65,0.8141034096479416,,,,,,,,,,,s022,001,2024-07-26_14h00.48.151,simplestop_skeleton,2022.2.2,59.92023224014411,
None,None,,,,,,,,,0,0,0,0,8,3,35,3,,,,,,,,,800.3111058138311,go,circleblack.png,left,0.65,,,,,,,,,,,,,,,,,,0.0017593242228031158,0.48924924433231354,,802.8130545914173,test,1,,,,,,,800.328199736774,800.8263237290084,800.8263237290084,800.842995904386,801.4773772507906,801.9774827696383,801.8273886851966,802.8298289477825,left,1,0.65,0.778070542961359,,,,,,,,,,,s022,001,2024-07-26_14h00.48.151,simplestop_skeleton,2022.2.2,59.92023224014411,
None,None,,,,,,,,,0,0,0,0,9,0,36,3,,,,,,,,,802.8135074935853,stop,circleblack.png,left,0.65,,,,,,,,,,,,,,,,,,0.001220937818288803,0.4898585416376591,1.1403393037617207,805.3167533278465,test,1,,,,,,,802.8298289477825,803.3292090184987,803.3292090184987,803.3292090184987,803.9798845387995,804.4805154539645,804.330348610878,805.3359815627337,None,0,0.7,,,,,,,,,,,,s022,001,2024-07-26_14h00.48.151,simplestop_skeleton,2022.2.2,59.92023224014411,
None,None,,,,,,,,,0,0,0,0,9,1,37,1,,,,,,,,,805.3172079473734,go,squareblack.png,right,0.7,,,,,,,,,,,,,,,,,,0.0018061697483062744,0.4900163747370243,,807.8184540420771,test,1,,,,,,,805.3359815627337,805.8334375657141,805.8334375657141,805.8501156754792,806.5342459715903,807.0500480979681,806.8347302861512,807.8356279172003,right,1,0.7,0.8683956302702427,,,,,,,,,,,s022,001,2024-07-26_14h00.48.151,simplestop_skeleton,2022.2.2,59.92023224014411,
None,None,,,,,,,,,0,0,0,0,9,2,38,2,,,,,,,,,807.8188813999295,stop,squareblack.png,right,0.7,,,,,,,,,,,,,,,,,,0.0012309588491916656,0.48984745144844055,1.1910454668104649,810.3231197297573,test,1,,,,,,,807.8356279172003,808.3346307091415,808.3346307091415,808.3513755276799,809.0356831550598,809.5358786359429,809.3357988856733,810.3407323099673,right,1,0.65,0.5756690800189972,,,,,,,,,,,s022,001,2024-07-26_14h00.48.151,simplestop_skeleton,2022.2.2,59.92023224014411,
$currentCorrectResponse,$currentGoStim,,,,,,,,,0,0,0,0,9,3,39,0,,,,,,,,,810.3236498311162,go,circleblack.png,left,0.65,,,,,,,,,,,,,,,,,,0.0025055482983589172,0.48774656280875206,,812.8248686976731,test,1,,,,,,,810.3407323099673,810.8373823538423,810.8373823538423,810.8541189171374,811.4882154688239,811.9888497516513,811.8385746479034,812.8424551934004,left,1,0.65,0.9019948914647102,,,,,,,,,,,s022,001,2024-07-26_14h00.48.151,simplestop_skeleton,2022.2.2,59.92023224014411,
$currentCorrectResponse,$currentGoStim,,,,,,,,,0,0,0,0,10,0,40,0,,,,,,,,,812.8253106363118,stop,circleblack.png,left,0.65,,,,,,,,,,,,,,,,,,0.0012787915766239166,0.49027448892593384,1.1410501673817635,815.3285597227514,test,1,,,,,,,812.8424551934004,813.3416826203465,813.3416826203465,813.3582114167511,813.9922520145774,814.4932332262397,814.342700753361,815.3480317443609,None,0,0.7,,,,,,,,,,,,s022,001,2024-07-26_14h00.48.151,simplestop_skeleton,2022.2.2,59.92023224014411,
None,None,,,,,,,,,0,0,0,0,10,1,41,2,,,,,,,,,815.329010926187,go,circleblack.png,left,0.7,,,,,,,,,,,,,,,,,,0.0014209896326065063,0.4892827533185482,,817.8298967704177,test,1,,,,,,,815.3480317443609,815.8445562981069,815.8445562981069,815.861696369946,816.5451984554529,817.0461272932589,816.8455996252596,817.8477578498423,left,1,0.7,0.9398312978446484,,,,,,,,,,,s022,001,2024-07-26_14h00.48.151,simplestop_skeleton,2022.2.2,59.92023224014411,
$currentCorrectResponse,$currentGoStim,,,,,,,,,0,0,0,0,10,2,42,0,,,,,,,,,817.830332737416,go,circleblack.png,left,0.7,,,,,,,,,,,,,,,,,,0.0013044476509094238,0.48921892046928406,,820.3347991965711,test,1,,,,,,,817.8477578498423,818.3457583785057,818.3457583785057,818.3624638877809,819.0466721691191,819.5470768921077,819.3469579704106,820.3573500141501,left,1,0.7,1.018302045762539,,,,,,,,,,,s022,001,2024-07-26_14h00.48.151,simplestop_skeleton,2022.2.2,59.92023224014411,
None,None,,,,,,,,,0,0,0,0,10,3,43,2,,,,,,,,,820.3353877924383,go,squareblack.png,right,0.7,,,,,,,,,,,,,,,,,,0.0023583248257637024,0.4838292971253395,,822.8352874442935,test,1,,,,,,,820.3573500141501,820.8484012149274,820.8484012149274,820.865184430033,821.5491985455155,822.0503974109888,821.8495146259665,822.8518888279796,right,1,0.7,0.8685690388083458,,,,,,,,,,,s022,001,2024-07-26_14h00.48.151,simplestop_skeleton,2022.2.2,59.92023224014411,
None,None,,,,,,,,,0,0,0,0,11,0,44,1,,,,,,,,,822.8357242420316,go,squareblack.png,right,0.7,,,,,,,,,,,,,,,,,,0.001209855079650879,0.4903346821665764,,825.339366260916,test,1,,,,,,,822.8518888279796,823.3514716178179,823.3514716178179,823.3514716178179,824.0530670844018,824.5525472611189,824.3522527739406,825.3569786287844,right,1,0.7,1.0577848479151726,,,,,,,,,,,s022,001,2024-07-26_14h00.48.151,simplestop_skeleton,2022.2.2,59.92023224014411,
$currentCorrectResponse,$currentGoStim,,,,,,,,,0,0,0,0,11,1,45,0,,,,,,,,,825.3397972024977,go,squareblack.png,right,0.7,,,,,,,,,,,,,,,,,,0.0011904127895832062,0.4897354431450367,,827.8421185798943,test,1,,,,,,,825.3569786287844,825.8555440157652,825.8555440157652,825.8722790591419,826.556531701237,827.071868672967,826.8551418185234,827.8619424141943,right,1,0.7,0.40775368735194206,,,,,,,,,,,s022,001,2024-07-26_14h00.48.151,simplestop_skeleton,2022.2.2,59.92023224014411,
None,None,,,,,,,,,0,0,0,0,11,2,46,2,,,,,,,,,827.8425647243857,go,circleblack.png,left,0.7,,,,,,,,,,,,,,,,,,0.002788398414850235,0.487912155687809,,830.3438201546669,test,1,,,,,,,827.8619424141943,828.3567047007382,828.3567047007382,828.3736974559724,829.0574965141714,829.5581754855812,829.3585132546723,830.3627609573305,left,1,0.7,0.78931675106287,,,,,,,,,,,s022,001,2024-07-26_14h00.48.151,simplestop_skeleton,2022.2.2,59.92023224014411,
None,None,,,,,,,,,0,0,0,0,11,3,47,3,,,,,,,,,830.3442715145648,stop,squareblack.png,right,0.7,,,,,,,,,,,,,,,,,,0.001692742109298706,0.49054353684186935,1.191877756267786,832.8470159731805,test,1,,,,,,,830.3627609573305,830.8607974685729,830.8607974685729,830.877519223839,831.5620674714446,832.0775521174073,831.8621554486454,832.8741862885654,right,1,0.65,0.9024366587400436,,,,,,,,,,,s022,001,2024-07-26_14h00.48.151,simplestop_skeleton,2022.2.2,59.92023224014411,
,,,,,,,,,,0,0,0,0,,,,,,"[{'fileName': 'circleblack.png', 'correct_response': 'left', 'condition': 'stop'}, {'fileName': 'circleblack.png', 'correct_response': 'left', 'condition': 'go'}, {'fileName': 'circleblack.png', 'correct_response': 'left', 'condition': 'stop'}, {'fileName': 'squareblack.png', 'correct_response': 'right', 'condition': 'go'}, {'fileName': 'squareblack.png', 'correct_response': 'right', 'condition': 'stop'}, {'fileName': 'circleblack.png', 'correct_response': 'left', 'condition': 'go'}, {'fileName': 'squareblack.png', 'correct_response': 'right', 'condition': 'go'}, {'fileName': 'squareblack.png', 'correct_response': 'right', 'condition': 'stop'}, {'fileName': 'circleblack.png', 'correct_response': 'left', 'condition': 'go'}, {'fileName': 'circleblack.png', 'correct_response': 'left', 'condition': 'go'}, {'fileName': 'squareblack.png', 'correct_response': 'right', 'condition': 'go'}, {'fileName': 'squareblack.png', 'correct_response': 'right', 'condition': 'go'}, {'fileName': 'squareblack.png', 'correct_response': 'right', 'condition': 'go'}, {'fileName': 'circleblack.png', 'correct_response': 'left', 'condition': 'stop'}, {'fileName': 'squareblack.png', 'correct_response': 'right', 'condition': 'stop'}, {'fileName': 'circleblack.png', 'correct_response': 'left', 'condition': 'stop'}, {'fileName': 'circleblack.png', 'correct_response': 'left', 'condition': 'go'}, {'fileName': 'squareblack.png', 'correct_response': 'right', 'condition': 'stop'}, {'fileName': 'circleblack.png', 'correct_response': 'left', 'condition': 'go'}, {'fileName': 'circleblack.png', 'correct_response': 'left', 'condition': 'go'}, {'fileName': 'squareblack.png', 'correct_response': 'right', 'condition': 'go'}, {'fileName': 'squareblack.png', 'correct_response': 'right', 'condition': 'go'}, {'fileName': 'squareblack.png', 'correct_response': 'right', 'condition': 'go'}, {'fileName': 'circleblack.png', 'correct_response': 'left', 'condition': 'go'}, {'fileName': 'squareblack.png', 'correct_response': 'right', 'condition': 'go'}, {'fileName': 'circleblack.png', 'correct_response': 'left', 'condition': 'go'}, {'fileName': 'circleblack.png', 'correct_response': 'left', 'condition': 'go'}, {'fileName': 'circleblack.png', 'correct_response': 'left', 'condition': 'go'}, {'fileName': 'squareblack.png', 'correct_response': 'right', 'condition': 'stop'}, {'fileName': 'squareblack.png', 'correct_response': 'right', 'condition': 'stop'}, {'fileName': 'circleblack.png', 'correct_response': 'left', 'condition': 'go'}, {'fileName': 'squareblack.png', 'correct_response': 'right', 'condition': 'go'}, {'fileName': 'circleblack.png', 'correct_response': 'left', 'condition': 'stop'}, {'fileName': 'squareblack.png', 'correct_response': 'right', 'condition': 'go'}, {'fileName': 'squareblack.png', 'correct_response': 'right', 'condition': 'go'}, {'fileName': 'circleblack.png', 'correct_response': 'left', 'condition': 'stop'}, {'fileName': 'circleblack.png', 'correct_response': 'left', 'condition': 'go'}, {'fileName': 'squareblack.png', 'correct_response': 'right', 'condition': 'stop'}, {'fileName': 'circleblack.png', 'correct_response': 'left', 'condition': 'stop'}, {'fileName': 'squareblack.png', 'correct_response': 'right', 'condition': 'go'}, {'fileName': 'circleblack.png', 'correct_response': 'left', 'condition': 'go'}, {'fileName': 'circleblack.png', 'correct_response': 'left', 'condition': 'go'}, {'fileName': 'squareblack.png', 'correct_response': 'right', 'condition': 'stop'}, {'fileName': 'squareblack.png', 'correct_response': 'right', 'condition': 'go'}, {'fileName': 'squareblack.png', 'correct_response': 'right', 'condition': 'go'}, {'fileName': 'squareblack.png', 'correct_response': 'right', 'condition': 'go'}, {'fileName': 'circleblack.png', 'correct_response': 'left', 'condition': 'go'}, {'fileName': 'circleblack.png', 'correct_response': 'left', 'condition': 'stop'}]",,,,,,,,,,,,,,,,,,,,,,,,,,,,,,,,,,,,,,,,,,,,,,,,,,,,,832.8741862885654,832.8741862885654,return,10.159104488790035,,,,,,,s022,001,2024-07-26_14h00.48.151,simplestop_skeleton,2022.2.2,59.92023224014411,
None,None,,,,,,,,,1,0,1,0,0,0,0,2,,,,,,,,,843.0669326633215,stop,circleblack.png,left,0.65,,,,,,,,,,,,,,,,,,0.001988835632801056,0.4985344223678112,1.1494899094104767,845.578880161047,test,2,,,,,,,843.0859159082174,843.591616563499,843.591616563499,843.591616563499,844.2428000047803,844.7429557777941,844.5928671471775,845.5980948098004,left,1,0.6,0.6204666867852211,,,,,,,,,,,s022,001,2024-07-26_14h00.48.151,simplestop_skeleton,2022.2.2,59.92023224014411,
None,None,,,,,,,,,1,0,1,0,0,1,1,3,,,,,,,,,845.579459682107,go,circleblack.png,left,0.6,,,,,,,,,,,,,,,,,,0.001521524041891098,0.4891432598233223,,848.0802242644131,test,2,,,,,,,845.5980948098004,846.0943306274712,846.0943306274712,846.111047834158,846.695097848773,847.2109530121088,847.0942017287016,848.0983451791108,left,1,0.6,0.7058131322264671,,,,,,,,,,,s022,001,2024-07-26_14h00.48.151,simplestop_skeleton,2022.2.2,59.92023224014411,
None,None,,,,,,,,,1,0,1,0,0,2,2,3,,,,,,,,,848.0806600227952,stop,circleblack.png,left,0.6,,,,,,,,,,,,,,,,,,0.001446399837732315,0.48826340213418007,1.089009940624237,850.5830450430512,test,2,,,,,,,848.0983451791108,848.5957733504474,848.5957733504474,848.61237757653,849.1964620947838,849.6968606933951,849.5969877615571,850.6009894050658,None,0,0.65,,,,,,,,,,,,s022,001,2024-07-26_14h00.48.151,simplestop_skeleton,2022.2.2,59.92023224014411,
None,None,,,,,,,,,1,0,1,0,0,3,3,1,,,,,,,,,850.5838172622025,go,squareblack.png,right,0.65,,,,,,,,,,,,,,,,,,0.0016707070171833038,0.48870696872472763,,853.0862993001938,test,2,,,,,,,850.6009894050658,851.0986750759184,851.0986750759184,851.1152700036764,851.7492703609169,852.2498584650457,852.0997068546712,853.1032897979021,right,1,0.65,0.6845121383666992,,,,,,,,,,,s022,001,2024-07-26_14h00.48.151,simplestop_skeleton,2022.2.2,59.92023224014411,
None,None,,,,,,,,,1,0,1,0,1,0,4,2,,,,,,,,,853.086726155132,stop,squareblack.png,right,0.65,,,,,,,,,,,,,,,,,,0.001282375305891037,0.4899432361125946,1.1407171711325645,855.5883207134902,test,2,,,,,,,853.1032897979021,853.6028677970171,853.6028677970171,853.6028677970171,854.2534579336643,854.7539927139878,854.6038126200438,855.6057434268296,None,0,0.7,,,,,,,,,,,,s022,001,2024-07-26_14h00.48.151,simplestop_skeleton,2022.2.2,59.92023224014411,
None,None,,,,,,,,,1,0,1,0,1,1,5,2,,,,,,,,,855.5887584090233,go,circleblack.png,left,0.7,,,,,,,,,,,,,,,,,,0.0018659979104995728,0.4893956519663334,,858.0909754857421,test,2,,,,,,,855.6057434268296,856.1039711162448,856.1039711162448,856.120801281184,856.8048182316124,857.3054060339928,857.1051401719451,858.1082443296909,left,1,0.7,0.9649682119488716,,,,,,,,,,,s022,001,2024-07-26_14h00.48.151,simplestop_skeleton,2022.2.2,59.92023224014411,
$currentCorrectResponse,$currentGoStim,,,,,,,,,1,0,1,0,1,2,6,0,,,,,,,,,858.0914167948067,go,squareblack.png,right,0.7,,,,,,,,,,,,,,,,,,0.0016853995621204376,0.4892961196601391,,860.5937078930438,test,2,,,,,,,858.1082443296909,858.6068718098104,858.6068718098104,858.6234666220844,859.3076473809779,859.808192294091,859.607847366482,860.6119170039892,right,1,0.7,0.8781372271478176,,,,,,,,,,,s022,001,2024-07-26_14h00.48.151,simplestop_skeleton,2022.2.2,59.92023224014411,
None,None,,,,,,,,,1,0,1,0,1,3,7,1,,,,,,,,,860.5941548347473,stop,squareblack.png,right,0.7,,,,,,,,,,,,,,,,,,0.001577727496623993,0.48880288004875183,1.1897314190864563,863.0964204110205,test,2,,,,,,,860.6119170039892,861.1096044816077,861.1096044816077,861.12621807307,861.8104266859591,862.3109817393124,862.1108045391738,863.1139689721167,None,0,0.75,,,,,,,,,,,,s022,001,2024-07-26_14h00.48.151,simplestop_skeleton,2022.2.2,59.92023224014411,
None,None,,,,,,,,,1,0,1,0,2,0,8,1,,,,,,,,,863.0968512818217,go,circleblack.png,left,0.75,,,,,,,,,,,,,,,,,,0.0019585154950618744,0.48966561257839203,,865.6003708764911,test,2,,,,,,,863.1139689721167,863.6123563237488,863.6123563237488,863.6290405839682,864.3633435480297,864.8637100458145,864.6135040521622,865.6195284128189,left,1,0.75,1.0818906910717487,,,,,,,,,,,s022,001,2024-07-26_14h00.48.151,simplestop_skeleton,2022.2.2,59.92023224014411,
None,None,,,,,,,,,1,0,1,0,2,1,9,2,,,,,,,,,865.60080511868,go,circleblack.png,left,0.75,,,,,,,,,,,,,,,,,,0.0013003535568714142,0.4898321218788624,,868.1021295748651,test,2,,,,,,,865.6195284128189,866.1163564026356,866.1163564026356,866.1334901787341,866.8675341047347,867.3831257820129,867.1164069138467,868.1198991462588,left,1,0.75,0.6520592048764229,,,,,,,,,,,s022,001,2024-07-26_14h00.48.151,simplestop_skeleton,2022.2.2,59.92023224014411,
None,None,,,,,,,,,1,0,1,0,2,2,10,1,,,,,,,,,868.1025748811662,go,squareblack.png,right,0.75,,,,,,,,,,,,,,,,,,0.0016510263085365295,0.48933445289731026,,870.6045817732811,test,2,,,,,,,868.1198991462588,868.6179466173053,868.6179466173053,868.6345516294241,869.3686121962965,869.8691230379045,869.618889067322,870.621416516602,right,1,0.75,0.9417367838323116,,,,,,,,,,,s022,001,2024-07-26_14h00.48.151,simplestop_skeleton,2022.2.2,59.92023224014411,
None,None,,,,,,,,,1,0,1,0,2,3,11,2,,,,,,,,,870.605012472719,go,squareblack.png,right,0.75,,,,,,,,,,,,,,,,,,0.0011780932545661926,0.48985959216952324,,873.1082696430385,test,2,,,,,,,870.621416516602,871.1206238567829,871.1206238567829,871.1206238567829,871.8715071938932,872.3719040304422,872.121739178896,873.1269547380507,right,1,0.75,0.9139391183853149,,,,,,,,,,,s022,001,2024-07-26_14h00.48.151,simplestop_skeleton,2022.2.2,59.92023224014411,
$currentCorrectResponse,$currentGoStim,,,,,,,,,1,0,1,0,3,0,12,0,,,,,,,,,873.108706574887,go,squareblack.png,right,0.75,,,,,,,,,,,,,,,,,,0.0020317696034908295,0.48830126225948334,,875.611171592027,test,2,,,,,,,873.1269547380507,873.6249686926603,873.6249686926603,873.6414861567318,874.3757371231914,874.891370434314,874.6246293783188,875.6374251395464,left,0,0.75,0.5668949298560619,,,,,,,,,,,s022,001,2024-07-26_14h00.48.151,simplestop_skeleton,2022.2.2,59.92023224014411,
None,None,,,,,,,,,1,0,1,0,3,1,13,1,,,,,,,,,875.6116447970271,stop,circleblack.png,left,0.75,,,,,,,,,,,,,,,,,,0.007778521627187729,0.48743244633078575,1.2398704178631306,878.1144864559174,test,2,,,,,,,875.6374251395464,876.1260637268424,876.1260637268424,876.1427001655102,876.8783463537693,877.3940894082189,877.1271747425199,878.1318209022284,left,1,0.7,0.8942935019731522,,,,,,,,,,,s022,001,2024-07-26_14h00.48.151,simplestop_skeleton,2022.2.2,59.92023224014411,
None,None,,,,,,,,,1,0,1,0,3,2,14,3,,,,,,,,,878.1149396598339,stop,squareblack.png,right,0.7,,,,,,,,,,,,,,,,,,0.001836199313402176,0.48791244998574257,1.1885837204754353,880.6168653219938,test,2,,,,,,,878.1318209022284,878.6288398168981,878.6288398168981,878.6456374451518,879.3295650221407,879.83021870628,879.6300771944225,880.6347211711109,right,1,0.65,0.8021659888327122,,,,,,,,,,,s022,001,2024-07-26_14h00.48.151,simplestop_skeleton,2022.2.2,59.92023224014411,
None,None,,,,,,,,,1,0,1,0,3,3,15,2,,,,,,,,,880.617292009294,stop,circleblack.png,left,0.65,,,,,,,,,,,,,,,,,,0.0018221549689769745,0.48991119116544724,1.1403540521860123,883.1205032914877,test,2,,,,,,,880.6347211711109,881.133068293333,881.133068293333,881.14975034073,881.7836728133261,882.2830073237419,882.1344395317137,883.1403747536242,left,1,0.6,0.7558449469506741,,,,,,,,,,,s022,001,2024-07-26_14h00.48.151,simplestop_skeleton,2022.2.2,59.92023224014411,
$currentCorrectResponse,$currentGoStim,,,,,,,,,1,0,1,0,4,0,16,0,,,,,,,,,883.1210294961929,go,circleblack.png,left,0.6,,,,,,,,,,,,,,,,,,0.0014988966286182404,0.48448727652430534,,885.6209800355136,test,2,,,,,,,883.1403747536242,883.6344147920609,883.6344147920609,883.6510958112776,884.2355625331402,884.73561379686,884.6354992836714,885.6386154145002,left,1,0.6,1.5455586276948452,,,,,,,,,,,s022,001,2024-07-26_14h00.48.151,simplestop_skeleton,2022.2.2,59.92023224014411,
None,None,,,,,,,,,1,0,1,0,4,1,17,2,,,,,,,,,885.6214355006814,stop,squareblack.png,right,0.6,,,,,,,,,,,,,,,,,,0.001677200198173523,0.48961278423666954,1.0902513936161995,888.1241212449968,test,2,,,,,,,885.6386154145002,886.1371951214969,886.1371951214969,886.1543661952019,886.7377917394042,887.2383752465248,887.13831724599,888.141234640032,None,0,0.65,,,,,,,,,,,,s022,001,2024-07-26_14h00.48.151,simplestop_skeleton,2022.2.2,59.92023224014411,
$currentCorrectResponse,$currentGoStim,,,,,,,,,1,0,1,0,4,2,18,0,,,,,,,,,888.124558724463,go,circleblack.png,left,0.65,,,,,,,,,,,,,,,,,,0.001699298620223999,0.4895886778831482,,890.6281527802348,test,2,,,,,,,888.141234640032,888.6399482525885,888.6399482525885,888.6566178016365,889.2906250841916,889.791159812361,889.6410456858575,890.6473223231733,left,1,0.65,1.101462870836258,,,,,,,,,,,s022,001,2024-07-26_14h00.48.151,simplestop_skeleton,2022.2.2,59.92023224014411,
None,None,,,,,,,,,1,0,1,0,4,3,19,2,,,,,,,,,890.6286013387144,go,circleblack.png,left,0.65,,,,,,,,,,,,,,,,,,0.0013736076653003693,0.4894665665924549,,893.1292808502913,test,2,,,,,,,890.6473223231733,891.1440334431827,891.1440334431827,891.1607758626342,891.7948243431747,892.2953735142946,892.1456459313631,893.1465583741665,left,1,0.65,0.988799512386322,,,,,,,,,,,s022,001,2024-07-26_14h00.48.151,simplestop_skeleton,2022.2.2,59.92023224014411,
None,None,,,,,,,,,1,0,1,0,5,0,20,1,,,,,,,,,893.1297288350761,go,squareblack.png,right,0.65,,,,,,,,,,,,,,,,,,0.0016036257147789001,0.48985444381833076,,895.634307615459,test,2,,,,,,,893.1465583741665,893.6456600055099,893.6456600055099,893.6622430309653,894.298271857202,894.8133291341364,894.6467160210013,895.6540530025959,right,1,0.65,0.9607707671821117,,,,,,,,,,,s022,001,2024-07-26_14h00.48.151,simplestop_skeleton,2022.2.2,59.92023224014411,
$currentCorrectResponse,$currentGoStim,,,,,,,,,1,0,1,0,5,1,21,0,,,,,,,,,895.6347804889083,go,squareblack.png,right,0.65,,,,,,,,,,,,,,,,,,0.0019973069429397583,0.48628221824765205,,898.1347268410027,test,2,,,,,,,895.6540530025959,896.148160431534,896.148160431534,896.1648297160864,896.7989943511784,897.2995644621551,897.1493390575051,898.1514780372381,right,1,0.65,0.9846939779818058,,,,,,,,,,,s022,001,2024-07-26_14h00.48.151,simplestop_skeleton,2022.2.2,59.92023224014411,
$currentCorrectResponse,$currentGoStim,,,,,,,,,1,0,1,0,5,2,22,0,,,,,,,,,898.1351801529527,go,squareblack.png,right,0.65,,,,,,,,,,,,,,,,,,0.001318853348493576,0.4901002198457718,,900.6384712383151,test,2,,,,,,,898.1514780372381,898.6510350033641,898.6510350033641,898.6510350033641,899.3016136363149,899.8023546934128,899.6522132493556,900.6570025011897,right,1,0.65,0.9400300681591034,,,,,,,,,,,s022,001,2024-07-26_14h00.48.151,simplestop_skeleton,2022.2.2,59.92023224014411,
None,None,,,,,,,,,1,0,1,0,5,3,23,3,,,,,,,,,900.6388971731067,go,circleblack.png,left,0.65,,,,,,,,,,,,,,,,,,0.002046581357717514,0.4903470240533352,,903.1416159197688,test,2,,,,,,,900.6570025011897,901.1552461050451,901.1552461050451,901.1717529147863,901.8063354082406,902.3216906152666,902.1549042537808,903.160195145756,left,1,0.65,0.6442752368748188,,,,,,,,,,,s022,001,2024-07-26_14h00.48.151,simplestop_skeleton,2022.2.2,59.92023224014411,
None,None,,,,,,,,,1,0,1,0,6,0,24,1,,,,,,,,,903.1420730911195,go,squareblack.png,right,0.65,,,,,,,,,,,,,,,,,,0.0019776076078414917,0.4891691878437996,,905.6432268694043,test,2,,,,,,,903.160195145756,903.6563624031842,903.6563624031842,903.6732292249799,904.3074953593314,904.8077081367373,904.6574896387756,905.6610089205205,right,1,0.65,0.8516016118228436,,,,,,,,,,,s022,001,2024-07-26_14h00.48.151,simplestop_skeleton,2022.2.2,59.92023224014411,
None,None,,,,,,,,,1,0,1,0,6,1,25,3,,,,,,,,,905.6436685547233,go,circleblack.png,left,0.65,,,,,,,,,,,,,,,,,,0.0018391087651252747,0.48957234621047974,,908.1480925232172,test,2,,,,,,,905.6610089205205,906.1591892503202,906.1591892503202,906.1759834736586,906.8098755553365,907.3105584792793,907.1602813899517,908.1651405915618,left,1,0.65,0.7686930410563946,,,,,,,,,,,s022,001,2024-07-26_14h00.48.151,simplestop_skeleton,2022.2.2,59.92023224014411,
$currentCorrectResponse,$currentGoStim,,,,,,,,,1,0,1,0,6,2,26,0,,,,,,,,,908.1485322937369,go,circleblack.png,left,0.65,,,,,,,,,,,,,,,,,,0.001993812620639801,0.48863890022039413,,910.651407264173,test,2,,,,,,,908.1651405915618,908.663236938417,908.663236938417,908.6800016760826,909.3141141273081,909.8133880496025,909.6647147983313,910.6721828319132,left,1,0.65,0.7918439581990242,,,,,,,,,,,s022,001,2024-07-26_14h00.48.151,simplestop_skeleton,2022.2.2,59.92023224014411,
None,None,,,,,,,,,1,0,1,0,6,3,27,2,,,,,,,,,910.6518456041813,go,circleblack.png,left,0.65,,,,,,,,,,,,,,,,,,0.0025172345340251923,0.4862668700516224,,913.1514389589429,test,2,,,,,,,910.6721828319132,911.1647684760392,911.1647684760392,911.1814039610326,911.8155759386718,912.3160116039217,912.1658670268953,913.173523824662,left,1,0.65,0.8548153527081013,,,,,,,,,,,s022,001,2024-07-26_14h00.48.151,simplestop_skeleton,2022.2.2,59.92023224014411,
None,None,,,,,,,,,1,0,1,0,7,0,28,3,,,,,,,,,913.1518849357963,stop,squareblack.png,right,0.65,,,,,,,,,,,,,,,,,,0.007399994879961014,0.4898398034274578,1.1404938697814941,915.6545693576336,test,2,,,,,,,913.173523824662,913.66751088202,913.66751088202,913.6841137893498,914.3182428851724,914.818904068321,914.6686399318278,915.6709814369678,right,1,0.6,0.6723938658833504,,,,,,,,,,,s022,001,2024-07-26_14h00.48.151,simplestop_skeleton,2022.2.2,59.92023224014411,
None,None,,,,,,,,,1,0,1,0,7,1,29,1,,,,,,,,,915.6550187319517,stop,squareblack.png,right,0.6,,,,,,,,,,,,,,,,,,0.0011844038963317871,0.4913748800754547,1.0901976116001606,918.1580493822694,test,2,,,,,,,915.6709814369678,916.1722517684102,916.1722517684102,916.1722517684102,916.7709868848324,917.2716282568872,917.1715342178941,918.1757849007845,right,1,0.55,0.6953096240758896,,,,,,,,,,,s022,001,2024-07-26_14h00.48.151,simplestop_skeleton,2022.2.2,59.92023224014411,
$currentCorrectResponse,$currentGoStim,,,,,,,,,1,0,1,0,7,2,30,0,,,,,,,,,918.1585026159883,go,circleblack.png,left,0.55,,,,,,,,,,,,,,,,,,0.002121429890394211,0.48984672874212265,,920.6609753929079,test,2,,,,,,,918.1757849007845,918.6744758822024,918.6744758822024,918.6912123225629,919.225063867867,919.7244632579386,919.6744332797825,920.6798099577427,left,1,0.55,0.5777546428143978,,,,,,,,,,,s022,001,2024-07-26_14h00.48.151,simplestop_skeleton,2022.2.2,59.92023224014411,
None,None,,,,,,,,,1,0,1,0,7,3,31,2,,,,,,,,,920.6614415086806,go,squareblack.png,right,0.55,,,,,,,,,,,,,,,,,,0.0019095316529273987,0.48772720620036125,,923.1624032743275,test,2,,,,,,,920.6798099577427,921.1763892024755,921.1763892024755,921.1928452476859,921.7272559739649,922.2268606461585,922.1768518313766,923.1797586865723,right,1,0.55,1.008134163916111,,,,,,,,,,,s022,001,2024-07-26_14h00.48.151,simplestop_skeleton,2022.2.2,59.92023224014411,
None,None,,,,,,,,,1,0,1,0,8,0,32,1,,,,,,,,,923.1628361605108,stop,circleblack.png,left,0.55,,,,,,,,,,,,,,,,,,0.0018553510308265686,0.4898346997797489,1.040466208010912,925.6654392667115,test,2,,,,,,,923.1797586865723,923.6791579984128,923.6791579984128,923.6973955705762,924.2292793616652,924.7296885661781,924.6796740852296,925.6828432865441,None,0,0.6,,,,,,,,,,,,s022,001,2024-07-26_14h00.48.151,simplestop_skeleton,2022.2.2,59.92023224014411,
$currentCorrectResponse,$currentGoStim,,,,,,,,,1,0,1,0,8,1,33,0,,,,,,,,,925.6658885069191,go,squareblack.png,right,0.6,,,,,,,,,,,,,,,,,,0.00160893052816391,0.48967285454273224,,928.1696863472462,test,2,,,,,,,925.6828432865441,926.1814716756344,926.1814716756344,926.1981227211654,926.7819928303361,927.2824761681259,927.1826456785202,928.187218979001,right,1,0.6,0.8971746563911438,,,,,,,,,,,s022,001,2024-07-26_14h00.48.151,simplestop_skeleton,2022.2.2,59.92023224014411,
None,None,,,,,,,,,1,0,1,0,8,2,34,3,,,,,,,,,928.1701167039573,go,squareblack.png,right,0.6,,,,,,,,,,,,,,,,,,0.0013073869049549103,0.4894699715077877,,930.6707393564284,test,2,,,,,,,928.187218979001,928.6855025887489,928.6855025887489,928.702196534723,929.2861848734319,929.7867491319776,929.6864590607584,930.6880849823356,right,1,0.6,1.0270519703626633,,,,,,,,,,,s022,001,2024-07-26_14h00.48.151,simplestop_skeleton,2022.2.2,59.92023224014411,
$currentCorrectResponse,$currentGoStim,,,,,,,,,1,0,1,0,8,3,35,0,,,,,,,,,930.6711715385318,stop,circleblack.png,left,0.6,,,,,,,,,,,,,,,,,,0.001773189753293991,0.4898395724594593,1.0904518887400627,933.1751383170485,test,2,,,,,,,930.6880849823356,931.1870571561158,931.1870571561158,931.2039633989334,931.7875536344945,932.2882042005658,932.188026484102,933.1926032118499,left,1,0.55,0.7555533722043037,,,,,,,,,,,s022,001,2024-07-26_14h00.48.151,simplestop_skeleton,2022.2.2,59.92023224014411,
None,None,,,,,,,,,1,0,1,0,9,0,36,3,,,,,,,,,933.1757158264518,go,circleblack.png,left,0.55,,,,,,,,,,,,,,,,,,0.0021002329885959625,0.48884421214461327,,935.6763767451048,test,2,,,,,,,933.1926032118499,933.690828602761,933.690828602761,933.7062110193074,934.2409849688411,934.7406885661185,934.6907320581377,935.6935152113438,left,1,0.55,0.8006592281162739,,,,,,,,,,,s022,001,2024-07-26_14h00.48.151,simplestop_skeleton,2022.2.2,59.92023224014411,
None,None,,,,,,,,,1,0,1,0,9,1,37,3,,,,,,,,,935.6768238767982,stop,squareblack.png,right,0.55,,,,,,,,,,,,,,,,,,0.0016285032033920288,0.4899588041007519,1.0405456386506557,938.1791491061449,test,2,,,,,,,935.6935152113438,936.1928080432117,936.1928080432117,936.2113137282431,936.7430080883205,937.2434498667717,937.1934140920639,938.1967729106545,right,1,0.5,0.6365095116198063,,,,,,,,,,,s022,001,2024-07-26_14h00.48.151,simplestop_skeleton,2022.2.2,59.92023224014411,
None,None,,,,,,,,,1,0,1,0,9,2,38,1,,,,,,,,,938.1795950643718,stop,circleblack.png,left,0.5,,,,,,,,,,,,,,,,,,0.0016898326575756073,0.4897574111819267,0.9900137521326542,940.6833658441901,test,2,,,,,,,938.1967729106545,938.6953407935798,938.6953407935798,938.7119225859642,939.1956208981574,939.696282941848,939.696282941848,940.7028576955199,None,0,0.55,,,,,,,,,,,,s022,001,2024-07-26_14h00.48.151,simplestop_skeleton,2022.2.2,59.92023224014411,
$currentCorrectResponse,$currentGoStim,,,,,,,,,1,0,1,0,9,3,39,0,,,,,,,,,940.6838148459792,go,squareblack.png,right,0.55,,,,,,,,,,,,,,,,,,0.001664910465478897,0.4896089658141136,,943.1850557178259,test,2,,,,,,,940.7028576955199,941.1993090100586,941.1993090100586,941.2160055451095,941.7499694600701,942.2505737803876,942.200413800776,943.20260803774,right,1,0.55,0.8435917943716049,,,,,,,,,,,s022,001,2024-07-26_14h00.48.151,simplestop_skeleton,2022.2.2,59.92023224014411,
None,None,,,,,,,,,1,0,1,0,10,0,40,3,,,,,,,,,943.1855046376586,go,circleblack.png,left,0.55,,,,,,,,,,,,,,,,,,0.0017019063234329224,0.489007193595171,,945.687754265964,test,2,,,,,,,943.20260803774,943.7007157690823,943.7007157690823,943.7173115722835,944.2512892223895,944.7517891861498,944.7016429007053,945.7056251130998,left,1,0.55,0.9125855378806591,,,,,,,,,,,s022,001,2024-07-26_14h00.48.151,simplestop_skeleton,2022.2.2,59.92023224014411,
None,None,,,,,,,,,1,0,1,0,10,1,41,2,,,,,,,,,945.6882260553539,go,circleblack.png,left,0.55,,,,,,,,,,,,,,,,,,0.001341313123703003,0.48898541554808617,,948.1900078356266,test,2,,,,,,,945.7056251130998,946.20339698717,946.20339698717,946.220048815012,946.7539822533727,947.2545531094074,947.2045990638435,948.2070816121995,left,1,0.55,0.8090413436293602,,,,,,,,,,,s022,001,2024-07-26_14h00.48.151,simplestop_skeleton,2022.2.2,59.92023224014411,
None,None,,,,,,,,,1,0,1,0,10,2,42,3,,,,,,,,,948.1904682219028,stop,squareblack.png,right,0.55,,,,,,,,,,,,,,,,,,0.0015527084469795227,0.4899108149111271,1.040399581193924,950.694310311228,test,2,,,,,,,948.2070816121995,948.7062654793262,948.7062654793262,948.7230328954756,949.2567263841629,949.7576027438045,949.7075420953333,950.7109486944973,right,1,0.5,0.6593868993222713,,,,,,,,,,,s022,001,2024-07-26_14h00.48.151,simplestop_skeleton,2022.2.2,59.92023224014411,
None,None,,,,,,,,,1,0,1,0,10,3,43,2,,,,,,,,,950.6947378218174,go,squareblack.png,right,0.5,,,,,,,,,,,,,,,,,,0.0011922791600227356,0.4885045662522316,,953.1961956843734,test,2,,,,,,,950.7109486944973,951.209095325321,951.209095325321,951.2259168028831,951.7094535641372,952.2101692780852,952.2101692780852,953.2127815820277,right,1,0.5,1.3708775900304317,,,,,,,,,,,s022,001,2024-07-26_14h00.48.151,simplestop_skeleton,2022.2.2,59.92023224014411,
$currentCorrectResponse,$currentGoStim,,,,,,,,,1,0,1,0,11,0,44,0,,,,,,,,,953.1966234706342,go,squareblack.png,right,0.5,,,,,,,,,,,,,,,,,,0.0012286119163036346,0.49080315232276917,,955.7003004215658,test,2,,,,,,,953.2127815820277,953.7132892347872,953.7132892347872,953.7132892347872,954.2137325704098,954.7296315431595,954.7129274271429,955.7221085317433,right,1,0.5,1.4475578479468822,,,,,,,,,,,s022,001,2024-07-26_14h00.48.151,simplestop_skeleton,2022.2.2,59.92023224014411,
None,None,,,,,,,,,1,0,1,0,11,1,45,3,,,,,,,,,955.7010575719178,go,squareblack.png,right,0.5,,,,,,,,,,,,,,,,,,0.0017264634370803833,0.4832460582256317,,958.2025560364127,test,2,,,,,,,955.7221085317433,956.2144628800452,956.2144628800452,956.2311427928507,956.7151502147317,957.2155272290111,957.2155272290111,958.2262366861105,right,1,0.5,1.3841120898723602,,,,,,,,,,,s022,001,2024-07-26_14h00.48.151,simplestop_skeleton,2022.2.2,59.92023224014411,
None,None,,,,,,,,,1,0,1,0,11,2,46,1,,,,,,,,,958.2029842659831,go,circleblack.png,left,0.5,,,,,,,,,,,,,,,,,,0.008090637624263763,0.48822374269366264,,960.7039563246071,test,2,,,,,,,958.2262366861105,958.7172213867307,958.7172213867307,958.7338733263314,959.2178477346897,959.7183061130345,959.7183061130345,960.7204564884305,left,1,0.5,1.0615176670253277,,,,,,,,,,,s022,001,2024-07-26_14h00.48.151,simplestop_skeleton,2022.2.2,59.92023224014411,
None,None,,,,,,,,,1,0,1,0,11,3,47,1,,,,,,,,,960.7044058255851,stop,circleblack.png,left,0.5,,,,,,,,,,,,,,,,,,0.001205436885356903,0.4899948462843895,0.9904379099607468,963.2074243612587,test,2,,,,,,,960.7204564884305,961.220031388104,961.220031388104,961.220031388104,961.7204699777067,962.2212064601481,962.2212064601481,963.2257880233228,None,0,0.55,,,,,,,,,,,,s022,001,2024-07-26_14h00.48.151,simplestop_skeleton,2022.2.2,59.92023224014411,
,,,,,,,,,,1,0,1,0,,,,,,,,,,,,,,,,,,,,,,,,,,,,,,,,,,,,,,,,,,,,,,,,,,,,,,,,,,,963.2257880233228,963.2257880233228,return,3.0300901159644127,"[{'fileName': 'circleblack.png', 'correct_response': 'left', 'condition': 'go'}, {'fileName': 'squareblack.png', 'correct_response': 'right', 'condition': 'go'}, {'fileName': 'circleblack.png', 'correct_response': 'left', 'condition': 'go'}, {'fileName': 'squareblack.png', 'correct_response': 'right', 'condition': 'go'}, {'fileName': 'circleblack.png', 'correct_response': 'left', 'condition': 'stop'}, {'fileName': 'circleblack.png', 'correct_response': 'left', 'condition': 'go'}, {'fileName': 'circleblack.png', 'correct_response': 'left', 'condition': 'go'}, {'fileName': 'squareblack.png', 'correct_response': 'right', 'condition': 'stop'}, {'fileName': 'circleblack.png', 'correct_response': 'left', 'condition': 'stop'}, {'fileName': 'squareblack.png', 'correct_response': 'right', 'condition': 'stop'}, {'fileName': 'squareblack.png', 'correct_response': 'right', 'condition': 'go'}, {'fileName': 'squareblack.png', 'correct_response': 'right', 'condition': 'go'}, {'fileName': 'squareblack.png', 'correct_response': 'right', 'condition': 'go'}, {'fileName': 'squareblack.png', 'correct_response': 'right', 'condition': 'stop'}, {'fileName': 'circleblack.png', 'correct_response': 'left', 'condition': 'go'}, {'fileName': 'circleblack.png', 'correct_response': 'left', 'condition': 'stop'}, {'fileName': 'squareblack.png', 'correct_response': 'right', 'condition': 'go'}, {'fileName': 'circleblack.png', 'correct_response': 'left', 'condition': 'go'}, {'fileName': 'circleblack.png', 'correct_response': 'left', 'condition': 'go'}, {'fileName': 'squareblack.png', 'correct_response': 'right', 'condition': 'go'}, {'fileName': 'circleblack.png', 'correct_response': 'left', 'condition': 'go'}, {'fileName': 'circleblack.png', 'correct_response': 'left', 'condition': 'stop'}, {'fileName': 'squareblack.png', 'correct_response': 'right', 'condition': 'stop'}, {'fileName': 'squareblack.png', 'correct_response': 'right', 'condition': 'go'}, {'fileName': 'circleblack.png', 'correct_response': 'left', 'condition': 'go'}, {'fileName': 'squareblack.png', 'correct_response': 'right', 'condition': 'stop'}, {'fileName': 'circleblack.png', 'correct_response': 'left', 'condition': 'go'}, {'fileName': 'circleblack.png', 'correct_response': 'left', 'condition': 'stop'}, {'fileName': 'circleblack.png', 'correct_response': 'left', 'condition': 'stop'}, {'fileName': 'circleblack.png', 'correct_response': 'left', 'condition': 'go'}, {'fileName': 'squareblack.png', 'correct_response': 'right', 'condition': 'go'}, {'fileName': 'squareblack.png', 'correct_response': 'right', 'condition': 'go'}, {'fileName': 'squareblack.png', 'correct_response': 'right', 'condition': 'go'}, {'fileName': 'squareblack.png', 'correct_response': 'right', 'condition': 'stop'}, {'fileName': 'circleblack.png', 'correct_response': 'left', 'condition': 'go'}, {'fileName': 'squareblack.png', 'correct_response': 'right', 'condition': 'go'}, {'fileName': 'circleblack.png', 'correct_response': 'left', 'condition': 'go'}, {'fileName': 'squareblack.png', 'correct_response': 'right', 'condition': 'go'}, {'fileName': 'squareblack.png', 'correct_response': 'right', 'condition': 'go'}, {'fileName': 'circleblack.png', 'correct_response': 'left', 'condition': 'go'}, {'fileName': 'circleblack.png', 'correct_response': 'left', 'condition': 'go'}, {'fileName': 'circleblack.png', 'correct_response': 'left', 'condition': 'stop'}, {'fileName': 'squareblack.png', 'correct_response': 'right', 'condition': 'go'}, {'fileName': 'squareblack.png', 'correct_response': 'right', 'condition': 'go'}, {'fileName': 'circleblack.png', 'correct_response': 'left', 'condition': 'stop'}, {'fileName': 'squareblack.png', 'correct_response': 'right', 'condition': 'stop'}, {'fileName': 'squareblack.png', 'correct_response': 'right', 'condition': 'stop'}, {'fileName': 'circleblack.png', 'correct_response': 'left', 'condition': 'go'}]",,,,,,s022,001,2024-07-26_14h00.48.151,simplestop_skeleton,2022.2.2,59.92023224014411,
None,None,,,,,,,,,2,0,2,0,0,0,0,3,,,,,,,,,966.2803972326219,go,circleblack.png,left,0.55,,,,,,,,,,,,,,,,,,0.00124334916472435,0.4878535345196724,,968.78118628636,test,3,,,,,,,966.2972469367087,966.7942066863179,966.7942066863179,966.8108561746776,967.3448302820325,967.8453842811286,967.7952442727983,968.8062310405076,left,1,0.55,0.6717354208230972,,,,,,,,,,,s022,001,2024-07-26_14h00.48.151,simplestop_skeleton,2022.2.2,59.92023224014411,
$currentCorrectResponse,$currentGoStim,,,,,,,,,2,0,2,0,0,1,1,0,,,,,,,,,968.7817441746593,go,squareblack.png,right,0.55,,,,,,,,,,,,,,,,,,0.007555428892374039,0.4887549951672554,,971.2826331406832,test,3,,,,,,,968.8062310405076,969.2971100620925,969.2971100620925,969.3135128393769,969.8481189161539,970.3636468499899,970.2985163033009,971.3014728501439,right,1,0.55,0.7555459514260292,,,,,,,,,,,s022,001,2024-07-26_14h00.48.151,simplestop_skeleton,2022.2.2,59.92023224014411,
None,None,,,,,,,,,2,0,2,0,0,2,2,1,,,,,,,,,971.2830793857574,go,circleblack.png,left,0.55,,,,,,,,,,,,,,,,,,0.001867886632680893,0.48846618086099625,,973.7870829217136,test,3,,,,,,,971.3014728501439,971.7984383963048,971.7984383963048,971.8151538036764,972.349018715322,972.8495129570365,972.7997039780021,973.8071768730879,left,1,0.55,0.840609822422266,,,,,,,,,,,s022,001,2024-07-26_14h00.48.151,simplestop_skeleton,2022.2.2,59.92023224014411,
None,None,,,,,,,,,2,0,2,0,0,3,3,1,,,,,,,,,973.7875375412405,go,squareblack.png,right,0.55,,,,,,,,,,,,,,,,,,0.002472955733537674,0.48659074679017067,,976.2877027280629,test,3,,,,,,,973.8071768730879,974.3011263348162,974.3011263348162,974.3177740722895,974.8518133834004,975.3521236479282,975.3021777011454,976.3050486445427,right,1,0.55,0.7518620304763317,,,,,,,,,,,s022,001,2024-07-26_14h00.48.151,simplestop_skeleton,2022.2.2,59.92023224014411,
None,None,,,,,,,,,2,0,2,0,1,0,4,3,,,,,,,,,976.2881297059357,stop,circleblack.png,left,0.55,,,,,,,,,,,,,,,,,,0.0017406903207302094,0.4897565096616745,1.04036108776927,978.7912016026676,test,3,,,,,,,976.3050486445427,976.8042878992856,976.8042878992856,976.8208543099463,977.3544933982193,977.8557998090982,977.8049157224596,978.8093486316502,left,1,0.5,0.6462708227336407,,,,,,,,,,,s022,001,2024-07-26_14h00.48.151,simplestop_skeleton,2022.2.2,59.92023224014411,
$currentCorrectResponse,$currentGoStim,,,,,,,,,2,0,2,0,1,1,5,0,,,,,,,,,978.7916318960488,go,circleblack.png,left,0.5,,,,,,,,,,,,,,,,,,0.0012354664504528046,0.4905278645455837,,981.29489088431,test,3,,,,,,,978.8093486316502,979.3079108521342,979.3079108521342,979.3246880918741,979.808654833585,980.3080232590437,980.3080232590437,981.3139236904681,left,1,0.5,0.7058536186814308,,,,,,,,,,,s022,001,2024-07-26_14h00.48.151,simplestop_skeleton,2022.2.2,59.92023224014411,
None,None,,,,,,,,,2,0,2,0,1,2,6,2,,,,,,,,,981.295668836683,go,circleblack.png,left,0.5,,,,,,,,,,,,,,,,,,0.001972690224647522,0.48629606887698174,,983.7964573279023,test,3,,,,,,,981.3139236904681,981.8094963766634,981.8094963766634,981.8261562027037,982.3100181482732,982.8105160519481,982.8105160519481,983.8184817917645,left,1,0.5,0.7001188583672047,,,,,,,,,,,s022,001,2024-07-26_14h00.48.151,simplestop_skeleton,2022.2.2,59.92023224014411,
None,None,,,,,,,,,2,0,2,0,1,3,7,3,,,,,,,,,983.7969008199871,stop,squareblack.png,right,0.5,,,,,,,,,,,,,,,,,,0.007025234401226044,0.4893886037170887,0.9900632686913013,986.2989721298218,test,3,,,,,,,983.8184817917645,984.3121705949306,984.3121705949306,984.3288384079933,984.812810473144,985.3132496550679,985.3132496550679,986.3164483606815,right,1,0.45,0.5660854130983353,,,,,,,,,,,s022,001,2024-07-26_14h00.48.151,simplestop_skeleton,2022.2.2,59.92023224014411,
None,None,,,,,,,,,2,0,2,0,2,0,8,1,,,,,,,,,986.299558673054,stop,circleblack.png,left,0.45,,,,,,,,,,,,,,,,,,0.0017722323536872864,0.4898507818579674,0.9399557448923588,988.8037053234875,test,3,,,,,,,986.3164483606815,986.8149465955794,986.8149465955794,986.8316292725503,987.2653781585395,987.7659619823098,987.8161386214197,988.8206630721688,None,0,0.5,,,,,,,,,,,,s022,001,2024-07-26_14h00.48.151,simplestop_skeleton,2022.2.2,59.92023224014411,
$currentCorrectResponse,$currentGoStim,,,,,,,,,2,0,2,0,2,1,9,0,,,,,,,,,988.8041445091367,stop,squareblack.png,right,0.5,,,,,,,,,,,,,,,,,,0.0016258209943771362,0.48940345644950867,0.9898058734834194,991.3059974163771,test,3,,,,,,,988.8206630721688,989.3189923129976,989.3189923129976,989.3357643447816,989.8195404782891,990.3200954347849,990.3200954347849,991.324891127646,None,0,0.55,,,,,,,,,,,,s022,001,2024-07-26_14h00.48.151,simplestop_skeleton,2022.2.2,59.92023224014411,
$currentCorrectResponse,$currentGoStim,,,,,,,,,2,0,2,0,2,2,10,0,,,,,,,,,991.3064223900437,go,squareblack.png,right,0.55,,,,,,,,,,,,,,,,,,0.0013056844472885132,0.4898657165467739,,993.8076380267739,test,3,,,,,,,991.324891127646,991.821794565767,991.821794565767,991.838437370956,992.3723017796874,992.8716263137758,992.8216593898833,993.8260712847114,right,1,0.55,0.6782481074333191,,,,,,,,,,,s022,001,2024-07-26_14h00.48.151,simplestop_skeleton,2022.2.2,59.92023224014411,
None,None,,,,,,,,,2,0,2,0,2,3,11,2,,,,,,,,,993.8080684915185,go,squareblack.png,right,0.55,,,,,,,,,,,,,,,,,,0.0014022476971149445,0.48812227323651314,,996.3119720742106,test,3,,,,,,,993.8260712847114,994.323149934411,994.323149934411,994.3398565798998,994.8737634904683,995.3742711171508,995.3243233449757,996.3331311643124,right,1,0.55,0.9537013433873653,,,,,,,,,,,s022,001,2024-07-26_14h00.48.151,simplestop_skeleton,2022.2.2,59.92023224014411,
None,None,,,,,,,,,2,0,2,0,3,0,12,2,,,,,,,,,996.312437005341,go,squareblack.png,right,0.55,,,,,,,,,,,,,,,,,,0.0013526864349842072,0.4843945726752281,,998.8126164115965,test,3,,,,,,,996.3331311643124,996.8259334936738,996.8259334936738,996.8426390662789,997.3766369633377,997.8770293854177,997.8269844502211,998.8327909111977,right,1,0.55,0.8483659736812115,,,,,,,,,,,s022,001,2024-07-26_14h00.48.151,simplestop_skeleton,2022.2.2,59.92023224014411,
None,None,,,,,,,,,2,0,2,0,3,1,13,1,,,,,,,,,998.8130930662155,stop,squareblack.png,right,0.55,,,,,,,,,,,,,,,,,,0.0011568441987037659,0.48969607800245285,1.0402132421731949,1001.3154002353549,test,3,,,,,,,998.8327909111977,999.329238936305,999.329238936305,999.3475953862071,999.8793798722327,1000.3797772154212,1000.3298952803016,1001.3386854752898,None,0,0.6,,,,,,,,,,,,s022,001,2024-07-26_14h00.48.151,simplestop_skeleton,2022.2.2,59.92023224014411,
None,None,,,,,,,,,2,0,2,0,3,2,14,2,,,,,,,,,1001.3158471286297,go,circleblack.png,left,0.6,,,,,,,,,,,,,,,,,,0.008344713598489761,0.49105599522590637,,1003.8184579797089,test,3,,,,,,,1001.3386854752898,1001.8326516970992,1001.8326516970992,1001.8492067605257,1002.4320752322674,1002.9327608421445,1002.8325524777174,1003.836630422622,left,1,0.6,0.864878173917532,,,,,,,,,,,s022,001,2024-07-26_14h00.48.151,simplestop_skeleton,2022.2.2,59.92023224014411,
None,None,,,,,,,,,2,0,2,0,3,3,15,2,,,,,,,,,1003.8190269581974,stop,circleblack.png,left,0.6,,,,,,,,,,,,,,,,,,0.0014222674071788788,0.48863016441464424,1.0896381735801697,1006.3224465660751,test,3,,,,,,,1003.836630422622,1004.3341921530664,1004.3341921530664,1004.350823558867,1004.9351044148207,1005.4354929327965,1005.3354968689382,1006.3417411707342,None,0,0.65,,,,,,,,,,,,s022,001,2024-07-26_14h00.48.151,simplestop_skeleton,2022.2.2,59.92023224014411,
None,None,,,,,,,,,2,0,2,0,4,0,16,2,,,,,,,,,1006.3228715956211,go,squareblack.png,right,0.65,,,,,,,,,,,,,,,,,,0.0017833560705184937,0.48956962674856186,,1008.8249588608742,test,3,,,,,,,1006.3417411707342,1006.8382847122848,1006.8382847122848,1006.855122666806,1007.488978408277,1007.9884522072971,1007.839915022254,1008.842656750232,right,1,0.65,0.7441694661974907,,,,,,,,,,,s022,001,2024-07-26_14h00.48.151,simplestop_skeleton,2022.2.2,59.92023224014411,
None,None,,,,,,,,,2,0,2,0,4,1,17,1,,,,,,,,,1008.8253845460713,go,circleblack.png,left,0.65,,,,,,,,,,,,,,,,,,0.0017795562744140625,0.4897891953587532,,1011.3277646228671,test,3,,,,,,,1008.842656750232,1009.3396680876613,1009.3396680876613,1009.356347233057,1009.9904838465154,1010.4909313768148,1010.3411268927157,1011.3455911055207,left,1,0.65,1.0422888696193695,,,,,,,,,,,s022,001,2024-07-26_14h00.48.151,simplestop_skeleton,2022.2.2,59.92023224014411,
None,None,,,,,,,,,2,0,2,0,4,2,18,2,,,,,,,,,1011.3282050527632,go,circleblack.png,left,0.65,,,,,,,,,,,,,,,,,,0.0017530322074890137,0.4875812418758869,,1013.8308409973979,test,3,,,,,,,1011.3455911055207,1011.8425177969038,1011.8425177969038,1011.8591197542846,1012.4937049373984,1012.9938481487334,1012.8436765819788,1013.8494195565581,left,1,0.65,0.837974552065134,,,,,,,,,,,s022,001,2024-07-26_14h00.48.151,simplestop_skeleton,2022.2.2,59.92023224014411,
None,None,,,,,,,,,2,0,2,0,4,3,19,3,,,,,,,,,1013.8312762081623,go,squareblack.png,right,0.65,,,,,,,,,,,,,,,,,,0.002518612891435623,0.487416535615921,,1016.3318602330983,test,3,,,,,,,1013.8494195565581,1014.3453266695142,1014.3453266695142,1014.3618124499917,1014.9973610118032,1015.5132196433842,1015.3463337644935,1016.3492173030972,right,1,0.65,1.072950854897499,,,,,,,,,,,s022,001,2024-07-26_14h00.48.151,simplestop_skeleton,2022.2.2,59.92023224014411,
None,None,,,,,,,,,2,0,2,0,5,0,20,3,,,,,,,,,1016.3323075398803,go,circleblack.png,left,0.65,,,,,,,,,,,,,,,,,,0.0017823539674282074,0.4908376671373844,,1018.8347851037979,test,3,,,,,,,1016.3492173030972,1016.8491918295622,1016.8491918295622,1016.8491918295622,1017.4987556934357,1018.0000430829823,1017.8491730540991,1018.8515420667827,left,1,0.65,0.6816880702972412,,,,,,,,,,,s022,001,2024-07-26_14h00.48.151,simplestop_skeleton,2022.2.2,59.92023224014411,
$currentCorrectResponse,$currentGoStim,,,,,,,,,2,0,2,0,5,1,21,0,,,,,,,,,1018.835217256099,stop,circleblack.png,left,0.65,,,,,,,,,,,,,,,,,,0.0012261755764484406,0.4896194748580456,1.1402592919766903,1021.3383823148906,test,3,,,,,,,1018.8515420667827,1019.3510142192245,1019.3510142192245,1019.3510142192245,1020.001612637192,1020.5021917112172,1020.3520694859326,1021.3562765531242,left,1,0.6,0.8189351856708527,,,,,,,,,,,s022,001,2024-07-26_14h00.48.151,simplestop_skeleton,2022.2.2,59.92023224014411,
None,None,,,,,,,,,2,0,2,0,5,2,22,3,,,,,,,,,1021.3388221859932,stop,squareblack.png,right,0.6,,,,,,,,,,,,,,,,,,0.0018591620028018951,0.4904663898050785,1.0894636325538158,1023.8402962423861,test,3,,,,,,,1021.3562765531242,1021.8553010523319,1021.8553010523319,1021.8719460740685,1022.4541932493448,1022.9565767161548,1022.8547582440078,1023.8570007942617,right,1,0.55,0.515615850687027,,,,,,,,,,,s022,001,2024-07-26_14h00.48.151,simplestop_skeleton,2022.2.2,59.92023224014411,
None,None,,,,,,,,,2,0,2,0,5,3,23,1,,,,,,,,,1023.8407222479582,go,squareblack.png,right,0.55,,,,,,,,,,,,,,,,,,0.0011501200497150421,0.4899187348783016,,1026.3439453020692,test,3,,,,,,,1023.8570007942617,1024.3564261868596,1024.3564261868596,1024.3564261868596,1024.9068046808243,1025.4075223952532,1025.3574492745101,1026.3613285385072,right,1,0.55,0.7391006350517273,,,,,,,,,,,s022,001,2024-07-26_14h00.48.151,simplestop_skeleton,2022.2.2,59.92023224014411,
None,None,,,,,,,,,2,0,2,0,6,0,24,3,,,,,,,,,1026.3443695269525,go,circleblack.png,left,0.55,,,,,,,,,,,,,,,,,,0.0019367337226867676,0.490193922072649,,1028.8458621799946,test,3,,,,,,,1026.3613285385072,1026.8603847138584,1026.8603847138584,1026.8771043978631,1027.411060795188,1027.9269075766206,1027.8602219522,1028.8629269748926,left,1,0.55,0.7018614523112774,,,,,,,,,,,s022,001,2024-07-26_14h00.48.151,simplestop_skeleton,2022.2.2,59.92023224014411,
$currentCorrectResponse,$currentGoStim,,,,,,,,,2,0,2,0,6,1,25,0,,,,,,,,,1028.8462930992246,stop,squareblack.png,right,0.55,,,,,,,,,,,,,,,,,,0.001571066677570343,0.48951998725533485,1.040197167545557,1031.350593186915,test,3,,,,,,,1028.8629269748926,1029.3617896176875,1029.3617896176875,1029.3784779682755,1029.9123852737248,1030.41299642995,1030.362795393914,1031.3717631287873,None,0,0.6,,,,,,,,,,,,s022,001,2024-07-26_14h00.48.151,simplestop_skeleton,2022.2.2,59.92023224014411,
$currentCorrectResponse,$currentGoStim,,,,,,,,,2,0,2,0,6,2,26,0,,,,,,,,,1031.351065967232,go,circleblack.png,left,0.6,,,,,,,,,,,,,,,,,,0.002797480672597885,0.4866892769932747,,1033.8533383123577,test,3,,,,,,,1031.3717631287873,1031.8645882122219,1031.8645882122219,1031.881210450083,1032.466930191964,1032.9826060570776,1032.8656655289233,1033.8741929978132,left,1,0.6,0.7251148633658886,,,,,,,,,,,s022,001,2024-07-26_14h00.48.151,simplestop_skeleton,2022.2.2,59.92023224014411,
None,None,,,,,,,,,2,0,2,0,6,3,27,1,,,,,,,,,1033.8537858948112,stop,circleblack.png,left,0.6,,,,,,,,,,,,,,,,,,0.002107083797454834,0.4863922819495201,1.0873623304069042,1036.3556732349098,test,3,,,,,,,1033.8741929978132,1034.3672894500196,1034.3672894500196,1034.3840202651918,1034.9682132452726,1035.4685069285333,1035.3683680854738,1036.3761715218425,left,1,0.55,0.6504747420549393,,,,,,,,,,,s022,001,2024-07-26_14h00.48.151,simplestop_skeleton,2022.2.2,59.92023224014411,
None,None,,,,,,,,,2,0,2,0,7,0,28,1,,,,,,,,,1036.356115475297,stop,circleblack.png,left,0.55,,,,,,,,,,,,,,,,,,0.002193160355091095,0.4856836311519146,1.0364467538893223,1038.8568524084985,test,3,,,,,,,1036.3761715218425,1036.8700087368488,1036.8700087368488,1036.8867523670197,1037.4208648391068,1037.9212199784815,1037.8711594752967,1038.8735840171576,None,0,0.6,,,,,,,,,,,,s022,001,2024-07-26_14h00.48.151,simplestop_skeleton,2022.2.2,59.92023224014411,
$currentCorrectResponse,$currentGoStim,,,,,,,,,2,0,2,0,7,1,29,0,,,,,,,,,1038.8573132492602,go,circleblack.png,left,0.6,,,,,,,,,,,,,,,,,,0.0013494715094566345,0.48971613496541977,,1041.3595174849033,test,3,,,,,,,1038.8735840171576,1039.372852884233,1039.372852884233,1039.372852884233,1039.973634004593,1040.4739936850965,1040.3739034235477,1041.3818144910038,left,1,0.6,1.060528289526701,,,,,,,,,,,s022,001,2024-07-26_14h00.48.151,simplestop_skeleton,2022.2.2,59.92023224014411,
$currentCorrectResponse,$currentGoStim,,,,,,,,,2,0,2,0,7,2,30,0,,,,,,,,,1041.3599876984954,go,squareblack.png,right,0.6,,,,,,,,,,,,,,,,,,0.007253941148519516,0.4896373003721237,,1043.8643917106092,test,3,,,,,,,1041.3818144910038,1041.8756625652313,1041.8756625652313,1041.8923620320857,1042.4762284308672,1042.9769740216434,1042.8774097450078,1043.8801825009286,right,1,0.6,0.9343934580683708,,,,,,,,,,,s022,001,2024-07-26_14h00.48.151,simplestop_skeleton,2022.2.2,59.92023224014411,
$currentCorrectResponse,$currentGoStim,,,,,,,,,2,0,2,0,7,3,31,0,,,,,,,,,1043.864850372076,go,squareblack.png,right,0.6,,,,,,,,,,,,,,,,,,0.0013174042105674744,0.4892190769314766,,1046.3651199229062,test,3,,,,,,,1043.8801825009286,1044.3796719498932,1044.3796719498932,1044.3796719498932,1044.980581253767,1045.481544997543,1045.3810723908246,1046.3827341981232,right,1,0.6,0.8671376742422581,,,,,,,,,,,s022,001,2024-07-26_14h00.48.151,simplestop_skeleton,2022.2.2,59.92023224014411,
None,None,,,,,,,,,2,0,2,0,8,0,32,3,,,,,,,,,1046.3655765801668,go,squareblack.png,right,0.6,,,,,,,,,,,,,,,,,,0.0011672787368297577,0.48916488513350487,,1048.8690820932388,test,3,,,,,,,1046.3827341981232,1046.881422534585,1046.881422534585,1046.8978827558458,1047.4818226397038,1047.9826773256063,1047.8824839778244,1048.8863281346858,right,1,0.6,0.5202325843274593,,,,,,,,,,,s022,001,2024-07-26_14h00.48.151,simplestop_skeleton,2022.2.2,59.92023224014411,
None,None,,,,,,,,,2,0,2,0,8,1,33,1,,,,,,,,,1048.869526643306,stop,squareblack.png,right,0.6,,,,,,,,,,,,,,,,,,0.0014062635600566864,0.48799625784158707,1.0902247615158558,1051.3710483163595,test,3,,,,,,,1048.8863281346858,1049.3839778490365,1049.3839778490365,1049.4007260128856,1049.9854300431907,1050.4865755923092,1050.386846382171,1051.3945338651538,None,0,0.65,,,,,,,,,,,,s022,001,2024-07-26_14h00.48.151,simplestop_skeleton,2022.2.2,59.92023224014411,
None,None,,,,,,,,,2,0,2,0,8,2,34,1,,,,,,,,,1051.3716776557267,go,circleblack.png,left,0.65,,,,,,,,,,,,,,,,,,0.00803501158952713,0.4888532981276512,,1053.8749277926981,test,3,,,,,,,1051.3945338651538,1051.8867594376206,1051.8867594376206,1051.9033268503845,1052.5375361703336,1053.0378733314574,1052.8878174349666,1053.8919699527323,left,1,0.65,0.7022034153342247,,,,,,,,,,,s022,001,2024-07-26_14h00.48.151,simplestop_skeleton,2022.2.2,59.92023224014411,
None,None,,,,,,,,,2,0,2,0,8,3,35,3,,,,,,,,,1053.8753710500896,go,squareblack.png,right,0.65,,,,,,,,,,,,,,,,,,0.0017131268978118896,0.4882903881371021,,1056.3760515004396,test,3,,,,,,,1053.8919699527323,1054.3894741162658,1054.3894741162658,1054.4060177467763,1055.0401516072452,1055.5406918115914,1055.3904225677252,1056.3935010023415,right,1,0.65,0.7044456973671913,,,,,,,,,,,s022,001,2024-07-26_14h00.48.151,simplestop_skeleton,2022.2.2,59.92023224014411,
None,None,,,,,,,,,2,0,2,0,9,0,36,2,,,,,,,,,1056.3764907121658,go,circleblack.png,left,0.65,,,,,,,,,,,,,,,,,,0.0018357224762439728,0.4904850423336029,,1058.8789213337004,test,3,,,,,,,1056.3935010023415,1056.8923543691635,1056.8923543691635,1056.8923543691635,1057.5427995547652,1058.0434774830937,1057.893155157566,1058.8961323015392,left,1,0.65,0.49226702749729156,,,,,,,,,,,s022,001,2024-07-26_14h00.48.151,simplestop_skeleton,2022.2.2,59.92023224014411,
None,None,,,,,,,,,2,0,2,0,9,1,37,2,,,,,,,,,1058.8793504238129,go,squareblack.png,right,0.65,,,,,,,,,,,,,,,,,,0.001724090427160263,0.48998574912548065,,1061.3825156576931,test,3,,,,,,,1058.8961323015392,1059.3950905017555,1059.3950905017555,1059.4118892401457,1060.0462489202619,1060.5463555008173,1060.3961687535048,1061.399877652526,right,1,0.65,0.6678539551794529,,,,,,,,,,,s022,001,2024-07-26_14h00.48.151,simplestop_skeleton,2022.2.2,59.92023224014411,
None,None,,,,,,,,,2,0,2,0,9,2,38,2,,,,,,,,,1061.3829677253962,go,squareblack.png,right,0.65,,,,,,,,,,,,,,,,,,0.0012170076370239258,0.49027736485004425,,1063.884368173778,test,3,,,,,,,1061.399877652526,1061.8991407975554,1061.8991407975554,1061.8991407975554,1062.5498365610838,1063.0490035116673,1062.900431830436,1063.9020661078393,right,1,0.65,0.841035109013319,,,,,,,,,,,s022,001,2024-07-26_14h00.48.151,simplestop_skeleton,2022.2.2,59.92023224014411,
None,None,,,,,,,,,2,0,2,0,9,3,39,3,,,,,,,,,1063.884810745716,go,circleblack.png,left,0.65,,,,,,,,,,,,,,,,,,0.0018405690789222717,0.48984723165631294,,1066.3884360566735,test,3,,,,,,,1063.9020661078393,1064.4005317650735,1064.4005317650735,1064.4171014875174,1065.0513347685337,1065.551703762263,1065.401782348752,1066.406036157161,left,1,0.65,0.4882798194885254,,,,,,,,,,,s022,001,2024-07-26_14h00.48.151,simplestop_skeleton,2022.2.2,59.92023224014411,
None,None,,,,,,,,,2,0,2,0,10,0,40,2,,,,,,,,,1066.3889143131673,go,circleblack.png,left,0.65,,,,,,,,,,,,,,,,,,0.0015742294490337372,0.4878630191087723,,1068.89186270535,test,3,,,,,,,1066.406036157161,1066.9032412730157,1066.9032412730157,1066.9199680127203,1067.5540862418711,1068.0544360689819,1067.9043406434357,1068.9113617166877,left,1,0.65,0.6636817827820778,,,,,,,,,,,s022,001,2024-07-26_14h00.48.151,simplestop_skeleton,2022.2.2,59.92023224014411,
None,None,,,,,,,,,2,0,2,0,10,1,41,3,,,,,,,,,1068.892329826951,stop,circleblack.png,left,0.65,,,,,,,,,,,,,,,,,,0.0020644739270210266,0.4865235313773155,1.1375079825520515,1071.3929283693433,test,3,,,,,,,1068.9113617166877,1069.4060219861567,1069.4060219861567,1069.4226341582835,1070.0568886585534,1070.557168211788,1070.407295331359,1071.4107380323112,left,1,0.6,0.613765474408865,,,,,,,,,,,s022,001,2024-07-26_14h00.48.151,simplestop_skeleton,2022.2.2,59.92023224014411,
None,None,,,,,,,,,2,0,2,0,10,2,42,1,,,,,,,,,1071.3933640941978,go,squareblack.png,right,0.6,,,,,,,,,,,,,,,,,,0.0018128752708435059,0.48939215019345284,,1073.8954099081457,test,3,,,,,,,1071.4107380323112,1071.908772584051,1071.908772584051,1071.9254353791475,1072.5095339491963,1073.0099781379104,1072.9100669436157,1073.9121703058481,right,1,0.6,1.1736093424260616,,,,,,,,,,,s022,001,2024-07-26_14h00.48.151,simplestop_skeleton,2022.2.2,59.92023224014411,
$currentCorrectResponse,$currentGoStim,,,,,,,,,2,0,2,0,10,3,43,0,,,,,,,,,1073.8959165774286,go,squareblack.png,right,0.6,,,,,,,,,,,,,,,,,,0.0013082772493362427,0.48978593200445175,,1076.3981522247195,test,3,,,,,,,1073.9121703058481,1074.4116338863969,1074.4116338863969,1074.4116338863969,1075.0122331790626,1075.513009518385,1075.4126088023186,1076.4161938652396,right,1,0.6,0.705671738833189,,,,,,,,,,,s022,001,2024-07-26_14h00.48.151,simplestop_skeleton,2022.2.2,59.92023224014411,
$currentCorrectResponse,$currentGoStim,,,,,,,,,2,0,2,0,11,0,44,0,,,,,,,,,1076.398589067161,stop,circleblack.png,left,0.6,,,,,,,,,,,,,,,,,,0.0019317194819450378,0.48985665664076805,1.0901847034692764,1078.9018175788224,test,3,,,,,,,1076.4161938652396,1076.9141441062093,1076.9141441062093,1076.931023530662,1077.5148906223476,1078.0172678045928,1077.917174860835,1078.9205423519015,None,0,0.65,,,,,,,,,,,,s022,001,2024-07-26_14h00.48.151,simplestop_skeleton,2022.2.2,59.92023224014411,
None,None,,,,,,,,,2,0,2,0,11,1,45,2,,,,,,,,,1078.902248620987,stop,squareblack.png,right,0.65,,,,,,,,,,,,,,,,,,0.0020427778363227844,0.48906607180833817,1.1399950608611107,1081.4040972851217,test,3,,,,,,,1078.9205423519015,1079.418317552656,1079.418317552656,1079.4349936880171,1080.0693259723485,1080.5851105116308,1080.4199005067348,1081.4206751547754,right,1,0.6,0.7294160388410091,,,,,,,,,,,s022,001,2024-07-26_14h00.48.151,simplestop_skeleton,2022.2.2,59.92023224014411,
None,None,,,,,,,,,2,0,2,0,11,2,46,1,,,,,,,,,1081.4045306779444,stop,squareblack.png,right,0.6,,,,,,,,,,,,,,,,,,0.0011587068438529968,0.4900202229619026,1.0904274806380272,1083.9069992490113,test,3,,,,,,,1081.4206751547754,1081.9204781278968,1081.9204781278968,1081.9204781278968,1082.5208647027612,1083.0231535956264,1082.922841552645,1083.9246111102402,None,0,0.65,,,,,,,,,,,,s022,001,2024-07-26_14h00.48.151,simplestop_skeleton,2022.2.2,59.92023224014411,
None,None,,,,,,,,,2,0,2,0,11,3,47,3,,,,,,,,,1083.9074910245836,go,circleblack.png,left,0.65,,,,,,,,,,,,,,,,,,0.0017533861100673676,0.48928431048989296,,1086.4103870466352,test,3,,,,,,,1083.9246111102402,1084.422641955316,1084.422641955316,1084.439341019839,1085.0733696334064,1085.5737983770669,1085.4237924776971,1086.428837504238,left,1,0.65,1.019003964960575,,,,,,,,,,,s022,001,2024-07-26_14h00.48.151,simplestop_skeleton,2022.2.2,59.92023224014411,
