corrGoResp,shape,practiceBlocks.thisRepN,practiceBlocks.thisTrialN,practiceBlocks.thisN,practiceBlocks.thisIndex,practiceTrials.thisRepN,practiceTrials.thisTrialN,practiceTrials.thisN,practiceTrials.thisIndex,stopBlocks.thisRepN,stopBlocks.thisTrialN,stopBlocks.thisN,stopBlocks.thisIndex,testTrials.thisRepN,testTrials.thisTrialN,testTrials.thisN,testTrials.thisIndex,stopPracTrialList,Test Block: 1,welcome.started,start_exp.started,start_exp.keys,start_exp.rt,instrStopText.started,start_prac.started,StartTrialTimeStamp,trialType,goStim,correctResponse,ssd,fixation.started,rules.started,goStim.started,goResp.started,fixation.stopped,stopSignal.started,stopSignal.stopped,goStim.stopped,goResp.stopped,rules.stopped,goResp.keys,goResp.corr,text.started,rules_2.started,fixationOnset,goStimOnset,stopSignalOnset,EndTrialTimeStamp,Phase,Block,text.stopped,rules_2.stopped,goResp.rt,text_5.started,key_resp_3.started,key_resp_3.keys,key_resp_3.rt,key_resp.started,testText.started,test_fixation.started,test_fixation.stopped,goStim_test.started,goResp_test.started,stopSignal_test.started,stopSignal_test.stopped,goStim_test.stopped,goResp_test.stopped,goResp_test.keys,goResp_test.corr,goResp_test.rt,EndingSSD,text_6.started,key_resp_4.started,key_resp_4.keys,key_resp_4.rt,Test Block: 2,Test Block: 3,ending_text.started,end_resp.started,end_resp.keys,end_resp.rt,participant,session,date,expName,psychopyVersion,frameRate,
,,,,,,,,,,,,,,,,,,"[{'fileName': 'circleblack.png', 'correct_response': 'left', 'condition': 'go'}, {'fileName': 'circleblack.png', 'correct_response': 'left', 'condition': 'go'}, {'fileName': 'squareblack.png', 'correct_response': 'right', 'condition': 'go'}, {'fileName': 'squareblack.png', 'correct_response': 'right', 'condition': 'go'}, {'fileName': 'squareblack.png', 'correct_response': 'right', 'condition': 'stop'}, {'fileName': 'circleblack.png', 'correct_response': 'left', 'condition': 'stop'}, {'fileName': 'squareblack.png', 'correct_response': 'right', 'condition': 'go'}, {'fileName': 'squareblack.png', 'correct_response': 'right', 'condition': 'stop'}, {'fileName': 'circleblack.png', 'correct_response': 'left', 'condition': 'stop'}, {'fileName': 'circleblack.png', 'correct_response': 'left', 'condition': 'go'}, {'fileName': 'circleblack.png', 'correct_response': 'left', 'condition': 'go'}, {'fileName': 'squareblack.png', 'correct_response': 'right', 'condition': 'go'}, {'fileName': 'squareblack.png', 'correct_response': 'right', 'condition': 'go'}, {'fileName': 'circleblack.png', 'correct_response': 'left', 'condition': 'go'}, {'fileName': 'squareblack.png', 'correct_response': 'right', 'condition': 'stop'}, {'fileName': 'circleblack.png', 'correct_response': 'left', 'condition': 'go'}, {'fileName': 'circleblack.png', 'correct_response': 'left', 'condition': 'stop'}, {'fileName': 'squareblack.png', 'correct_response': 'right', 'condition': 'stop'}, {'fileName': 'circleblack.png', 'correct_response': 'left', 'condition': 'go'}, {'fileName': 'squareblack.png', 'correct_response': 'right', 'condition': 'go'}, {'fileName': 'squareblack.png', 'correct_response': 'right', 'condition': 'go'}, {'fileName': 'circleblack.png', 'correct_response': 'left', 'condition': 'stop'}, {'fileName': 'circleblack.png', 'correct_response': 'left', 'condition': 'go'}, {'fileName': 'squareblack.png', 'correct_response': 'right', 'condition': 'go'}]","[{'fileName': 'squareblack.png', 'correct_response': 'right', 'condition': 'stop'}, {'fileName': 'circleblack.png', 'correct_response': 'left', 'condition': 'go'}, {'fileName': 'circleblack.png', 'correct_response': 'left', 'condition': 'go'}, {'fileName': 'squareblack.png', 'correct_response': 'right', 'condition': 'go'}, {'fileName': 'squareblack.png', 'correct_response': 'right', 'condition': 'go'}, {'fileName': 'circleblack.png', 'correct_response': 'left', 'condition': 'go'}, {'fileName': 'squareblack.png', 'correct_response': 'right', 'condition': 'go'}, {'fileName': 'circleblack.png', 'correct_response': 'left', 'condition': 'go'}, {'fileName': 'squareblack.png', 'correct_response': 'right', 'condition': 'stop'}, {'fileName': 'squareblack.png', 'correct_response': 'right', 'condition': 'go'}, {'fileName': 'circleblack.png', 'correct_response': 'left', 'condition': 'stop'}, {'fileName': 'circleblack.png', 'correct_response': 'left', 'condition': 'stop'}, {'fileName': 'circleblack.png', 'correct_response': 'left', 'condition': 'go'}, {'fileName': 'squareblack.png', 'correct_response': 'right', 'condition': 'stop'}, {'fileName': 'circleblack.png', 'correct_response': 'left', 'condition': 'go'}, {'fileName': 'squareblack.png', 'correct_response': 'right', 'condition': 'go'}, {'fileName': 'squareblack.png', 'correct_response': 'right', 'condition': 'go'}, {'fileName': 'circleblack.png', 'correct_response': 'left', 'condition': 'go'}, {'fileName': 'circleblack.png', 'correct_response': 'left', 'condition': 'stop'}, {'fileName': 'circleblack.png', 'correct_response': 'left', 'condition': 'go'}, {'fileName': 'squareblack.png', 'correct_response': 'right', 'condition': 'go'}, {'fileName': 'squareblack.png', 'correct_response': 'right', 'condition': 'go'}, {'fileName': 'circleblack.png', 'correct_response': 'left', 'condition': 'stop'}, {'fileName': 'squareblack.png', 'correct_response': 'right', 'condition': 'stop'}, {'fileName': 'circleblack.png', 'correct_response': 'left', 'condition': 'stop'}, {'fileName': 'circleblack.png', 'correct_response': 'left', 'condition': 'go'}, {'fileName': 'squareblack.png', 'correct_response': 'right', 'condition': 'stop'}, {'fileName': 'squareblack.png', 'correct_response': 'right', 'condition': 'go'}, {'fileName': 'circleblack.png', 'correct_response': 'left', 'condition': 'go'}, {'fileName': 'circleblack.png', 'correct_response': 'left', 'condition': 'stop'}, {'fileName': 'squareblack.png', 'correct_response': 'right', 'condition': 'go'}, {'fileName': 'squareblack.png', 'correct_response': 'right', 'condition': 'stop'}, {'fileName': 'squareblack.png', 'correct_response': 'right', 'condition': 'go'}, {'fileName': 'circleblack.png', 'correct_response': 'left', 'condition': 'go'}, {'fileName': 'circleblack.png', 'correct_response': 'left', 'condition': 'go'}, {'fileName': 'squareblack.png', 'correct_response': 'right', 'condition': 'go'}, {'fileName': 'circleblack.png', 'correct_response': 'left', 'condition': 'stop'}, {'fileName': 'circleblack.png', 'correct_response': 'left', 'condition': 'go'}, {'fileName': 'squareblack.png', 'correct_response': 'right', 'condition': 'go'}, {'fileName': 'squareblack.png', 'correct_response': 'right', 'condition': 'stop'}, {'fileName': 'circleblack.png', 'correct_response': 'left', 'condition': 'go'}, {'fileName': 'circleblack.png', 'correct_response': 'left', 'condition': 'go'}, {'fileName': 'circleblack.png', 'correct_response': 'left', 'condition': 'go'}, {'fileName': 'squareblack.png', 'correct_response': 'right', 'condition': 'go'}, {'fileName': 'squareblack.png', 'correct_response': 'right', 'condition': 'go'}, {'fileName': 'circleblack.png', 'correct_response': 'left', 'condition': 'stop'}, {'fileName': 'squareblack.png', 'correct_response': 'right', 'condition': 'go'}, {'fileName': 'squareblack.png', 'correct_response': 'right', 'condition': 'stop'}]",291.6767683625221,291.6767683625221,return,7.764706380665302,,,,,,,,,,,,,,,,,,,,,,,,,,,,,,,,,,,,,,,,,,,,,,,,,,,,,,,,,,,s030,001,2024-08-16_11h41.11.411,simplestop_skeleton,2022.2.2,59.94607263280578,
None,None,0,0,0,0,0,0,0,3,,,,,,,,,,,,,,,299.48174468427896,299.48174468427896,392.9080253317952,go,circleblack.png,left,0.35,392.93042958527803,392.93042958527803,393.4233077913523,393.4233077913523,393.4397349357605,393.77358793467283,394.27425127476454,394.42412769049406,395.4253830909729,395.44408413767815,None,0,395.44408413767815,395.44408413767815,0.0034092217683792114,0.48869020491838455,0.8390580862760544,395.9432743638754,practice,1,,,,,,,,,,,,,,,,,,,,,,,,,,,,,,,,s030,001,2024-08-16_11h41.11.411,simplestop_skeleton,2022.2.2,59.94607263280578,
None,None,0,0,0,0,0,1,1,3,,,,,,,,,,,,,,,,,395.9438144415617,go,circleblack.png,left,0.35,395.96307188272476,395.96307188272476,396.4597766548395,396.4597766548395,396.47648318856955,396.81023785471916,397.3106747791171,397.4595527127385,398.46196116507053,398.4784709960222,None,0,398.4784709960222,398.4784709960222,0.0012739524245262146,0.4897577315568924,0.8402194082736969,398.96365214139223,practice,1,398.98815044760704,398.98815044760704,,,,,,,,,,,,,,,,,,,,,,,,,,,,,,s030,001,2024-08-16_11h41.11.411,simplestop_skeleton,2022.2.2,59.94607263280578,
None,None,0,0,0,0,0,2,2,3,,,,,,,,,,,,,,,,,398.96409496665,go,squareblack.png,right,0.35,398.98815044760704,398.98815044760704,399.47972220927477,399.47972220927477,399.4966324940324,399.83019310981035,400.33081325143576,400.4810732975602,401.48226664215326,401.49865324795246,None,0,401.49865324795246,401.49865324795246,0.0073385536670684814,0.4897841587662697,0.840630829334259,401.98373728990555,practice,1,,,,,,,,,,,,,,,,,,,,,,,,,,,,,,,,s030,001,2024-08-16_11h41.11.411,simplestop_skeleton,2022.2.2,59.94607263280578,
$currentCorrectResponse,$currentGoStim,0,0,0,0,0,3,3,0,,,,,,,,,,,,,,,,,401.98416838794947,go,squareblack.png,right,0.35,402.00335834920406,402.00335834920406,402.50032152980566,402.50032152980566,402.5166407972574,402.85037353634834,403.3508264645934,403.5012660622597,404.50234616547823,404.5190654695034,None,0,404.5190654695034,404.5190654695034,0.0012597739696502686,0.4898775592446327,0.8400750532746315,405.003884986043,practice,1,405.0229895338416,405.0229895338416,,,,,,,,,,,,,,,,,,,,,,,,,,,,,,s030,001,2024-08-16_11h41.11.411,simplestop_skeleton,2022.2.2,59.94607263280578,
None,None,0,0,0,0,1,0,4,2,,,,,,,,,,,,,,,,,405.0043011456728,stop,squareblack.png,right,0.35,405.0229895338416,405.0229895338416,405.51985378563404,405.51985378563404,405.5364426895976,405.87020517140627,406.3706749677658,406.5210215523839,407.5220830515027,407.53875832259655,None,0,407.53875832259655,407.53875832259655,0.0012089386582374573,0.4897582232952118,0.8400760814547539,408.02355003356934,practice,1,408.0442059636116,408.0442059636116,,,,,,,,,,,,,,,,,,,,,,,,,,,,,,s030,001,2024-08-16_11h41.11.411,simplestop_skeleton,2022.2.2,59.94607263280578,
None,None,0,0,0,0,1,1,5,2,,,,,,,,,,,,,,,,,408.02396926283836,stop,circleblack.png,left,0.4,408.0442059636116,408.0442059636116,408.5384572595358,408.5384572595358,408.5551923587918,408.9396334812045,409.44081550836563,409.54109455645084,410.54207741469145,410.55859080702066,None,0,410.55859080702066,410.55859080702066,0.002135828137397766,0.48818451911211014,0.8894256800413132,411.0434941276908,practice,1,411.06339909881353,411.06339909881353,,,,,,,,,,,,,,,,,,,,,,,,,,,,,,s030,001,2024-08-16_11h41.11.411,simplestop_skeleton,2022.2.2,59.94607263280578,
None,None,0,0,0,0,1,2,6,1,,,,,,,,,,,,,,,,,411.0439380258322,go,squareblack.png,right,0.45,411.06339909881353,411.06339909881353,411.5600477308035,411.5600477308035,411.5765073001385,412.0103344321251,412.5108085125685,412.5609769001603,413.56199330091476,413.57871698588133,right,1,413.57871698588133,413.57871698588133,0.0017126649618148804,0.4901261702179909,0.9406237229704857,414.0635355487466,practice,1,414.0828375443816,414.0828375443816,0.674126610159874,,,,,,,,,,,,,,,,,,,,,,,,,,,,,s030,001,2024-08-16_11h41.11.411,simplestop_skeleton,2022.2.2,59.94607263280578,
$currentCorrectResponse,$currentGoStim,0,0,0,0,1,3,7,0,,,,,,,,,,,,,,,,,414.0639576986432,stop,squareblack.png,right,0.45,414.0828375443816,414.0828375443816,414.58015740662813,414.58015740662813,414.5965332239866,415.0304530337453,415.54629146307707,415.5797490179539,416.5822608694434,416.5822608694434,right,1,416.5822608694434,416.5822608694434,0.001193217933177948,0.49041973799467087,0.9409372583031654,417.06701707839966,practice,1,417.086926355958,417.086926355958,0.4918406009674072,,,,,,,,,,,,,,,,,,,,,,,,,,,,,s030,001,2024-08-16_11h41.11.411,simplestop_skeleton,2022.2.2,59.94607263280578,
$currentCorrectResponse,$currentGoStim,0,0,0,0,2,0,8,0,,,,,,,,,,,,,,,,,417.06745894253254,stop,circleblack.png,left,0.4,417.086926355958,417.086926355958,417.5832777619362,417.5832777619362,417.6001665368676,417.98375552892685,418.48427430540323,418.5843610987067,419.5852718055248,419.60211584717035,None,0,419.60211584717035,419.60211584717035,0.0018988028168678284,0.49015360325574875,0.8904511705040932,420.0868204906583,practice,1,,,,,,,,,,,,,,,,,,,,,,,,,,,,,,,,s030,001,2024-08-16_11h41.11.411,simplestop_skeleton,2022.2.2,59.94607263280578,
$currentCorrectResponse,$currentGoStim,0,0,0,0,2,1,9,0,,,,,,,,,,,,,,,,,420.0872635319829,go,circleblack.png,left,0.45,420.1062085852027,420.1062085852027,420.6032592430711,420.6032592430711,420.6200361326337,421.0539280921221,421.5542347058654,421.6046079173684,422.6054739654064,422.62225510925055,None,0,422.62225510925055,422.62225510925055,0.0012573078274726868,0.4901970252394676,0.9406500533223152,423.1068512648344,practice,1,423.12626135349274,423.12626135349274,,,,,,,,,,,,,,,,,,,,,,,,,,,,,,s030,001,2024-08-16_11h41.11.411,simplestop_skeleton,2022.2.2,59.94607263280578,
None,None,0,0,0,0,2,2,10,2,,,,,,,,,,,,,,,,,423.1072722822428,go,circleblack.png,left,0.45,423.12626135349274,423.12626135349274,423.6232237443328,423.6232237443328,423.6399392038584,424.07390177994967,424.58933179825544,424.62332836538553,425.6254910826683,425.6419327184558,right,0,425.6419327184558,425.6419327184558,0.0012982338666915894,0.490291103720665,0.9408301934599876,426.12686575204134,practice,1,426.14699974656105,426.14699974656105,0.518700622022152,,,,,,,,,,,,,,,,,,,,,,,,,,,,,s030,001,2024-08-16_11h41.11.411,simplestop_skeleton,2022.2.2,59.94607263280578,
None,None,0,0,0,0,2,3,11,1,,,,,,,,,,,,,,,,,426.1272828876972,go,squareblack.png,right,0.45,426.14699974656105,426.14699974656105,426.6429990977049,426.6429990977049,426.65981474518776,427.0935247167945,427.594010874629,427.6445405334234,428.6453707739711,428.66185492277145,None,0,428.66185492277145,428.66185492277145,0.0017559528350830078,0.49009692668914795,0.9403400719165802,429.14673589915037,practice,1,429.1663781553507,429.1663781553507,,,,,,,,,,,,,,,,,,,,,,,,,,,,,,s030,001,2024-08-16_11h41.11.411,simplestop_skeleton,2022.2.2,59.94607263280578,
None,None,0,0,0,0,3,0,12,3,,,,,,,,,,,,,,,,,429.1471554711461,go,squareblack.png,right,0.45,429.1663781553507,429.1663781553507,429.6631857082248,429.6631857082248,429.6798570677638,430.1137774735689,430.61426593363285,430.664517685771,431.6653978303075,431.68223061412573,None,0,431.68223061412573,431.68223061412573,0.0012819170951843262,0.4905959665775299,0.9407031610608101,432.16678846627474,practice,1,432.1870175898075,432.1870175898075,,,,,,,,,,,,,,,,,,,,,,,,,,,,,,s030,001,2024-08-16_11h41.11.411,simplestop_skeleton,2022.2.2,59.94607263280578,
None,None,0,0,0,0,3,1,13,2,,,,,,,,,,,,,,,,,432.16720797866583,go,circleblack.png,left,0.45,432.1870175898075,432.1870175898075,432.6833366975188,432.6833366975188,432.69999346137047,433.1335500255227,433.63290717452765,433.68283752352,434.68532674759626,434.7022171616554,left,1,434.7022171616554,434.7022171616554,0.0019040629267692566,0.49029040336608887,0.9404813274741173,435.1868561729789,practice,1,435.20665577054024,435.20665577054024,0.5179109275341034,,,,,,,,,,,,,,,,,,,,,,,,,,,,,s030,001,2024-08-16_11h41.11.411,simplestop_skeleton,2022.2.2,59.94607263280578,
$currentCorrectResponse,$currentGoStim,0,0,0,0,3,2,14,0,,,,,,,,,,,,,,,,,435.18734952807426,stop,squareblack.png,right,0.45,435.20665577054024,435.20665577054024,435.7033385336399,435.7033385336399,435.72008354216814,436.1534816324711,436.6531552448869,436.70308189839125,437.70534421503544,437.7222306802869,right,1,437.7222306802869,437.7222306802869,0.0018066763877868652,0.490271732211113,0.9410282224416733,438.20686880499125,practice,1,438.22681027650833,438.22681027650833,0.4179704561829567,,,,,,,,,,,,,,,,,,,,,,,,,,,,,s030,001,2024-08-16_11h41.11.411,simplestop_skeleton,2022.2.2,59.94607263280578,
None,None,0,0,0,0,3,3,15,2,,,,,,,,,,,,,,,,,438.20729937404394,go,circleblack.png,left,0.4,438.22681027650833,438.22681027650833,438.7232207134366,438.7232207134366,438.74026377499104,439.12368853390217,439.62395699322224,439.72293680906296,440.7251582890749,440.7418233603239,left,1,440.7418233603239,440.7418233603239,0.001781754195690155,0.4901164472103119,0.8906918317079544,441.226758107543,practice,1,,,0.6726067140698433,,,,,,,,,,,,,,,,,,,,,,,,,,,,,s030,001,2024-08-16_11h41.11.411,simplestop_skeleton,2022.2.2,59.94607263280578,
$currentCorrectResponse,$currentGoStim,0,0,0,0,4,0,16,0,,,,,,,,,,,,,,,,,441.22717548161745,stop,circleblack.png,left,0.4,441.24587661772966,441.24587661772966,441.7430489137769,441.7430489137769,441.7597301751375,442.14345847815275,442.64418886601925,442.7438750192523,443.74528815597296,443.74528815597296,None,0,443.74528815597296,443.74528815597296,0.001240067183971405,0.4903060793876648,0.8904304653406143,444.23021049797535,practice,1,,,,,,,,,,,,,,,,,,,,,,,,,,,,,,,,s030,001,2024-08-16_11h41.11.411,simplestop_skeleton,2022.2.2,59.94607263280578,
None,None,0,0,0,0,4,1,17,3,,,,,,,,,,,,,,,,,444.2306494563818,stop,squareblack.png,right,0.45,444.2498888000846,444.2498888000846,444.74656341969967,444.74656341969967,444.7631887421012,445.19675551354885,445.69604355096817,445.7461077198386,446.7485970109701,446.765399761498,right,1,446.765399761498,446.765399761498,0.0017053112387657166,0.4903067350387573,0.9406838193535805,447.250145368278,practice,1,,,0.685857355594635,,,,,,,,,,,,,,,,,,,,,,,,,,,,,s030,001,2024-08-16_11h41.11.411,simplestop_skeleton,2022.2.2,59.94607263280578,
None,None,0,0,0,0,4,2,18,1,,,,,,,,,,,,,,,,,447.25058426707983,go,circleblack.png,left,0.4,447.26997853815556,447.26997853815556,447.7663505002856,447.7663505002856,447.7831384688616,448.1667771860957,448.6676213517785,448.7676310092211,449.76851415634155,449.7852967455983,None,0,449.7852967455983,449.7852967455983,0.001762382686138153,0.49020861834287643,0.8904998525977135,450.2702035754919,practice,1,,,,,,,,,,,,,,,,,,,,,,,,,,,,,,,,s030,001,2024-08-16_11h41.11.411,simplestop_skeleton,2022.2.2,59.94607263280578,
None,None,0,0,0,0,4,3,19,3,,,,,,,,,,,,,,,,,450.27061945945024,go,squareblack.png,right,0.4,450.2901469171047,450.2901469171047,450.7862932085991,450.7862932085991,450.80316062271595,451.1871560588479,451.7027915045619,451.7862081974745,452.78864551335573,452.80554661154747,None,0,452.80554661154747,452.80554661154747,0.0017459988594055176,0.4899677336215973,0.8909245803952217,453.29005213081837,practice,1,453.3092620894313,453.3092620894313,,,,,,,,,,,,,,,,,,,,,,,,,,,,,,s030,001,2024-08-16_11h41.11.411,simplestop_skeleton,2022.2.2,59.94607263280578,
None,None,0,0,0,0,5,0,20,2,,,,,,,,,,,,,,,,,453.2904700040817,go,squareblack.png,right,0.4,453.3092620894313,453.3092620894313,453.80625522881746,453.80625522881746,453.8233185708523,454.2068071886897,454.70640494674444,454.80616257339716,455.80899499356747,455.80899499356747,right,1,455.80899499356747,455.80899499356747,0.0011831894516944885,0.4900147616863251,0.890683613717556,456.2933362647891,practice,1,456.31349842250347,456.31349842250347,0.5610604733228683,,,,,,,,,,,,,,,,,,,,,,,,,,,,,s030,001,2024-08-16_11h41.11.411,simplestop_skeleton,2022.2.2,59.94607263280578,
None,None,0,0,0,0,5,1,21,1,,,,,,,,,,,,,,,,,456.29376344382763,stop,circleblack.png,left,0.4,456.31349842250347,456.31349842250347,456.8097115159035,456.8097115159035,456.82682248204947,457.20991764962673,457.70957154780626,457.80941596627235,458.81175331026316,458.828651599586,left,1,458.828651599586,458.828651599586,0.001968882977962494,0.49012915045022964,0.8904328048229218,459.3133184835315,practice,1,459.3329301998019,459.3329301998019,0.42540284991264343,,,,,,,,,,,,,,,,,,,,,,,,,,,,,s030,001,2024-08-16_11h41.11.411,simplestop_skeleton,2022.2.2,59.94607263280578,
None,None,0,0,0,0,5,2,22,1,,,,,,,,,,,,,,,,,459.3137339949608,go,circleblack.png,left,0.35,459.3329301998019,459.3329301998019,459.82972601801157,459.82972601801157,459.8464570045471,460.18024984002113,460.6792592406273,460.8294508829713,461.83197321742773,461.8488448038697,left,1,461.8488448038697,461.8488448038697,0.0012555867433547974,0.49007198214530945,0.8406151533126831,462.33333668112755,practice,1,462.3532529696822,462.3532529696822,0.5391654521226883,,,,,,,,,,,,,,,,,,,,,,,,,,,,,s030,001,2024-08-16_11h41.11.411,simplestop_skeleton,2022.2.2,59.94607263280578,
None,None,0,0,0,0,5,3,23,1,,,,,,,,,,,,,,,,,462.3337545096874,go,squareblack.png,right,0.35,462.3532529696822,462.3532529696822,462.8498635739088,462.8498635739088,462.86641785502434,463.2002329826355,463.7006150484085,463.8494284003973,464.8522112444043,464.8688747808337,right,1,464.8688747808337,464.8688747808337,0.0017006322741508484,0.4902588129043579,0.8405983150005341,465.3535367920995,practice,1,465.37114253640175,465.37114253640175,0.696147158741951,,,,,,,,,,,,,,,,,,,,,,,,,,,,,s030,001,2024-08-16_11h41.11.411,simplestop_skeleton,2022.2.2,59.94607263280578,
,,0,0,0,0,,,,,,,,,,,,,"[{'fileName': 'squareblack.png', 'correct_response': 'right', 'condition': 'go'}, {'fileName': 'squareblack.png', 'correct_response': 'right', 'condition': 'stop'}, {'fileName': 'circleblack.png', 'correct_response': 'left', 'condition': 'go'}, {'fileName': 'squareblack.png', 'correct_response': 'right', 'condition': 'stop'}, {'fileName': 'squareblack.png', 'correct_response': 'right', 'condition': 'go'}, {'fileName': 'circleblack.png', 'correct_response': 'left', 'condition': 'stop'}, {'fileName': 'circleblack.png', 'correct_response': 'left', 'condition': 'go'}, {'fileName': 'squareblack.png', 'correct_response': 'right', 'condition': 'go'}, {'fileName': 'circleblack.png', 'correct_response': 'left', 'condition': 'go'}, {'fileName': 'squareblack.png', 'correct_response': 'right', 'condition': 'go'}, {'fileName': 'circleblack.png', 'correct_response': 'left', 'condition': 'stop'}, {'fileName': 'circleblack.png', 'correct_response': 'left', 'condition': 'go'}, {'fileName': 'squareblack.png', 'correct_response': 'right', 'condition': 'stop'}, {'fileName': 'circleblack.png', 'correct_response': 'left', 'condition': 'go'}, {'fileName': 'circleblack.png', 'correct_response': 'left', 'condition': 'stop'}, {'fileName': 'squareblack.png', 'correct_response': 'right', 'condition': 'go'}, {'fileName': 'squareblack.png', 'correct_response': 'right', 'condition': 'stop'}, {'fileName': 'squareblack.png', 'correct_response': 'right', 'condition': 'go'}, {'fileName': 'squareblack.png', 'correct_response': 'right', 'condition': 'go'}, {'fileName': 'circleblack.png', 'correct_response': 'left', 'condition': 'go'}, {'fileName': 'squareblack.png', 'correct_response': 'right', 'condition': 'go'}, {'fileName': 'circleblack.png', 'correct_response': 'left', 'condition': 'go'}, {'fileName': 'circleblack.png', 'correct_response': 'left', 'condition': 'go'}, {'fileName': 'circleblack.png', 'correct_response': 'left', 'condition': 'stop'}]",,,,,,,,,,,,,,,,,,,,,,,,,,,,,,,,,,,,465.37114253640175,465.37114253640175,return,3.280774749815464,,,,,,,,,,,,,,,,,,,,,,,,,s030,001,2024-08-16_11h41.11.411,simplestop_skeleton,2022.2.2,59.94607263280578,
None,None,,,,,,,,,0,0,0,0,0,0,0,3,,,,,,,,,495.74455911666155,stop,squareblack.png,right,0.35,,,,,,,,,,,,,,,0.001975223422050476,0.49889373779296875,0.8492406532168388,498.25694071501493,test,1,,,,,,,,468.67167680710554,468.67167680710554,495.7640260234475,496.2699190750718,496.2699190750718,496.2699190750718,496.62026745826006,497.12086690217257,497.2711200118065,498.2763292193413,right,1,0.5837469026446342,0.3,,,,,,,,,,,s030,001,2024-08-16_11h41.11.411,simplestop_skeleton,2022.2.2,59.94607263280578,
$currentCorrectResponse,$currentGoStim,,,,,,,,,0,0,0,0,0,1,1,0,,,,,,,,,498.2574821934104,go,circleblack.png,left,0.3,,,,,,,,,,,,,,,0.002527676522731781,0.48922184109687805,,500.7593775242567,test,1,,,,,,,,,,498.2763292193413,498.789691016078,498.7729977890849,498.7729977890849,499.0729766562581,499.5739391595125,499.77391424775124,500.7783769518137,left,1,0.7100886702537537,0.3,,,,,,,,,,,s030,001,2024-08-16_11h41.11.411,simplestop_skeleton,2022.2.2,59.94607263280578,
None,None,,,,,,,,,0,0,0,0,0,2,2,3,,,,,,,,,500.7598196193576,go,circleblack.png,left,0.3,,,,,,,,,,,,,,,0.0013350173830986023,0.48970289528369904,,503.26211726665497,test,1,,,,,,,,,,500.7783769518137,501.29197139292955,501.2753430530429,501.2753430530429,501.57572546601295,502.07480415701866,502.2752441316843,503.28120002895594,left,1,0.43435902148485184,0.3,,,,,,,,,,,s030,001,2024-08-16_11h41.11.411,simplestop_skeleton,2022.2.2,59.94607263280578,
None,None,,,,,,,,,0,0,0,0,0,3,3,3,,,,,,,,,503.26256411522627,go,squareblack.png,right,0.3,,,,,,,,,,,,,,,0.001705758273601532,0.48976512253284454,,505.76505003124475,test,1,,,,,,,,,,503.28120002895594,503.7946520447731,503.7781552672386,503.7781552672386,504.0784451290965,504.5943671539426,504.7777912840247,505.78372859209776,right,1,0.38110511004924774,0.3,,,,,,,,,,,s030,001,2024-08-16_11h41.11.411,simplestop_skeleton,2022.2.2,59.94607263280578,
$currentCorrectResponse,$currentGoStim,,,,,,,,,0,0,0,0,1,0,4,0,,,,,,,,,505.76549335569143,go,squareblack.png,right,0.3,,,,,,,,,,,,,,,0.0012454390525817871,0.48954805731773376,,508.2675212174654,test,1,,,,,,,,,,505.78372859209776,506.2976779267192,506.2808538377285,506.2808538377285,506.5812005698681,507.0817606076598,507.2805914953351,508.28691820055246,right,1,0.5351833552122116,0.3,,,,,,,,,,,s030,001,2024-08-16_11h41.11.411,simplestop_skeleton,2022.2.2,59.94607263280578,
None,None,,,,,,,,,0,0,0,0,1,1,5,3,,,,,,,,,508.26795437186956,go,circleblack.png,left,0.3,,,,,,,,,,,,,,,0.0018297359347343445,0.48980261385440826,,510.77034636586905,test,1,,,,,,,,,,508.28691820055246,508.8002407774329,508.7837446630001,508.7837446630001,509.08421282470226,509.5997984036803,509.7833254188299,510.78929568082094,left,1,0.3622550889849663,0.3,,,,,,,,,,,s030,001,2024-08-16_11h41.11.411,simplestop_skeleton,2022.2.2,59.94607263280578,
$currentCorrectResponse,$currentGoStim,,,,,,,,,0,0,0,0,1,2,6,0,,,,,,,,,510.7707925364375,go,squareblack.png,right,0.3,,,,,,,,,,,,,,,0.0015806779265403748,0.4896528199315071,,513.2733224928379,test,1,,,,,,,,,,510.78929568082094,511.3031729310751,511.28657641261816,511.28657641261816,511.5865687355399,512.085896551609,512.2866571471095,513.2926807627082,right,1,0.4764348119497299,0.3,,,,,,,,,,,s030,001,2024-08-16_11h41.11.411,simplestop_skeleton,2022.2.2,59.94607263280578,
None,None,,,,,,,,,0,0,0,0,1,3,7,3,,,,,,,,,513.2737634703517,go,circleblack.png,left,0.3,,,,,,,,,,,,,,,0.0019325539469718933,0.48954347521066666,,515.7758841589093,test,1,,,,,,,,,,513.2926807627082,513.8062102943659,513.7890783026814,513.7890783026814,514.0895376503468,514.6053353622556,514.7889789417386,515.7952432259917,left,1,0.3508485481142998,0.3,,,,,,,,,,,s030,001,2024-08-16_11h41.11.411,simplestop_skeleton,2022.2.2,59.94607263280578,
None,None,,,,,,,,,0,0,0,0,2,0,8,2,,,,,,,,,515.7763105407357,stop,squareblack.png,right,0.3,,,,,,,,,,,,,,,0.0017768293619155884,0.48972713202238083,0.7902049273252487,518.2787378355861,test,1,,,,,,,,,,515.7952432259917,516.308581598103,516.2918405532837,516.2918405532837,516.5922018885612,517.0914658680558,517.2915301546454,518.2975836768746,right,1,0.3531172275543213,0.25,,,,,,,,,,,s030,001,2024-08-16_11h41.11.411,simplestop_skeleton,2022.2.2,59.94607263280578,
None,None,,,,,,,,,0,0,0,0,2,1,9,2,,,,,,,,,518.2791746035218,go,squareblack.png,right,0.25,,,,,,,,,,,,,,,0.001274503767490387,0.4895295798778534,,520.7814063578844,test,1,,,,,,,,,,518.2975836768746,518.8114704489708,518.7947489619255,518.7947489619255,519.0450335890055,519.544167265296,519.7944348603487,520.8009527921677,left,0,0.3510528430342674,0.25,,,,,,,,,,,s030,001,2024-08-16_11h41.11.411,simplestop_skeleton,2022.2.2,59.94607263280578,
None,None,,,,,,,,,0,0,0,0,2,2,10,2,,,,,,,,,520.7818415686488,stop,circleblack.png,left,0.25,,,,,,,,,,,,,,,0.0019521042704582214,0.48983070254325867,0.7403392121195793,523.28425193578,test,1,,,,,,,,,,520.8009527921677,521.3142755776644,521.2973259612918,521.2973259612918,521.5476557761431,522.0482357740402,522.2973148822784,523.3029321655631,left,1,0.4682864025235176,0.2,,,,,,,,,,,s030,001,2024-08-16_11h41.11.411,simplestop_skeleton,2022.2.2,59.94607263280578,
None,None,,,,,,,,,0,0,0,0,2,3,11,2,,,,,,,,,523.2846914082766,stop,circleblack.png,left,0.2,,,,,,,,,,,,,,,0.0012372583150863647,0.4896608516573906,0.6899636909365654,525.7869545817375,test,1,,,,,,,,,,523.3029321655631,523.8168820664287,523.8004760965705,523.8004760965705,524.0003734007478,524.5010763630271,524.8015977069736,525.8058830946684,None,0,,0.25,,,,,,,,,,,s030,001,2024-08-16_11h41.11.411,simplestop_skeleton,2022.2.2,59.94607263280578,
None,None,,,,,,,,,0,0,0,0,3,0,12,2,,,,,,,,,525.7873851582408,go,circleblack.png,left,0.25,,,,,,,,,,,,,,,0.0013597756624221802,0.4895431399345398,,528.2897261381149,test,1,,,,,,,,,,525.8058830946684,526.3197893500328,526.3031568080187,526.3031568080187,526.5533267185092,527.0538181215525,527.3028733953834,528.3093354478478,left,1,0.5166895017027855,0.25,,,,,,,,,,,s030,001,2024-08-16_11h41.11.411,simplestop_skeleton,2022.2.2,59.94607263280578,
None,None,,,,,,,,,0,0,0,0,3,1,13,3,,,,,,,,,528.2901501134038,stop,squareblack.png,right,0.25,,,,,,,,,,,,,,,0.0018734484910964966,0.4897629842162132,0.7399178072810173,530.7925758287311,test,1,,,,,,,,,,528.3093354478478,528.8225149512291,528.8061920776963,528.8061920776963,529.0563371777534,529.5570170134306,529.8069117888808,530.8118039295077,None,0,,0.3,,,,,,,,,,,s030,001,2024-08-16_11h41.11.411,simplestop_skeleton,2022.2.2,59.94607263280578,
None,None,,,,,,,,,0,0,0,0,3,2,14,1,,,,,,,,,530.7930170297623,go,circleblack.png,left,0.3,,,,,,,,,,,,,,,0.0017741993069648743,0.48986055701971054,,533.295101441443,test,1,,,,,,,,,,530.8118039295077,531.3251943662763,531.3085066974163,531.3085066974163,531.608773522079,532.1079532951117,532.3081278502941,533.3142696171999,left,1,0.4965209662914276,0.3,,,,,,,,,,,s030,001,2024-08-16_11h41.11.411,simplestop_skeleton,2022.2.2,59.94607263280578,
$currentCorrectResponse,$currentGoStim,,,,,,,,,0,0,0,0,3,3,15,0,,,,,,,,,533.2955300882459,go,squareblack.png,right,0.3,,,,,,,,,,,,,,,0.0015685036778450012,0.48993752151727676,,535.7978730350733,test,1,,,,,,,,,,533.3142696171999,533.8279752880335,533.8113668560982,533.8113668560982,534.111569955945,534.6122155040503,534.8109156042337,535.8169746696949,right,1,0.6060215458273888,0.3,,,,,,,,,,,s030,001,2024-08-16_11h41.11.411,simplestop_skeleton,2022.2.2,59.94607263280578,
None,None,,,,,,,,,0,0,0,0,4,0,16,2,,,,,,,,,535.7983149066567,go,squareblack.png,right,0.3,,,,,,,,,,,,,,,0.0011819005012512207,0.4896954596042633,,538.300768442452,test,1,,,,,,,,,,535.8169746696949,536.3309228122234,536.3139435350895,536.3139435350895,536.6142502501607,537.1148592829704,537.3136712685227,538.3201566115022,right,1,0.5909077897667885,0.3,,,,,,,,,,,s030,001,2024-08-16_11h41.11.411,simplestop_skeleton,2022.2.2,59.94607263280578,
None,None,,,,,,,,,0,0,0,0,4,1,17,3,,,,,,,,,538.3012154176831,go,circleblack.png,left,0.3,,,,,,,,,,,,,,,0.0019796863198280334,0.48971445113420486,,540.8034502640367,test,1,,,,,,,,,,538.3201566115022,538.8336104527116,538.8168167620897,538.8168167620897,539.1170040667057,539.6176577359438,539.8164324089885,540.8220384120941,left,1,0.5632636398077011,0.3,,,,,,,,,,,s030,001,2024-08-16_11h41.11.411,simplestop_skeleton,2022.2.2,59.94607263280578,
None,None,,,,,,,,,0,0,0,0,4,2,18,1,,,,,,,,,540.8038959354162,stop,circleblack.png,left,0.3,,,,,,,,,,,,,,,0.00124262273311615,0.48984891176223755,0.7901134118437767,543.3063404038548,test,1,,,,,,,,,,540.8220384120941,541.3362746611238,541.3196963816881,541.3196963816881,541.620057053864,542.1204347833991,542.3205847591162,543.3239548876882,None,0,,0.35,,,,,,,,,,,s030,001,2024-08-16_11h41.11.411,simplestop_skeleton,2022.2.2,59.94607263280578,
$currentCorrectResponse,$currentGoStim,,,,,,,,,0,0,0,0,4,3,19,0,,,,,,,,,543.3067837581038,go,circleblack.png,left,0.35,,,,,,,,,,,,,,,0.0012331455945968628,0.4895677864551544,,545.8090522736311,test,1,,,,,,,,,,543.3239548876882,543.8390086889267,543.8223702609539,543.8223702609539,544.1726390570402,544.6717289835215,544.8222489655018,545.8281475678086,left,1,0.4462783485651016,0.35,,,,,,,,,,,s030,001,2024-08-16_11h41.11.411,simplestop_skeleton,2022.2.2,59.94607263280578,
None,None,,,,,,,,,0,0,0,0,5,0,20,1,,,,,,,,,545.8094811663032,go,squareblack.png,right,0.35,,,,,,,,,,,,,,,0.0017673596739768982,0.4898766130208969,,548.3112613931298,test,1,,,,,,,,,,545.8281475678086,546.3420046195388,546.3249416127801,546.3249416127801,546.6757162287831,547.1760845258832,547.3268653675914,548.3280180767179,right,1,0.9409502819180489,0.35,,,,,,,,,,,s030,001,2024-08-16_11h41.11.411,simplestop_skeleton,2022.2.2,59.94607263280578,
None,None,,,,,,,,,0,0,0,0,5,1,21,2,,,,,,,,,548.3117046952248,go,squareblack.png,right,0.35,,,,,,,,,,,,,,,0.0012005940079689026,0.4903770312666893,,550.8146848753095,test,1,,,,,,,,,,548.3280180767179,548.826644718647,548.826644718647,548.826644718647,549.1767887994647,549.6789923459291,549.8293764814734,550.8340663015842,right,1,0.5875803902745247,0.35,,,,,,,,,,,s030,001,2024-08-16_11h41.11.411,simplestop_skeleton,2022.2.2,59.94607263280578,
None,None,,,,,,,,,0,0,0,0,5,2,22,1,,,,,,,,,550.8151271119714,stop,circleblack.png,left,0.35,,,,,,,,,,,,,,,0.0017873868346214294,0.48975221812725067,0.8400276899337769,553.3176085054874,test,1,,,,,,,,,,550.8340663015842,551.3472715392709,551.3307964503765,551.3307964503765,551.6810143887997,552.1802323460579,552.3303642198443,553.3369526639581,left,1,0.35486019402742386,0.3,,,,,,,,,,,s030,001,2024-08-16_11h41.11.411,simplestop_skeleton,2022.2.2,59.94607263280578,
None,None,,,,,,,,,0,0,0,0,5,3,23,1,,,,,,,,,553.3180492967367,stop,squareblack.png,right,0.3,,,,,,,,,,,,,,,0.0019008219242095947,0.48931003361940384,0.7898042872548103,555.8200512304902,test,1,,,,,,,,,,553.3369526639581,553.8502237424254,553.8334889039397,553.8334889039397,554.1338171064854,554.6342676505446,554.8330802544951,555.8392915502191,right,1,0.5157749950885773,0.25,,,,,,,,,,,s030,001,2024-08-16_11h41.11.411,simplestop_skeleton,2022.2.2,59.94607263280578,
$currentCorrectResponse,$currentGoStim,,,,,,,,,0,0,0,0,6,0,24,0,,,,,,,,,555.8204741701484,stop,circleblack.png,left,0.25,,,,,,,,,,,,,,,0.0017599835991859436,0.4896090179681778,0.7400529459118843,558.3228662163019,test,1,,,,,,,,,,555.8392915502191,556.3526607304811,556.3360433802009,556.3360433802009,556.5862321779132,557.086793936789,557.337239973247,558.3419128358364,None,0,,0.3,,,,,,,,,,,s030,001,2024-08-16_11h41.11.411,simplestop_skeleton,2022.2.2,59.94607263280578,
None,None,,,,,,,,,0,0,0,0,6,1,25,3,,,,,,,,,558.3233036845922,go,circleblack.png,left,0.3,,,,,,,,,,,,,,,0.0014588609337806702,0.4893809109926224,,560.8241041973233,test,1,,,,,,,,,,558.3419128358364,558.8555120974779,558.8389645144343,558.8389645144343,559.1392229124904,559.6397569552064,559.839840427041,560.8414651975036,left,1,1.1100038886070251,0.3,,,,,,,,,,,s030,001,2024-08-16_11h41.11.411,simplestop_skeleton,2022.2.2,59.94607263280578,
None,None,,,,,,,,,0,0,0,0,6,2,26,2,,,,,,,,,560.824603445828,stop,squareblack.png,right,0.3,,,,,,,,,,,,,,,0.0016454681754112244,0.48957260698080063,0.7898838743567467,563.3283893242478,test,1,,,,,,,,,,560.8414651975036,561.3569237142801,561.3401660844684,561.3401660844684,561.64052349329,562.1422099843621,562.3426932841539,563.3473579213023,right,1,0.4236903637647629,0.25,,,,,,,,,,,s030,001,2024-08-16_11h41.11.411,simplestop_skeleton,2022.2.2,59.94607263280578,
None,None,,,,,,,,,0,0,0,0,6,3,27,1,,,,,,,,,563.3288280591369,go,squareblack.png,right,0.25,,,,,,,,,,,,,,,0.001255139708518982,0.4893169328570366,,565.8311002105474,test,1,,,,,,,,,,563.3473579213023,563.8614436462522,563.8445146158338,563.8445146158338,564.0948403924704,564.5950850844383,564.8457166552544,565.8505301475525,None,0,,0.25,,,,,,,,,,,s030,001,2024-08-16_11h41.11.411,simplestop_skeleton,2022.2.2,59.94607263280578,
None,None,,,,,,,,,0,0,0,0,7,0,28,2,,,,,,,,,565.8315488547087,go,circleblack.png,left,0.25,,,,,,,,,,,,,,,0.0018569901585578918,0.49006031453609467,,568.3338630273938,test,1,,,,,,,,,,565.8505301475525,566.3643127009273,566.3472431004047,566.3472431004047,566.5976099297404,567.0980703383684,567.3472339957952,568.3531207218766,left,1,0.4856192469596863,0.25,,,,,,,,,,,s030,001,2024-08-16_11h41.11.411,simplestop_skeleton,2022.2.2,59.94607263280578,
$currentCorrectResponse,$currentGoStim,,,,,,,,,0,0,0,0,7,1,29,0,,,,,,,,,568.3343008756638,stop,circleblack.png,left,0.25,,,,,,,,,,,,,,,0.001384735107421875,0.48963136225938797,0.7397950366139412,570.8365375250578,test,1,,,,,,,,,,568.3531207218766,568.8668347075582,568.8503324091434,568.8503324091434,569.1002120226622,569.6008251011372,569.8508633896708,570.8555541783571,None,0,,0.3,,,,,,,,,,,s030,001,2024-08-16_11h41.11.411,simplestop_skeleton,2022.2.2,59.94607263280578,
None,None,,,,,,,,,0,0,0,0,7,2,30,1,,,,,,,,,570.8369878306985,go,squareblack.png,right,0.3,,,,,,,,,,,,,,,0.0016448795795440674,0.49016278237104416,,573.3391592949629,test,1,,,,,,,,,,570.8555541783571,571.3693991154432,571.3524930104613,571.3524930104613,571.6529473736882,572.1534703373909,572.3536279574037,573.3576039746404,None,0,,0.3,,,,,,,,,,,s030,001,2024-08-16_11h41.11.411,simplestop_skeleton,2022.2.2,59.94607263280578,
None,None,,,,,,,,,0,0,0,0,7,3,31,3,,,,,,,,,573.3395911157131,stop,squareblack.png,right,0.3,,,,,,,,,,,,,,,0.0011918693780899048,0.4897976219654083,0.7901269048452377,575.8420348390937,test,1,,,,,,,,,,573.3576039746404,573.8720254376531,573.8554977327585,573.8554977327585,574.1556253880262,574.6550547108054,574.8551155924797,575.8611656352878,right,1,0.5006241723895073,0.25,,,,,,,,,,,s030,001,2024-08-16_11h41.11.411,simplestop_skeleton,2022.2.2,59.94607263280578,
$currentCorrectResponse,$currentGoStim,,,,,,,,,0,0,0,0,8,0,32,0,,,,,,,,,575.8425457850099,go,squareblack.png,right,0.25,,,,,,,,,,,,,,,0.001235954463481903,0.4896382987499237,,578.343451038003,test,1,,,,,,,,,,575.8611656352878,576.3750139251351,576.358001254499,576.358001254499,576.6083628535271,577.1091336458921,577.3592334985733,578.3608253970742,right,1,1.0078943222761154,0.25,,,,,,,,,,,s030,001,2024-08-16_11h41.11.411,simplestop_skeleton,2022.2.2,59.94607263280578,
None,None,,,,,,,,,0,0,0,0,8,1,33,2,,,,,,,,,578.3438984677196,go,circleblack.png,left,0.25,,,,,,,,,,,,,,,0.0018451213836669922,0.49000250548124313,,580.8477393463254,test,1,,,,,,,,,,578.3608253970742,578.876852221787,578.8595519065857,578.8595519065857,579.1097974106669,579.612025693059,579.862315222621,580.8667932376266,left,1,0.37331344932317734,0.25,,,,,,,,,,,s030,001,2024-08-16_11h41.11.411,simplestop_skeleton,2022.2.2,59.94607263280578,
$currentCorrectResponse,$currentGoStim,,,,,,,,,0,0,0,0,8,2,34,0,,,,,,,,,580.848166577518,go,circleblack.png,left,0.25,,,,,,,,,,,,,,,0.0014874637126922607,0.49012020230293274,,583.3506130799651,test,1,,,,,,,,,,580.8667932376266,581.3805840089917,581.363804154098,581.363804154098,581.6141533851624,582.114558763802,582.3650730401278,583.3696510642767,None,0,,0.25,,,,,,,,,,,s030,001,2024-08-16_11h41.11.411,simplestop_skeleton,2022.2.2,59.94607263280578,
$currentCorrectResponse,$currentGoStim,,,,,,,,,0,0,0,0,8,3,35,0,,,,,,,,,583.3510402739048,go,squareblack.png,right,0.25,,,,,,,,,,,,,,,0.0015542656183242798,0.4897807836532593,,585.8533058539033,test,1,,,,,,,,,,583.3696510642767,583.8833648487926,583.8665957823396,583.8665957823396,584.1168424189091,584.6172989085317,584.8663767650723,585.8727523609996,right,1,0.48907724767923355,0.25,,,,,,,,,,,s030,001,2024-08-16_11h41.11.411,simplestop_skeleton,2022.2.2,59.94607263280578,
$currentCorrectResponse,$currentGoStim,,,,,,,,,0,0,0,0,9,0,36,0,,,,,,,,,585.853736653924,stop,circleblack.png,left,0.25,,,,,,,,,,,,,,,0.0018105283379554749,0.4900142326951027,0.7400607243180275,588.3560120686889,test,1,,,,,,,,,,585.8727523609996,586.3857672140002,586.3691301941872,586.3691301941872,586.6194773241878,587.1200062260032,587.3692869246006,588.3748882487416,left,1,0.4440564662218094,0.2,,,,,,,,,,,s030,001,2024-08-16_11h41.11.411,simplestop_skeleton,2022.2.2,59.94607263280578,
None,None,,,,,,,,,0,0,0,0,9,1,37,1,,,,,,,,,588.3565442487597,go,circleblack.png,left,0.2,,,,,,,,,,,,,,,0.001329280436038971,0.4896261990070343,,590.8586182296276,test,1,,,,,,,,,,588.3748882487416,588.8886663988233,588.872163489461,588.872163489461,589.072251200676,589.5734027028084,589.8717466816306,590.877976372838,left,1,0.6513250023126602,0.2,,,,,,,,,,,s030,001,2024-08-16_11h41.11.411,simplestop_skeleton,2022.2.2,59.94607263280578,
None,None,,,,,,,,,0,0,0,0,9,2,38,2,,,,,,,,,590.8590560257435,go,squareblack.png,right,0.2,,,,,,,,,,,,,,,0.0016916170716285706,0.49003785848617554,,593.3611127510667,test,1,,,,,,,,,,590.877976372838,591.391453936696,591.3748151287436,591.3748151287436,591.5750986337662,592.0755956470966,592.3759572580457,593.3779124394059,right,1,0.7349889203906059,0.2,,,,,,,,,,,s030,001,2024-08-16_11h41.11.411,simplestop_skeleton,2022.2.2,59.94607263280578,
None,None,,,,,,,,,0,0,0,0,9,3,39,2,,,,,,,,,593.3615450635552,stop,squareblack.png,right,0.2,,,,,,,,,,,,,,,0.0012219324707984924,0.4902423322200775,0.6901430040597916,595.8632775619626,test,1,,,,,,,,,,593.3779124394059,593.8776913806796,593.8776913806796,593.8776913806796,594.0777901932597,594.5786405652761,594.878749795258,595.8809683024883,None,0,,0.25,,,,,,,,,,,s030,001,2024-08-16_11h41.11.411,simplestop_skeleton,2022.2.2,59.94607263280578,
None,None,,,,,,,,,0,0,0,0,10,0,40,1,,,,,,,,,595.8637118935585,go,circleblack.png,left,0.25,,,,,,,,,,,,,,,0.001780785620212555,0.4905673637986183,,598.366342946887,test,1,,,,,,,,,,595.8809683024883,596.3806287124753,596.3806287124753,596.3806287124753,596.6303767561913,597.1316112950444,597.381319232285,598.3832331970334,left,1,0.744558222591877,0.25,,,,,,,,,,,s030,001,2024-08-16_11h41.11.411,simplestop_skeleton,2022.2.2,59.94607263280578,
None,None,,,,,,,,,0,0,0,0,10,1,41,3,,,,,,,,,598.3667964860797,go,circleblack.png,left,0.25,,,,,,,,,,,,,,,0.0012798979878425598,0.49030283838510513,,600.8693262189627,test,1,,,,,,,,,,598.3832331970334,598.8829607367516,598.8829607367516,598.8829607367516,599.1332761049271,599.6338179185987,599.8843934237957,600.8882758393884,left,1,0.7232146561145782,0.25,,,,,,,,,,,s030,001,2024-08-16_11h41.11.411,simplestop_skeleton,2022.2.2,59.94607263280578,
None,None,,,,,,,,,0,0,0,0,10,2,42,3,,,,,,,,,600.8697631284595,go,circleblack.png,left,0.25,,,,,,,,,,,,,,,0.0012474432587623596,0.49048612266778946,,603.3718417137861,test,1,,,,,,,,,,600.8882758393884,601.4027180224657,601.3858081325889,601.3858081325889,601.6359566003084,602.1365360692143,602.3872590214014,603.3899500593543,left,1,0.8687092810869217,0.25,,,,,,,,,,,s030,001,2024-08-16_11h41.11.411,simplestop_skeleton,2022.2.2,59.94607263280578,
None,None,,,,,,,,,0,0,0,0,10,3,43,3,,,,,,,,,603.3722708821297,go,squareblack.png,right,0.25,,,,,,,,,,,,,,,0.0016751736402511597,0.49006953835487366,,605.8751083239913,test,1,,,,,,,,,,603.3899500593543,603.9052454531193,603.8887131884694,603.8887131884694,604.1387123763561,604.6394423469901,604.8902124688029,605.8917805179954,right,1,0.861836165189743,0.25,,,,,,,,,,,s030,001,2024-08-16_11h41.11.411,simplestop_skeleton,2022.2.2,59.94607263280578,
None,None,,,,,,,,,0,0,0,0,11,0,44,1,,,,,,,,,605.8755470365286,go,squareblack.png,right,0.25,,,,,,,,,,,,,,,0.0011997520923614502,0.4901649132370949,,608.3780430331826,test,1,,,,,,,,,,605.8917805179954,606.3914190605283,606.3914190605283,606.3914190605283,606.6418411806226,607.1575144529343,607.391166575253,608.3972498998046,right,1,0.42543792724609375,0.25,,,,,,,,,,,s030,001,2024-08-16_11h41.11.411,simplestop_skeleton,2022.2.2,59.94607263280578,
None,None,,,,,,,,,0,0,0,0,11,1,45,1,,,,,,,,,608.3784765377641,stop,circleblack.png,left,0.25,,,,,,,,,,,,,,,0.0017604231834411621,0.48980773240327835,0.740220881998539,610.881189621985,test,1,,,,,,,,,,608.3972498998046,608.910817719996,608.8946551606059,608.8946551606059,609.1445018202066,609.6452983319759,609.895456597209,610.9002844616771,None,0,,0.3,,,,,,,,,,,s030,001,2024-08-16_11h41.11.411,simplestop_skeleton,2022.2.2,59.94607263280578,
$currentCorrectResponse,$currentGoStim,,,,,,,,,0,0,0,0,11,2,46,0,,,,,,,,,610.8816154524684,go,squareblack.png,right,0.3,,,,,,,,,,,,,,,0.0017527788877487183,0.4895065650343895,,613.3837593793869,test,1,,,,,,,,,,610.9002844616771,611.4137885794044,611.3968655988574,611.3968655988574,611.6972484886646,612.1981755271554,612.3966945335269,613.4024083688855,right,1,0.6183798387646675,0.3,,,,,,,,,,,s030,001,2024-08-16_11h41.11.411,simplestop_skeleton,2022.2.2,59.94607263280578,
None,None,,,,,,,,,0,0,0,0,11,3,47,1,,,,,,,,,613.3842033222318,stop,squareblack.png,right,0.3,,,,,,,,,,,,,,,0.0011740997433662415,0.4895598590373993,0.7898951545357704,615.8865958377719,test,1,,,,,,,,,,613.4024083688855,613.9162280261517,613.8998495340347,613.8998495340347,614.1999708265066,614.7007377073169,614.9007993116975,615.9084173589945,None,0,,0.35,,,,,,,,,,,s030,001,2024-08-16_11h41.11.411,simplestop_skeleton,2022.2.2,59.94607263280578,
,,,,,,,,,,0,0,0,0,,,,,,"[{'fileName': 'squareblack.png', 'correct_response': 'right', 'condition': 'go'}, {'fileName': 'squareblack.png', 'correct_response': 'right', 'condition': 'go'}, {'fileName': 'circleblack.png', 'correct_response': 'left', 'condition': 'go'}, {'fileName': 'circleblack.png', 'correct_response': 'left', 'condition': 'go'}, {'fileName': 'squareblack.png', 'correct_response': 'right', 'condition': 'go'}, {'fileName': 'circleblack.png', 'correct_response': 'left', 'condition': 'stop'}, {'fileName': 'circleblack.png', 'correct_response': 'left', 'condition': 'go'}, {'fileName': 'circleblack.png', 'correct_response': 'left', 'condition': 'go'}, {'fileName': 'squareblack.png', 'correct_response': 'right', 'condition': 'stop'}, {'fileName': 'squareblack.png', 'correct_response': 'right', 'condition': 'stop'}, {'fileName': 'circleblack.png', 'correct_response': 'left', 'condition': 'stop'}, {'fileName': 'squareblack.png', 'correct_response': 'right', 'condition': 'go'}, {'fileName': 'squareblack.png', 'correct_response': 'right', 'condition': 'go'}, {'fileName': 'squareblack.png', 'correct_response': 'right', 'condition': 'go'}, {'fileName': 'squareblack.png', 'correct_response': 'right', 'condition': 'stop'}, {'fileName': 'circleblack.png', 'correct_response': 'left', 'condition': 'go'}, {'fileName': 'circleblack.png', 'correct_response': 'left', 'condition': 'stop'}, {'fileName': 'squareblack.png', 'correct_response': 'right', 'condition': 'go'}, {'fileName': 'circleblack.png', 'correct_response': 'left', 'condition': 'go'}, {'fileName': 'squareblack.png', 'correct_response': 'right', 'condition': 'stop'}, {'fileName': 'circleblack.png', 'correct_response': 'left', 'condition': 'go'}, {'fileName': 'circleblack.png', 'correct_response': 'left', 'condition': 'go'}, {'fileName': 'squareblack.png', 'correct_response': 'right', 'condition': 'go'}, {'fileName': 'circleblack.png', 'correct_response': 'left', 'condition': 'stop'}, {'fileName': 'circleblack.png', 'correct_response': 'left', 'condition': 'go'}, {'fileName': 'circleblack.png', 'correct_response': 'left', 'condition': 'stop'}, {'fileName': 'circleblack.png', 'correct_response': 'left', 'condition': 'go'}, {'fileName': 'squareblack.png', 'correct_response': 'right', 'condition': 'go'}, {'fileName': 'circleblack.png', 'correct_response': 'left', 'condition': 'go'}, {'fileName': 'squareblack.png', 'correct_response': 'right', 'condition': 'go'}, {'fileName': 'squareblack.png', 'correct_response': 'right', 'condition': 'stop'}, {'fileName': 'squareblack.png', 'correct_response': 'right', 'condition': 'stop'}, {'fileName': 'squareblack.png', 'correct_response': 'right', 'condition': 'go'}, {'fileName': 'circleblack.png', 'correct_response': 'left', 'condition': 'go'}, {'fileName': 'circleblack.png', 'correct_response': 'left', 'condition': 'stop'}, {'fileName': 'squareblack.png', 'correct_response': 'right', 'condition': 'go'}, {'fileName': 'squareblack.png', 'correct_response': 'right', 'condition': 'go'}, {'fileName': 'squareblack.png', 'correct_response': 'right', 'condition': 'go'}, {'fileName': 'circleblack.png', 'correct_response': 'left', 'condition': 'go'}, {'fileName': 'squareblack.png', 'correct_response': 'right', 'condition': 'go'}, {'fileName': 'circleblack.png', 'correct_response': 'left', 'condition': 'stop'}, {'fileName': 'circleblack.png', 'correct_response': 'left', 'condition': 'stop'}, {'fileName': 'squareblack.png', 'correct_response': 'right', 'condition': 'stop'}, {'fileName': 'squareblack.png', 'correct_response': 'right', 'condition': 'stop'}, {'fileName': 'circleblack.png', 'correct_response': 'left', 'condition': 'go'}, {'fileName': 'circleblack.png', 'correct_response': 'left', 'condition': 'go'}, {'fileName': 'circleblack.png', 'correct_response': 'left', 'condition': 'go'}, {'fileName': 'squareblack.png', 'correct_response': 'right', 'condition': 'go'}]",,,,,,,,,,,,,,,,,,,,,,,,,,,,,,,,,,,,,,,,,,,,,,,,,,,,,615.9084173589945,615.9084173589945,return,23.47384864091873,,,,,,,s030,001,2024-08-16_11h41.11.411,simplestop_skeleton,2022.2.2,59.94607263280578,
None,None,,,,,,,,,1,0,1,0,0,0,0,3,,,,,,,,,639.4123368114233,go,squareblack.png,right,0.35,,,,,,,,,,,,,,,0.0016203299164772034,0.4887040928006172,,641.9155359938741,test,2,,,,,,,,,,639.432472422719,639.9451325908303,639.9286505803466,639.9286505803466,640.2787902802229,640.7796476557851,640.9294987469912,641.9346180707216,right,1,0.8013689294457436,0.35,,,,,,,,,,,s030,001,2024-08-16_11h41.11.411,simplestop_skeleton,2022.2.2,59.94607263280578,
None,None,,,,,,,,,1,0,1,0,0,1,1,1,,,,,,,,,641.9160849526525,go,squareblack.png,right,0.35,,,,,,,,,,,,,,,0.0013984143733978271,0.48906712234020233,,644.4179909005761,test,2,,,,,,,,,,641.9346180707216,642.4480731338263,642.4313394799829,642.4313394799829,642.7814441397786,643.2807159498334,643.4307703375816,644.4428134560585,right,1,0.4541117697954178,0.35,,,,,,,,,,,s030,001,2024-08-16_11h41.11.411,simplestop_skeleton,2022.2.2,59.94607263280578,
$currentCorrectResponse,$currentGoStim,,,,,,,,,1,0,1,0,0,2,2,0,,,,,,,,,644.4184204041958,go,circleblack.png,left,0.35,,,,,,,,,,,,,,,0.00807902216911316,0.48967646807432175,,646.9205909594893,test,2,,,,,,,,,,644.4428134560585,644.9507623836398,644.9338635057211,644.9338635057211,645.2843932807446,645.8000151067972,645.933565929532,646.9394722357392,left,1,0.5086033567786217,0.35,,,,,,,,,,,s030,001,2024-08-16_11h41.11.411,simplestop_skeleton,2022.2.2,59.94607263280578,
None,None,,,,,,,,,1,0,1,0,0,3,3,1,,,,,,,,,646.9210165143013,go,circleblack.png,left,0.35,,,,,,,,,,,,,,,0.001293182373046875,0.48987824469804764,,649.4235405921936,test,2,,,,,,,,,,646.9394722357392,647.4531263783574,647.4367164894938,647.4367164894938,647.7871891111135,648.2875392735004,648.4364168420434,649.4424121677876,left,1,0.4264179691672325,0.35,,,,,,,,,,,s030,001,2024-08-16_11h41.11.411,simplestop_skeleton,2022.2.2,59.94607263280578,
None,None,,,,,,,,,1,0,1,0,1,0,4,1,,,,,,,,,649.4239674136043,go,squareblack.png,right,0.35,,,,,,,,,,,,,,,0.001640424132347107,0.4899517372250557,,651.9265800788999,test,2,,,,,,,,,,649.4424121677876,649.9563723728061,649.9394922405481,649.9394922405481,650.2900252863765,650.7905578389764,650.9391731694341,651.9456645399332,right,1,0.5796058550477028,0.35,,,,,,,,,,,s030,001,2024-08-16_11h41.11.411,simplestop_skeleton,2022.2.2,59.94607263280578,
None,None,,,,,,,,,1,0,1,0,1,1,5,2,,,,,,,,,651.927004352212,stop,circleblack.png,left,0.35,,,,,,,,,,,,,,,0.0018112435936927795,0.4898645728826523,0.8384537026286125,654.4292278960347,test,2,,,,,,,,,,651.9456645399332,652.4593733251095,652.4426549077034,652.4426549077034,652.7911748662591,653.2917260378599,653.4426852017641,654.4485738649964,left,1,0.47421398013830185,0.3,,,,,,,,,,,s030,001,2024-08-16_11h41.11.411,simplestop_skeleton,2022.2.2,59.94607263280578,
None,None,,,,,,,,,1,0,1,0,1,2,6,2,,,,,,,,,654.4296692833304,go,circleblack.png,left,0.3,,,,,,,,,,,,,,,0.0013911351561546326,0.4890257716178894,,656.9308650270104,test,2,,,,,,,,,,654.4485738649964,654.9616088792682,654.9449899867177,654.9449899867177,655.2450994700193,655.7456270158291,655.9462732151151,656.9480995163321,left,1,0.922365590929985,0.3,,,,,,,,,,,s030,001,2024-08-16_11h41.11.411,simplestop_skeleton,2022.2.2,59.94607263280578,
$currentCorrectResponse,$currentGoStim,,,,,,,,,1,0,1,0,1,3,7,0,,,,,,,,,656.9312928393483,go,circleblack.png,left,0.3,,,,,,,,,,,,,,,0.0012645423412322998,0.4904758632183075,,659.4338763281703,test,2,,,,,,,,,,656.9480995163321,657.4476933702826,657.4476933702826,657.4476933702826,657.7479288950562,658.2485011667013,658.4487402513623,659.4521960318089,left,1,1.1587840765714645,0.3,,,,,,,,,,,s030,001,2024-08-16_11h41.11.411,simplestop_skeleton,2022.2.2,59.94607263280578,
None,None,,,,,,,,,1,0,1,0,2,0,8,3,,,,,,,,,659.4344504103065,stop,squareblack.png,right,0.3,,,,,,,,,,,,,,,0.002005472779273987,0.4886357933282852,0.7889300212264061,661.9373441785574,test,2,,,,,,,,,,659.4521960318089,659.9657672122121,659.949314430356,659.949314430356,660.2494722157717,660.750649407506,660.9514952227473,661.9561454057693,None,0,,0.35,,,,,,,,,,,s030,001,2024-08-16_11h41.11.411,simplestop_skeleton,2022.2.2,59.94607263280578,
None,None,,,,,,,,,1,0,1,0,2,1,9,3,,,,,,,,,661.9377797916532,stop,squareblack.png,right,0.35,,,,,,,,,,,,,,,0.0013017579913139343,0.48967767506837845,0.8399512842297554,664.4403307437897,test,2,,,,,,,,,,661.9561454057693,662.4697836637497,662.4533151909709,662.4533151909709,662.8034531027079,663.303957760334,663.4542859792709,664.4598159715533,None,0,,0.4,,,,,,,,,,,s030,001,2024-08-16_11h41.11.411,simplestop_skeleton,2022.2.2,59.94607263280578,
None,None,,,,,,,,,1,0,1,0,2,2,10,2,,,,,,,,,664.4407688453794,stop,circleblack.png,left,0.4,,,,,,,,,,,,,,,0.001967296004295349,0.489707887172699,0.8899124339222908,666.9429277330637,test,2,,,,,,,,,,664.4598159715533,664.9725717678666,664.9563426747918,664.9563426747918,665.3564018011093,665.8573741987348,665.9571155905724,666.9620569497347,None,0,,0.45,,,,,,,,,,,s030,001,2024-08-16_11h41.11.411,simplestop_skeleton,2022.2.2,59.94607263280578,
None,None,,,,,,,,,1,0,1,0,2,3,11,2,,,,,,,,,666.9433569088578,go,squareblack.png,right,0.45,,,,,,,,,,,,,,,0.0015693306922912598,0.4896998256444931,,669.4453176110983,test,2,,,,,,,,,,666.9620569497347,667.4754099026322,667.4588729590178,667.4588729590178,667.9093133583665,668.409845456481,668.4584353864193,669.462942071259,right,1,0.6252866759896278,0.45,,,,,,,,,,,s030,001,2024-08-16_11h41.11.411,simplestop_skeleton,2022.2.2,59.94607263280578,
None,None,,,,,,,,,1,0,1,0,3,0,12,2,,,,,,,,,669.4457395896316,go,squareblack.png,right,0.45,,,,,,,,,,,,,,,0.0011956840753555298,0.4898664951324463,,671.9482540041208,test,2,,,,,,,,,,669.462942071259,669.9782057255507,669.9616375342011,669.9616375342011,670.4119048863649,670.9124680534005,670.961190007627,671.9674858748913,right,1,0.5678250044584274,0.45,,,,,,,,,,,s030,001,2024-08-16_11h41.11.411,simplestop_skeleton,2022.2.2,59.94607263280578,
None,None,,,,,,,,,1,0,1,0,3,1,13,3,,,,,,,,,671.9486892148852,go,squareblack.png,right,0.45,,,,,,,,,,,,,,,0.0013375356793403625,0.4893684461712837,,674.4510341510177,test,2,,,,,,,,,,671.9674858748913,672.4809083640575,672.4642522037029,672.4642522037029,672.9147046804428,673.4305194988847,673.4640078991652,674.4711023494601,right,1,0.4847615659236908,0.45,,,,,,,,,,,s030,001,2024-08-16_11h41.11.411,simplestop_skeleton,2022.2.2,59.94607263280578,
$currentCorrectResponse,$currentGoStim,,,,,,,,,1,0,1,0,3,2,14,0,,,,,,,,,674.4514672905207,stop,squareblack.png,right,0.45,,,,,,,,,,,,,,,0.0016821175813674927,0.4891552999615669,0.9394884407520294,676.9539062231779,test,2,,,,,,,,,,674.4711023494601,674.9837454631925,674.9670478031039,674.9670478031039,675.4179761484265,675.9334205016494,675.9667309448123,676.9793903455138,right,1,0.45097754150629044,0.4,,,,,,,,,,,s030,001,2024-08-16_11h41.11.411,simplestop_skeleton,2022.2.2,59.94607263280578,
None,None,,,,,,,,,1,0,1,0,3,3,15,2,,,,,,,,,676.9543389827013,go,circleblack.png,left,0.4,,,,,,,,,,,,,,,0.008656993508338928,0.4895183891057968,,679.4564768448472,test,2,,,,,,,,,,676.9793903455138,677.4863740205765,677.4700732603669,677.4700732603669,677.8702627420425,678.3698526769876,678.4695586040616,679.4752572327852,left,1,0.7619152963161469,0.4,,,,,,,,,,,s030,001,2024-08-16_11h41.11.411,simplestop_skeleton,2022.2.2,59.94607263280578,
None,None,,,,,,,,,1,0,1,0,4,0,16,3,,,,,,,,,679.4569201394916,stop,circleblack.png,left,0.4,,,,,,,,,,,,,,,0.0013419538736343384,0.48994044959545135,0.8901087939739227,681.9594836682081,test,2,,,,,,,,,,679.4752572327852,679.9893205985427,679.9724178463221,679.9724178463221,680.3729360848665,680.8735350519419,680.9736177772284,681.9786885008216,None,0,,0.45,,,,,,,,,,,s030,001,2024-08-16_11h41.11.411,simplestop_skeleton,2022.2.2,59.94607263280578,
None,None,,,,,,,,,1,0,1,0,4,1,17,1,,,,,,,,,681.9599360376596,go,squareblack.png,right,0.45,,,,,,,,,,,,,,,0.001721121370792389,0.4896685555577278,,684.4611385539174,test,2,,,,,,,,,,681.9786885008216,682.4918506518006,682.4753275215626,682.4753275215626,682.9258443564177,683.4262480959296,683.4769514873624,684.4792141988873,right,1,0.9751581400632858,0.45,,,,,,,,,,,s030,001,2024-08-16_11h41.11.411,simplestop_skeleton,2022.2.2,59.94607263280578,
None,None,,,,,,,,,1,0,1,0,4,2,18,2,,,,,,,,,684.4617916122079,go,circleblack.png,left,0.45,,,,,,,,,,,,,,,0.0017281323671340942,0.490449421107769,,686.9643204659224,test,2,,,,,,,,,,684.4792141988873,684.9946840554476,684.9779408499599,684.9779408499599,685.4270519688725,685.9283511340618,685.979142896831,686.9813309162855,left,1,0.8560572937130928,0.45,,,,,,,,,,,s030,001,2024-08-16_11h41.11.411,simplestop_skeleton,2022.2.2,59.94607263280578,
$currentCorrectResponse,$currentGoStim,,,,,,,,,1,0,1,0,4,3,19,0,,,,,,,,,686.964747235179,stop,squareblack.png,right,0.45,,,,,,,,,,,,,,,0.001619093120098114,0.49020716547966003,0.9408835247159004,689.4674418270588,test,2,,,,,,,,,,686.9813309162855,687.4807944372296,687.4807944372296,687.4807944372296,687.9312955960631,688.4317430481315,688.4819576591253,689.4869236201048,None,0,,0.5,,,,,,,,,,,s030,001,2024-08-16_11h41.11.411,simplestop_skeleton,2022.2.2,59.94607263280578,
$currentCorrectResponse,$currentGoStim,,,,,,,,,1,0,1,0,5,0,20,0,,,,,,,,,689.4678752794862,go,circleblack.png,left,0.5,,,,,,,,,,,,,,,0.0019618943333625793,0.4898407459259033,,691.9703286960721,test,2,,,,,,,,,,689.4869236201048,690.0005635842681,689.9836747795343,689.9836747795343,690.4842133894563,690.9832176044583,690.9832176044583,691.9891952872276,left,1,0.5783316567540169,0.5,,,,,,,,,,,s030,001,2024-08-16_11h41.11.411,simplestop_skeleton,2022.2.2,59.94607263280578,
None,None,,,,,,,,,1,0,1,0,5,1,21,3,,,,,,,,,691.9707680344582,go,circleblack.png,left,0.5,,,,,,,,,,,,,,,0.001324981451034546,0.48972512036561966,,694.4716817587614,test,2,,,,,,,,,,691.9891952872276,692.5030546560884,692.4866767674685,692.4866767674685,692.9869541078806,693.4877974465489,693.4877974465489,694.489644356072,left,1,0.9349281936883926,0.5,,,,,,,,,,,s030,001,2024-08-16_11h41.11.411,simplestop_skeleton,2022.2.2,59.94607263280578,
None,None,,,,,,,,,1,0,1,0,5,2,22,1,,,,,,,,,694.4721752926707,go,squareblack.png,right,0.5,,,,,,,,,,,,,,,0.0016414076089859009,0.48945339024066925,,696.9757587984204,test,2,,,,,,,,,,694.489644356072,695.0045713707805,694.9877883791924,694.9877883791924,695.4901331961155,695.9900856465101,695.9900856465101,696.9947241917253,right,1,0.9304099977016449,0.5,,,,,,,,,,,s030,001,2024-08-16_11h41.11.411,simplestop_skeleton,2022.2.2,59.94607263280578,
$currentCorrectResponse,$currentGoStim,,,,,,,,,1,0,1,0,5,3,23,0,,,,,,,,,696.9761928021908,stop,circleblack.png,left,0.5,,,,,,,,,,,,,,,0.0017056241631507874,0.48986363410949707,0.9905218183994293,699.4784788787365,test,2,,,,,,,,,,696.9947241917253,697.5085448920727,697.4919853433967,697.4919853433967,697.9926272556186,698.4930134490132,698.4930134490132,699.497257642448,None,0,,0.55,,,,,,,,,,,s030,001,2024-08-16_11h41.11.411,simplestop_skeleton,2022.2.2,59.94607263280578,
None,None,,,,,,,,,1,0,1,0,6,0,24,3,,,,,,,,,699.4788982644677,go,circleblack.png,left,0.55,,,,,,,,,,,,,,,0.0013041198253631592,0.4899773970246315,,701.9826701581478,test,2,,,,,,,,,,699.497257642448,700.0114574432373,699.9946226477623,699.9946226477623,700.5451686754823,701.0464501231909,700.9960291460156,702.0001319497824,left,1,0.9105466231703758,0.55,,,,,,,,,,,s030,001,2024-08-16_11h41.11.411,simplestop_skeleton,2022.2.2,59.94607263280578,
None,None,,,,,,,,,1,0,1,0,6,1,25,3,,,,,,,,,701.9831083193421,stop,circleblack.png,left,0.55,,,,,,,,,,,,,,,0.0020000487565994263,0.48818328976631165,1.0389123037457466,704.4833846092224,test,2,,,,,,,,,,702.0001319497824,702.5139399319887,702.4973415359855,702.4973415359855,703.0479236990213,703.5470575541258,703.4970136657357,704.5021519362926,left,1,0.6176503598690033,0.5,,,,,,,,,,,s030,001,2024-08-16_11h41.11.411,simplestop_skeleton,2022.2.2,59.94607263280578,
$currentCorrectResponse,$currentGoStim,,,,,,,,,1,0,1,0,6,2,26,0,,,,,,,,,704.4838141873479,go,circleblack.png,left,0.5,,,,,,,,,,,,,,,0.0012560561299324036,0.4906011074781418,,706.986188814044,test,2,,,,,,,,,,704.5021519362926,705.0170167684555,705.0002528950572,705.0002528950572,705.500853151083,706.0011781454086,706.0011781454086,707.0089183747768,left,1,0.8016159161925316,0.5,,,,,,,,,,,s030,001,2024-08-16_11h41.11.411,simplestop_skeleton,2022.2.2,59.94607263280578,
None,None,,,,,,,,,1,0,1,0,6,3,27,2,,,,,,,,,706.986628614366,go,squareblack.png,right,0.5,,,,,,,,,,,,,,,0.007573999464511871,0.49103844165802,,709.489671073854,test,2,,,,,,,,,,707.0089183747768,707.5202038213611,707.5034756958485,707.5034756958485,708.0021443814039,708.5035299137235,708.5035299137235,709.509346626699,right,1,0.6037394106388092,0.5,,,,,,,,,,,s030,001,2024-08-16_11h41.11.411,simplestop_skeleton,2022.2.2,59.94607263280578,
$currentCorrectResponse,$currentGoStim,,,,,,,,,1,0,1,0,7,0,28,0,,,,,,,,,709.4900983348489,go,circleblack.png,left,0.5,,,,,,,,,,,,,,,0.0016610994935035706,0.4898166283965111,,711.9911582991481,test,2,,,,,,,,,,709.509346626699,710.022548623383,710.0059422776103,710.0059422776103,710.5063856393099,711.0070745646954,711.0070745646954,712.0080694556236,left,1,1.0687547698616982,0.5,,,,,,,,,,,s030,001,2024-08-16_11h41.11.411,simplestop_skeleton,2022.2.2,59.94607263280578,
None,None,,,,,,,,,1,0,1,0,7,1,29,3,,,,,,,,,711.9915886074305,go,squareblack.png,right,0.5,,,,,,,,,,,,,,,0.0015736371278762817,0.4896923676133156,,714.4954195991158,test,2,,,,,,,,,,712.0080694556236,712.5237124487758,712.5070464015007,712.5070464015007,713.0076397508383,713.509595811367,713.509595811367,714.5141865387559,right,1,1.11679457873106,0.5,,,,,,,,,,,s030,001,2024-08-16_11h41.11.411,simplestop_skeleton,2022.2.2,59.94607263280578,
$currentCorrectResponse,$currentGoStim,,,,,,,,,1,0,1,0,7,2,30,0,,,,,,,,,714.4958414286375,stop,squareblack.png,right,0.5,,,,,,,,,,,,,,,0.0012722238898277283,0.48941126465797424,0.9902134463191032,716.9978663995862,test,2,,,,,,,,,,714.5141865387559,715.0277836918831,715.0112176761031,715.0112176761031,715.5118289887905,716.0275019705296,716.0108064189553,717.0164580494165,right,1,0.5502917468547821,0.45,,,,,,,,,,,s030,001,2024-08-16_11h41.11.411,simplestop_skeleton,2022.2.2,59.94607263280578,
None,None,,,,,,,,,1,0,1,0,7,3,31,3,,,,,,,,,716.9982928410172,stop,squareblack.png,right,0.45,,,,,,,,,,,,,,,0.0011746957898139954,0.4900843873620033,0.9403046816587448,719.5005835369229,test,2,,,,,,,,,,717.0164580494165,717.5305327251554,717.5139142796397,717.5139142796397,717.9644258543849,718.4803280308843,718.5135529264808,719.519381582737,right,1,0.49830903112888336,0.4,,,,,,,,,,,s030,001,2024-08-16_11h41.11.411,simplestop_skeleton,2022.2.2,59.94607263280578,
None,None,,,,,,,,,1,0,1,0,8,0,32,2,,,,,,,,,719.5010098218918,go,squareblack.png,right,0.4,,,,,,,,,,,,,,,0.001190185546875,0.48988475650548935,,722.0035744383931,test,2,,,,,,,,,,719.519381582737,720.0333413928747,720.0168782025576,720.0168782025576,720.4173454865813,720.9328952953219,721.0163780376315,722.0231010839343,right,1,0.5294772461056709,0.4,,,,,,,,,,,s030,001,2024-08-16_11h41.11.411,simplestop_skeleton,2022.2.2,59.94607263280578,
None,None,,,,,,,,,1,0,1,0,8,1,33,3,,,,,,,,,722.0040126815438,go,circleblack.png,left,0.4,,,,,,,,,,,,,,,0.0019643232226371765,0.48960092663764954,,724.5061201155186,test,2,,,,,,,,,,722.0231010839343,722.5361134335399,722.5193799063563,722.5193799063563,722.9196999669075,723.4189346134663,723.5191651582718,724.5250039771199,left,1,0.46303176134824753,0.4,,,,,,,,,,,s030,001,2024-08-16_11h41.11.411,simplestop_skeleton,2022.2.2,59.94607263280578,
None,None,,,,,,,,,1,0,1,0,8,2,34,1,,,,,,,,,724.5065551027656,stop,circleblack.png,left,0.4,,,,,,,,,,,,,,,0.0013083592057228088,0.49002932757139206,0.8904223591089249,727.0090773850679,test,2,,,,,,,,,,724.5250039771199,725.0391925349832,725.0221861824393,725.0221861824393,725.4225393012166,725.9219098761678,726.0219026431441,727.0283289179206,left,1,0.456980936229229,0.35,,,,,,,,,,,s030,001,2024-08-16_11h41.11.411,simplestop_skeleton,2022.2.2,59.94607263280578,
None,None,,,,,,,,,1,0,1,0,8,3,35,1,,,,,,,,,727.0095103606582,go,squareblack.png,right,0.35,,,,,,,,,,,,,,,0.001700468361377716,0.4899330660700798,,729.5111466646194,test,2,,,,,,,,,,727.0283289179206,727.5416842103004,727.5249628797174,727.5249628797174,727.8755097910762,728.3761759623885,728.5260603129864,729.5282416641712,right,1,0.7750647738575935,0.35,,,,,,,,,,,s030,001,2024-08-16_11h41.11.411,simplestop_skeleton,2022.2.2,59.94607263280578,
$currentCorrectResponse,$currentGoStim,,,,,,,,,1,0,1,0,9,0,36,0,,,,,,,,,729.5115835517645,go,squareblack.png,right,0.35,,,,,,,,,,,,,,,0.0011985823512077332,0.4904722198843956,,732.0139705464244,test,2,,,,,,,,,,729.5282416641712,730.0281140729785,730.0281140729785,730.0281140729785,730.3783410191536,730.8791494295001,731.0292787626386,732.0310993343592,right,1,0.838741272687912,0.35,,,,,,,,,,,s030,001,2024-08-16_11h41.11.411,simplestop_skeleton,2022.2.2,59.94607263280578,
None,None,,,,,,,,,1,0,1,0,9,1,37,1,,,,,,,,,732.0144036859274,go,squareblack.png,right,0.35,,,,,,,,,,,,,,,0.0011863335967063904,0.4904056042432785,,734.5173070058227,test,2,,,,,,,,,,732.0310993343592,732.5309896916151,732.5309896916151,732.5309896916151,732.8796466067433,733.3800919428468,733.5303308442235,734.536718800664,right,1,1.2627448216080666,0.35,,,,,,,,,,,s030,001,2024-08-16_11h41.11.411,simplestop_skeleton,2022.2.2,59.94607263280578,
$currentCorrectResponse,$currentGoStim,,,,,,,,,1,0,1,0,9,2,38,0,,,,,,,,,734.5177287012339,go,circleblack.png,left,0.35,,,,,,,,,,,,,,,0.00203058123588562,0.4893535375595093,,737.0193026810884,test,2,,,,,,,,,,734.536718800664,735.0500674173236,735.0336013063788,735.0336013063788,735.3835979923606,735.884270362556,736.0348185226321,737.0368662551045,left,1,0.8313191682100296,0.35,,,,,,,,,,,s030,001,2024-08-16_11h41.11.411,simplestop_skeleton,2022.2.2,59.94607263280578,
None,None,,,,,,,,,1,0,1,0,9,3,39,1,,,,,,,,,737.0197262242436,go,squareblack.png,right,0.35,,,,,,,,,,,,,,,0.0016600042581558228,0.49042388051748276,,739.5224220976233,test,2,,,,,,,,,,737.0368662551045,737.5359700247645,737.5359700247645,737.5359700247645,737.8865904510021,738.3871742412448,738.5371161401272,739.5397374033928,right,1,0.773478552699089,0.35,,,,,,,,,,,s030,001,2024-08-16_11h41.11.411,simplestop_skeleton,2022.2.2,59.94607263280578,
None,None,,,,,,,,,1,0,1,0,10,0,40,1,,,,,,,,,739.5228533446789,stop,circleblack.png,left,0.35,,,,,,,,,,,,,,,0.0018478333950042725,0.49009257555007935,0.840701200067997,742.0257225707173,test,2,,,,,,,,,,739.5397374033928,740.05611448735,740.0388612523675,740.0388612523675,740.3896342590451,740.8900725319982,741.040171995759,742.0442979112267,None,0,,0.4,,,,,,,,,,,s030,001,2024-08-16_11h41.11.411,simplestop_skeleton,2022.2.2,59.94607263280578,
None,None,,,,,,,,,1,0,1,0,10,1,41,2,,,,,,,,,742.0261556059122,stop,circleblack.png,left,0.4,,,,,,,,,,,,,,,0.0013109371066093445,0.48977405577898026,0.8901403918862343,744.528585717082,test,2,,,,,,,,,,742.0442979112267,742.5584247335792,742.5415065959096,742.5415065959096,742.9422699585557,743.4415205270052,743.5412987619638,744.5476543977857,None,0,,0.45,,,,,,,,,,,s030,001,2024-08-16_11h41.11.411,simplestop_skeleton,2022.2.2,59.94607263280578,
$currentCorrectResponse,$currentGoStim,,,,,,,,,1,0,1,0,10,2,42,0,,,,,,,,,744.5290163829923,stop,squareblack.png,right,0.45,,,,,,,,,,,,,,,0.001680232584476471,0.4898289516568184,0.939819760620594,747.0309157222509,test,2,,,,,,,,,,744.5476543977857,745.0611547082663,745.04422301054,745.04422301054,745.4946975335479,745.9953181669116,746.045743227005,747.0504113063216,None,0,,0.5,,,,,,,,,,,s030,001,2024-08-16_11h41.11.411,simplestop_skeleton,2022.2.2,59.94607263280578,
None,None,,,,,,,,,1,0,1,0,10,3,43,2,,,,,,,,,747.0313357412815,stop,squareblack.png,right,0.5,,,,,,,,,,,,,,,0.001326926052570343,0.48919593542814255,0.9895513653755188,749.534009128809,test,2,,,,,,,,,,747.0504113063216,747.5637040287256,747.5472024679184,747.5472024679184,748.0475730448961,748.5467629358172,748.5467629358172,749.5533192455769,right,1,0.5591307654976845,0.45,,,,,,,,,,,s030,001,2024-08-16_11h41.11.411,simplestop_skeleton,2022.2.2,59.94607263280578,
None,None,,,,,,,,,1,0,1,0,11,0,44,2,,,,,,,,,749.5345449000597,go,circleblack.png,left,0.45,,,,,,,,,,,,,,,0.001862846314907074,0.4895475283265114,,752.0352078527212,test,2,,,,,,,,,,749.5533192455769,750.0668243318796,750.049977645278,750.049977645278,750.5002727136016,751.0009289309382,751.0511372536421,752.0519321039319,left,1,1.0806573405861855,0.45,,,,,,,,,,,s030,001,2024-08-16_11h41.11.411,simplestop_skeleton,2022.2.2,59.94607263280578,
None,None,,,,,,,,,1,0,1,0,11,1,45,3,,,,,,,,,752.0356466546655,go,circleblack.png,left,0.45,,,,,,,,,,,,,,,0.0013460814952850342,0.4895628020167351,,754.5397119671106,test,2,,,,,,,,,,752.0519321039319,752.5512043908238,752.5512043908238,752.5512043908238,753.001906760037,753.5032516792417,753.5531967207789,754.5586860328913,left,1,0.9715048894286156,0.45,,,,,,,,,,,s030,001,2024-08-16_11h41.11.411,simplestop_skeleton,2022.2.2,59.94607263280578,
None,None,,,,,,,,,1,0,1,0,11,2,46,1,,,,,,,,,754.5401427000761,go,circleblack.png,left,0.45,,,,,,,,,,,,,,,0.0014137402176856995,0.4892572611570358,,757.0407193824649,test,2,,,,,,,,,,754.5586860328913,755.0721450299025,755.0553934574127,755.0553934574127,755.5060843229294,756.006660297513,756.0569221749902,757.0599660351872,left,1,0.8650696873664856,0.45,,,,,,,,,,,s030,001,2024-08-16_11h41.11.411,simplestop_skeleton,2022.2.2,59.94607263280578,
None,None,,,,,,,,,1,0,1,0,11,3,47,1,,,,,,,,,757.0411651730537,go,squareblack.png,right,0.45,,,,,,,,,,,,,,,0.00450509786605835,0.49110426008701324,,759.5449772551656,test,2,,,,,,,,,,757.0599660351872,757.5747760385275,757.5581804141402,757.5581804141402,758.0071804150939,758.5084723010659,758.5587842315435,759.5605256855488,right,1,1.0555695071816444,0.45,,,,,,,,,,,s030,001,2024-08-16_11h41.11.411,simplestop_skeleton,2022.2.2,59.94607263280578,
,,,,,,,,,,1,0,1,0,,,,,,,,,,,,,,,,,,,,,,,,,,,,,,,,,,,,,,,,,,,,,,,,,,,,,,,,,,,759.5605256855488,759.5605256855488,return,29.40437901765108,"[{'fileName': 'squareblack.png', 'correct_response': 'right', 'condition': 'stop'}, {'fileName': 'circleblack.png', 'correct_response': 'left', 'condition': 'stop'}, {'fileName': 'circleblack.png', 'correct_response': 'left', 'condition': 'go'}, {'fileName': 'squareblack.png', 'correct_response': 'right', 'condition': 'stop'}, {'fileName': 'circleblack.png', 'correct_response': 'left', 'condition': 'stop'}, {'fileName': 'circleblack.png', 'correct_response': 'left', 'condition': 'go'}, {'fileName': 'circleblack.png', 'correct_response': 'left', 'condition': 'go'}, {'fileName': 'squareblack.png', 'correct_response': 'right', 'condition': 'go'}, {'fileName': 'circleblack.png', 'correct_response': 'left', 'condition': 'go'}, {'fileName': 'squareblack.png', 'correct_response': 'right', 'condition': 'go'}, {'fileName': 'squareblack.png', 'correct_response': 'right', 'condition': 'go'}, {'fileName': 'squareblack.png', 'correct_response': 'right', 'condition': 'go'}, {'fileName': 'squareblack.png', 'correct_response': 'right', 'condition': 'go'}, {'fileName': 'squareblack.png', 'correct_response': 'right', 'condition': 'stop'}, {'fileName': 'circleblack.png', 'correct_response': 'left', 'condition': 'go'}, {'fileName': 'squareblack.png', 'correct_response': 'right', 'condition': 'stop'}, {'fileName': 'circleblack.png', 'correct_response': 'left', 'condition': 'go'}, {'fileName': 'circleblack.png', 'correct_response': 'left', 'condition': 'stop'}, {'fileName': 'circleblack.png', 'correct_response': 'left', 'condition': 'go'}, {'fileName': 'circleblack.png', 'correct_response': 'left', 'condition': 'stop'}, {'fileName': 'squareblack.png', 'correct_response': 'right', 'condition': 'go'}, {'fileName': 'circleblack.png', 'correct_response': 'left', 'condition': 'go'}, {'fileName': 'squareblack.png', 'correct_response': 'right', 'condition': 'go'}, {'fileName': 'squareblack.png', 'correct_response': 'right', 'condition': 'go'}, {'fileName': 'circleblack.png', 'correct_response': 'left', 'condition': 'go'}, {'fileName': 'squareblack.png', 'correct_response': 'right', 'condition': 'go'}, {'fileName': 'circleblack.png', 'correct_response': 'left', 'condition': 'stop'}, {'fileName': 'squareblack.png', 'correct_response': 'right', 'condition': 'go'}, {'fileName': 'circleblack.png', 'correct_response': 'left', 'condition': 'stop'}, {'fileName': 'squareblack.png', 'correct_response': 'right', 'condition': 'stop'}, {'fileName': 'squareblack.png', 'correct_response': 'right', 'condition': 'stop'}, {'fileName': 'squareblack.png', 'correct_response': 'right', 'condition': 'go'}, {'fileName': 'circleblack.png', 'correct_response': 'left', 'condition': 'go'}, {'fileName': 'circleblack.png', 'correct_response': 'left', 'condition': 'go'}, {'fileName': 'circleblack.png', 'correct_response': 'left', 'condition': 'go'}, {'fileName': 'squareblack.png', 'correct_response': 'right', 'condition': 'go'}, {'fileName': 'squareblack.png', 'correct_response': 'right', 'condition': 'go'}, {'fileName': 'squareblack.png', 'correct_response': 'right', 'condition': 'go'}, {'fileName': 'circleblack.png', 'correct_response': 'left', 'condition': 'stop'}, {'fileName': 'squareblack.png', 'correct_response': 'right', 'condition': 'go'}, {'fileName': 'squareblack.png', 'correct_response': 'right', 'condition': 'stop'}, {'fileName': 'circleblack.png', 'correct_response': 'left', 'condition': 'go'}, {'fileName': 'squareblack.png', 'correct_response': 'right', 'condition': 'go'}, {'fileName': 'circleblack.png', 'correct_response': 'left', 'condition': 'go'}, {'fileName': 'circleblack.png', 'correct_response': 'left', 'condition': 'go'}, {'fileName': 'circleblack.png', 'correct_response': 'left', 'condition': 'stop'}, {'fileName': 'squareblack.png', 'correct_response': 'right', 'condition': 'stop'}, {'fileName': 'circleblack.png', 'correct_response': 'left', 'condition': 'go'}]",,,,,,s030,001,2024-08-16_11h41.11.411,simplestop_skeleton,2022.2.2,59.94607263280578,
$currentCorrectResponse,$currentGoStim,,,,,,,,,2,0,2,0,0,0,0,0,,,,,,,,,788.9948004111648,stop,squareblack.png,right,0.45,,,,,,,,,,,,,,,0.0017688795924186707,0.4879370853304863,0.9384983479976654,791.4970254153013,test,3,,,,,,,,,,789.0153048932552,789.526701040566,789.5102984383702,789.5102984383702,789.9606381952763,790.4612485319376,790.5111293420196,791.5219222307205,right,1,0.7098206877708435,0.4,,,,,,,,,,,s030,001,2024-08-16_11h41.11.411,simplestop_skeleton,2022.2.2,59.94607263280578,
None,None,,,,,,,,,2,0,2,0,0,1,1,1,,,,,,,,,791.4975544139743,stop,circleblack.png,left,0.4,,,,,,,,,,,,,,,0.008094601333141327,0.48921677470207214,0.8896386474370956,793.998856574297,test,3,,,,,,,,,,791.5219222307205,792.0297854840755,792.0128518044949,792.0128518044949,792.4133730381727,792.9290839657187,793.0123918130994,794.0158829167485,left,1,0.5845258831977844,0.35,,,,,,,,,,,s030,001,2024-08-16_11h41.11.411,simplestop_skeleton,2022.2.2,59.94607263280578,
None,None,,,,,,,,,2,0,2,0,0,2,2,2,,,,,,,,,793.9992814511061,go,circleblack.png,left,0.35,,,,,,,,,,,,,,,0.0012781023979187012,0.4906449168920517,,796.5007775649428,test,3,,,,,,,,,,794.0158829167485,794.5155044421554,794.5155044421554,794.5155044421554,794.8659607842565,795.3665997609496,795.5169284716249,796.5226822718978,left,1,1.0393564626574516,0.35,,,,,,,,,,,s030,001,2024-08-16_11h41.11.411,simplestop_skeleton,2022.2.2,59.94607263280578,
$currentCorrectResponse,$currentGoStim,,,,,,,,,2,0,2,0,0,3,3,0,,,,,,,,,796.5012116283178,stop,squareblack.png,right,0.35,,,,,,,,,,,,,,,0.007300376892089844,0.4898793697357178,0.8404898643493652,799.0052849203348,test,3,,,,,,,,,,796.5226822718978,797.033830858767,797.0169147104025,797.0169147104025,797.3673708438873,797.8685883060098,798.0189040601254,799.0270542576909,None,0,,0.4,,,,,,,,,,,s030,001,2024-08-16_11h41.11.411,simplestop_skeleton,2022.2.2,59.94607263280578,
None,None,,,,,,,,,2,0,2,0,1,0,4,3,,,,,,,,,799.0057104229927,stop,circleblack.png,left,0.4,,,,,,,,,,,,,,,0.002720251679420471,0.48759568482637405,0.8879343420267105,801.5079855769873,test,3,,,,,,,,,,799.0270542576909,799.5377658456564,799.5211043059826,799.5211043059826,799.9218884781003,800.4222048819065,800.5223120972514,801.5268230438232,None,0,,0.45,,,,,,,,,,,s030,001,2024-08-16_11h41.11.411,simplestop_skeleton,2022.2.2,59.94607263280578,
None,None,,,,,,,,,2,0,2,0,1,1,5,2,,,,,,,,,801.508417494595,go,circleblack.png,left,0.45,,,,,,,,,,,,,,,0.0013749822974205017,0.4898405969142914,,804.0105369910598,test,3,,,,,,,,,,801.5268230438232,802.0406219884753,802.0241435095668,802.0241435095668,802.4747979491949,802.9902449548244,803.0235214680433,804.0296888798475,left,1,0.4446287676692009,0.45,,,,,,,,,,,s030,001,2024-08-16_11h41.11.411,simplestop_skeleton,2022.2.2,59.94607263280578,
$currentCorrectResponse,$currentGoStim,,,,,,,,,2,0,2,0,1,2,6,0,,,,,,,,,804.0109715983272,go,circleblack.png,left,0.45,,,,,,,,,,,,,,,0.0013526380062103271,0.4898475483059883,,806.5133532881737,test,3,,,,,,,,,,804.0296888798475,804.5434166491032,804.5266998931766,804.5266998931766,804.9772737920284,805.47779148072,805.5277218297124,806.5373070091009,None,0,,0.45,,,,,,,,,,,s030,001,2024-08-16_11h41.11.411,simplestop_skeleton,2022.2.2,59.94607263280578,
None,None,,,,,,,,,2,0,2,0,1,3,7,3,,,,,,,,,806.5137880593538,go,squareblack.png,right,0.45,,,,,,,,,,,,,,,0.007389083504676819,0.4898235648870468,,809.0164041146636,test,3,,,,,,,,,,806.5373070091009,807.0461322441697,807.0294464156032,807.0294464156032,807.4800030216575,807.9957232251763,808.0290252566338,809.0358541384339,right,1,0.4795874282717705,0.45,,,,,,,,,,,s030,001,2024-08-16_11h41.11.411,simplestop_skeleton,2022.2.2,59.94607263280578,
None,None,,,,,,,,,2,0,2,0,2,0,8,2,,,,,,,,,809.0168449506164,go,circleblack.png,left,0.45,,,,,,,,,,,,,,,0.001894734799861908,0.48944295197725296,,811.5190775692463,test,3,,,,,,,,,,809.0358541384339,809.5490115955472,809.5321681126952,809.5321681126952,809.982719168067,810.4817863181233,810.5318797826767,811.5381648465991,left,1,0.46685703098773956,0.45,,,,,,,,,,,s030,001,2024-08-16_11h41.11.411,simplestop_skeleton,2022.2.2,59.94607263280578,
None,None,,,,,,,,,2,0,2,0,2,1,9,1,,,,,,,,,811.5195006877184,go,squareblack.png,right,0.45,,,,,,,,,,,,,,,0.0016519725322723389,0.48970695585012436,,814.0217236950994,test,3,,,,,,,,,,811.5381648465991,812.0516314208508,812.0350501537323,812.0350501537323,812.4855834320188,813.0012601912022,813.0345600619912,814.0402320846915,right,1,0.5122217312455177,0.45,,,,,,,,,,,s030,001,2024-08-16_11h41.11.411,simplestop_skeleton,2022.2.2,59.94607263280578,
None,None,,,,,,,,,2,0,2,0,2,2,10,1,,,,,,,,,814.0221616923809,go,squareblack.png,right,0.45,,,,,,,,,,,,,,,0.0012420713901519775,0.4900345429778099,,816.5244299545884,test,3,,,,,,,,,,814.0402320846915,814.5542591512203,814.537693656981,814.537693656981,814.9881086274981,815.4872476682067,815.5372480973601,816.5429886505008,right,1,0.5201399251818657,0.45,,,,,,,,,,,s030,001,2024-08-16_11h41.11.411,simplestop_skeleton,2022.2.2,59.94607263280578,
None,None,,,,,,,,,2,0,2,0,2,3,11,2,,,,,,,,,816.5248532369733,go,squareblack.png,right,0.45,,,,,,,,,,,,,,,0.0012350976467132568,0.48968658596277237,,819.0256279706955,test,3,,,,,,,,,,816.5429886505008,817.0574504807591,817.0404952839017,817.0404952839017,817.4909543022513,817.9915839508176,818.0416316464543,819.0425461158156,right,1,1.155520886182785,0.45,,,,,,,,,,,s030,001,2024-08-16_11h41.11.411,simplestop_skeleton,2022.2.2,59.94607263280578,
None,None,,,,,,,,,2,0,2,0,3,0,12,3,,,,,,,,,819.026057370007,go,squareblack.png,right,0.45,,,,,,,,,,,,,,,0.001194581389427185,0.4899143651127815,,821.529698446393,test,3,,,,,,,,,,819.0425461158156,819.5417484045029,819.5417484045029,819.5417484045029,819.9922517463565,820.4939337670803,820.5437177717686,821.5472576245666,right,1,0.6750493347644806,0.45,,,,,,,,,,,s030,001,2024-08-16_11h41.11.411,simplestop_skeleton,2022.2.2,59.94607263280578,
None,None,,,,,,,,,2,0,2,0,3,1,13,3,,,,,,,,,821.5301209390163,stop,squareblack.png,right,0.45,,,,,,,,,,,,,,,0.0011766478419303894,0.48993079364299774,0.9403262510895729,824.032601557672,test,3,,,,,,,,,,821.5472576245666,822.0627603903413,822.045976318419,822.045976318419,822.4966107830405,822.9968836456537,823.0470092594624,824.0571590960026,None,0,,0.5,,,,,,,,,,,s030,001,2024-08-16_11h41.11.411,simplestop_skeleton,2022.2.2,59.94607263280578,
$currentCorrectResponse,$currentGoStim,,,,,,,,,2,0,2,0,3,2,14,0,,,,,,,,,824.0330302342772,go,circleblack.png,left,0.5,,,,,,,,,,,,,,,0.00784388929605484,0.4901132807135582,,826.5381757393479,test,3,,,,,,,,,,824.0571590960026,824.5651832893491,824.5492053553462,824.5492053553462,825.0477229356766,825.5483306273818,825.5483306273818,826.5615380480886,left,1,0.826663002371788,0.5,,,,,,,,,,,s030,001,2024-08-16_11h41.11.411,simplestop_skeleton,2022.2.2,59.94607263280578,
None,None,,,,,,,,,2,0,2,0,3,3,15,3,,,,,,,,,826.538884922862,stop,squareblack.png,right,0.5,,,,,,,,,,,,,,,0.00182284414768219,0.4829149693250656,0.9985155165195465,829.0380911454558,test,3,,,,,,,,,,826.5615380480886,827.0681491568685,827.0514174550772,827.0514174550772,827.5672111585736,828.0687275007367,828.0516614690423,829.0589435249567,right,1,0.5338167548179626,0.45,,,,,,,,,,,s030,001,2024-08-16_11h41.11.411,simplestop_skeleton,2022.2.2,59.94607263280578,
None,None,,,,,,,,,2,0,2,0,4,0,16,1,,,,,,,,,829.0385265648365,go,circleblack.png,left,0.45,,,,,,,,,,,,,,,0.0028287172317504883,0.48862510174512863,,831.5407177358866,test,3,,,,,,,,,,829.0589435249567,829.5694374144077,829.5542730391026,829.5542730391026,830.0033160820603,830.5042266696692,830.5563803389668,831.5587342530489,left,1,0.5961939543485641,0.45,,,,,,,,,,,s030,001,2024-08-16_11h41.11.411,simplestop_skeleton,2022.2.2,59.94607263280578,
None,None,,,,,,,,,2,0,2,0,4,1,17,3,,,,,,,,,831.5411531105638,stop,circleblack.png,left,0.45,,,,,,,,,,,,,,,0.0012475848197937012,0.48996341973543167,0.9405004754662514,834.0423042327166,test,3,,,,,,,,,,831.5587342530489,832.0736351460218,832.057005725801,832.057005725801,832.5073339492083,833.0086561441422,833.0582661554217,834.059474542737,None,0,,0.5,,,,,,,,,,,s030,001,2024-08-16_11h41.11.411,simplestop_skeleton,2022.2.2,59.94607263280578,
$currentCorrectResponse,$currentGoStim,,,,,,,,,2,0,2,0,4,2,18,0,,,,,,,,,834.0427436456084,go,circleblack.png,left,0.5,,,,,,,,,,,,,,,0.001288391649723053,0.4894488826394081,,836.5465352162719,test,3,,,,,,,,,,834.059474542737,834.5749317035079,834.55820928514,834.55820928514,835.0588710829616,835.5607718899846,835.5607718899846,836.5654111206532,left,1,0.6462054923176765,0.5,,,,,,,,,,,s030,001,2024-08-16_11h41.11.411,simplestop_skeleton,2022.2.2,59.94607263280578,
$currentCorrectResponse,$currentGoStim,,,,,,,,,2,0,2,0,4,3,19,0,,,,,,,,,836.5469663143158,stop,circleblack.png,left,0.5,,,,,,,,,,,,,,,0.0014576241374015808,0.4894741177558899,0.9900617077946663,839.0492497310042,test,3,,,,,,,,,,836.5654111206532,837.079271517694,837.062426187098,837.062426187098,837.5628336891532,838.0636469200253,838.0636469200253,839.0682490766048,None,0,,0.55,,,,,,,,,,,s030,001,2024-08-16_11h41.11.411,simplestop_skeleton,2022.2.2,59.94607263280578,
None,None,,,,,,,,,2,0,2,0,5,0,20,3,,,,,,,,,839.0496791675687,go,squareblack.png,right,0.55,,,,,,,,,,,,,,,0.001773044466972351,0.4898277223110199,,841.5518595427275,test,3,,,,,,,,,,839.0682490766048,839.5818888694048,839.5651456639171,839.5651456639171,840.1160105168819,840.6163906753063,840.5668366551399,841.5691564306617,right,1,0.7756907045841217,0.55,,,,,,,,,,,s030,001,2024-08-16_11h41.11.411,simplestop_skeleton,2022.2.2,59.94607263280578,
$currentCorrectResponse,$currentGoStim,,,,,,,,,2,0,2,0,5,1,21,0,,,,,,,,,841.552313156426,go,circleblack.png,left,0.55,,,,,,,,,,,,,,,0.0017166361212730408,0.48991893976926804,,844.0538169592619,test,3,,,,,,,,,,841.5691564306617,842.0847703889012,842.0683092698455,842.0683092698455,842.6189397200942,843.1344135031104,843.067745000124,844.0715002864599,left,1,0.6709111779928207,0.55,,,,,,,,,,,s030,001,2024-08-16_11h41.11.411,simplestop_skeleton,2022.2.2,59.94607263280578,
None,None,,,,,,,,,2,0,2,0,5,2,22,1,,,,,,,,,844.0542540550232,go,squareblack.png,right,0.55,,,,,,,,,,,,,,,0.0016300007700920105,0.4908164069056511,,846.5576522797346,test,3,,,,,,,,,,844.0715002864599,844.5710620954633,844.5710620954633,844.5710620954633,845.1215516775846,845.6372878551483,845.5705806389451,846.576097548008,right,1,0.5052101910114288,0.55,,,,,,,,,,,s030,001,2024-08-16_11h41.11.411,simplestop_skeleton,2022.2.2,59.94607263280578,
None,None,,,,,,,,,2,0,2,0,5,3,23,1,,,,,,,,,846.5580924004316,go,squareblack.png,right,0.55,,,,,,,,,,,,,,,0.0011703744530677795,0.48973695933818817,,849.0601492375135,test,3,,,,,,,,,,846.576097548008,847.0903877019882,847.0735804140568,847.0735804140568,847.6245869025588,848.1399342119694,848.0732506066561,849.0778051763773,right,1,0.7013390064239502,0.55,,,,,,,,,,,s030,001,2024-08-16_11h41.11.411,simplestop_skeleton,2022.2.2,59.94607263280578,
None,None,,,,,,,,,2,0,2,0,6,0,24,2,,,,,,,,,849.0605781525373,go,circleblack.png,left,0.55,,,,,,,,,,,,,,,0.0018629059195518494,0.49001799523830414,,851.5615867823362,test,3,,,,,,,,,,849.0778051763773,849.5930246934295,849.5764357447624,849.5764357447624,850.1269915923476,850.6275498718023,850.5773600190878,851.5928435027599,left,1,1.0891815721988678,0.55,,,,,,,,,,,s030,001,2024-08-16_11h41.11.411,simplestop_skeleton,2022.2.2,59.94607263280578,
None,None,,,,,,,,,2,0,2,0,6,1,25,2,,,,,,,,,851.5620206817985,go,squareblack.png,right,0.55,,,,,,,,,,,,,,,0.001578502357006073,0.4897833913564682,,854.0658748373389,test,3,,,,,,,,,,851.5928435027599,852.0944288522005,852.0777530670166,852.0777530670166,852.6282856017351,853.1299743950367,853.0797678008676,854.085086196661,right,1,1.1747542843222618,0.55,,,,,,,,,,,s030,001,2024-08-16_11h41.11.411,simplestop_skeleton,2022.2.2,59.94607263280578,
$currentCorrectResponse,$currentGoStim,,,,,,,,,2,0,2,0,6,2,26,0,,,,,,,,,854.0662969276309,stop,circleblack.png,left,0.55,,,,,,,,,,,,,,,0.0017859786748886108,0.48975662142038345,1.0394188612699509,856.5685628578067,test,3,,,,,,,,,,854.085086196661,854.598544433713,854.5818649306893,854.5818649306893,855.1314794868231,855.6315559744835,855.581452332437,856.5875300914049,None,0,,0.6,,,,,,,,,,,s030,001,2024-08-16_11h41.11.411,simplestop_skeleton,2022.2.2,59.94607263280578,
None,None,,,,,,,,,2,0,2,0,6,3,27,3,,,,,,,,,856.5690096691251,go,squareblack.png,right,0.6,,,,,,,,,,,,,,,0.0016683340072631836,0.48974868655204773,,859.0712585300207,test,3,,,,,,,,,,856.5875300914049,857.101425550878,857.0844642445445,857.0844642445445,857.68559910357,858.1850538924336,858.0842435061932,859.0906008854508,right,1,0.8894471973180771,0.6,,,,,,,,,,,s030,001,2024-08-16_11h41.11.411,simplestop_skeleton,2022.2.2,59.94607263280578,
None,None,,,,,,,,,2,0,2,0,7,0,28,2,,,,,,,,,859.0716972351074,stop,circleblack.png,left,0.6,,,,,,,,,,,,,,,0.0017520710825920105,0.489879310131073,1.090491808950901,861.5743496641517,test,3,,,,,,,,,,859.0906008854508,859.6038922592998,859.5873111262918,859.5873111262918,860.188133507967,860.7044063434005,860.5888844355941,861.5918739438057,left,1,0.7771591320633888,0.55,,,,,,,,,,,s030,001,2024-08-16_11h41.11.411,simplestop_skeleton,2022.2.2,59.94607263280578,
None,None,,,,,,,,,2,0,2,0,7,1,29,1,,,,,,,,,861.574789352715,stop,squareblack.png,right,0.55,,,,,,,,,,,,,,,0.0017698705196380615,0.4894551709294319,1.0401612520217896,864.0764585360885,test,3,,,,,,,,,,861.5918739438057,862.1068742200732,862.0903099924326,862.0903099924326,862.6412037312984,863.1565266028047,863.0898606926203,864.095278955996,right,1,0.5304948538541794,0.5,,,,,,,,,,,s030,001,2024-08-16_11h41.11.411,simplestop_skeleton,2022.2.2,59.94607263280578,
None,None,,,,,,,,,2,0,2,0,7,2,30,1,,,,,,,,,864.0768871977925,stop,squareblack.png,right,0.5,,,,,,,,,,,,,,,0.001242212951183319,0.49023764580488205,0.9905080199241638,866.5794192254543,test,3,,,,,,,,,,864.095278955996,864.6096001565456,864.5930494070053,864.5930494070053,865.0932686924934,865.5939042195678,865.5939042195678,866.598179154098,None,0,,0.55,,,,,,,,,,,s030,001,2024-08-16_11h41.11.411,simplestop_skeleton,2022.2.2,59.94607263280578,
$currentCorrectResponse,$currentGoStim,,,,,,,,,2,0,2,0,7,3,31,0,,,,,,,,,866.5798566266894,go,squareblack.png,right,0.55,,,,,,,,,,,,,,,0.0013028234243392944,0.48987653851509094,,869.0809665173292,test,3,,,,,,,,,,866.598179154098,867.112564958632,867.0954196825624,867.0954196825624,867.6462836563587,868.1470397561789,868.097827449441,869.1006063967943,None,0,,0.55,,,,,,,,,,,s030,001,2024-08-16_11h41.11.411,simplestop_skeleton,2022.2.2,59.94607263280578,
None,None,,,,,,,,,2,0,2,0,8,0,32,1,,,,,,,,,869.0814092084765,go,circleblack.png,left,0.55,,,,,,,,,,,,,,,0.004926867783069611,0.489755317568779,,871.5849144980311,test,3,,,,,,,,,,869.1006063967943,869.613649815321,869.596961863339,869.596961863339,870.1475901603699,870.6488834172487,870.599208816886,871.6032088324428,left,1,0.4578721821308136,0.55,,,,,,,,,,,s030,001,2024-08-16_11h41.11.411,simplestop_skeleton,2022.2.2,59.94607263280578,
$currentCorrectResponse,$currentGoStim,,,,,,,,,2,0,2,0,8,1,33,0,,,,,,,,,871.5853436440229,go,circleblack.png,left,0.55,,,,,,,,,,,,,,,0.0012415125966072083,0.4901006892323494,,874.0879772976041,test,3,,,,,,,,,,871.6032088324428,872.1180040314794,872.1010785698891,872.1010785698891,872.6502743139863,873.1519232839346,873.1014422923326,874.1069996356964,left,1,0.4587293565273285,0.55,,,,,,,,,,,s030,001,2024-08-16_11h41.11.411,simplestop_skeleton,2022.2.2,59.94607263280578,
None,None,,,,,,,,,2,0,2,0,8,2,34,3,,,,,,,,,874.0884326547384,go,circleblack.png,left,0.55,,,,,,,,,,,,,,,0.0013490542769432068,0.48942534625530243,,876.5890958756208,test,3,,,,,,,,,,874.1069996356964,874.6206055954099,874.6036426499486,874.6036426499486,875.1543194428086,875.6551019251347,875.6051372364163,876.6108096018434,left,1,1.0203156843781471,0.55,,,,,,,,,,,s030,001,2024-08-16_11h41.11.411,simplestop_skeleton,2022.2.2,59.94607263280578,
$currentCorrectResponse,$currentGoStim,,,,,,,,,2,0,2,0,8,3,35,0,,,,,,,,,876.5895930379629,go,squareblack.png,right,0.55,,,,,,,,,,,,,,,0.007069878280162811,0.4901195466518402,,879.0934749543667,test,3,,,,,,,,,,876.6108096018434,877.1220328435302,877.1053055897355,877.1053055897355,877.6557655408978,878.157481238246,878.1072203889489,879.1124572753906,right,1,0.562129557132721,0.55,,,,,,,,,,,s030,001,2024-08-16_11h41.11.411,simplestop_skeleton,2022.2.2,59.94607263280578,
None,None,,,,,,,,,2,0,2,0,9,0,36,3,,,,,,,,,879.0939192250371,go,squareblack.png,right,0.55,,,,,,,,,,,,,,,0.0013406500220298767,0.48959653079509735,,881.5949061065912,test,3,,,,,,,,,,879.1124572753906,879.626199580729,879.6093735843897,879.6093735843897,880.1603884473443,880.6606366187334,880.6105608046055,881.6116170734167,right,1,1.0172067061066628,0.55,,,,,,,,,,,s030,001,2024-08-16_11h41.11.411,simplestop_skeleton,2022.2.2,59.94607263280578,
None,None,,,,,,,,,2,0,2,0,9,1,37,2,,,,,,,,,881.5953536108136,go,squareblack.png,right,0.55,,,,,,,,,,,,,,,0.0011437386274337769,0.48979082703590393,,884.0992714613676,test,3,,,,,,,,,,881.6116170734167,882.1110268980265,882.1110268980265,882.1110268980265,882.6614436432719,883.1629279628396,883.1130297258496,884.1240984648466,right,1,0.8660940006375313,0.55,,,,,,,,,,,s030,001,2024-08-16_11h41.11.411,simplestop_skeleton,2022.2.2,59.94607263280578,
None,None,,,,,,,,,2,0,2,0,9,2,38,3,,,,,,,,,884.099719800055,stop,circleblack.png,left,0.55,,,,,,,,,,,,,,,0.008047692477703094,0.4897385388612747,1.039915755391121,886.6017259135842,test,3,,,,,,,,,,884.1240984648466,884.6316726878285,884.6153043061495,884.6153043061495,885.1655412465334,885.6646718010306,885.6146742030978,886.6214424297214,None,0,,0.6,,,,,,,,,,,s030,001,2024-08-16_11h41.11.411,simplestop_skeleton,2022.2.2,59.94607263280578,
None,None,,,,,,,,,2,0,2,0,9,3,39,1,,,,,,,,,886.6021492481232,go,squareblack.png,right,0.6,,,,,,,,,,,,,,,0.0016670078039169312,0.4894835725426674,,889.1040309891105,test,3,,,,,,,,,,886.6214424297214,887.1343483552337,887.1177752092481,887.1177752092481,887.7214414700866,888.2341187298298,888.117340311408,889.1202700138092,right,1,1.2152145951986313,0.6,,,,,,,,,,,s030,001,2024-08-16_11h41.11.411,simplestop_skeleton,2022.2.2,59.94607263280578,
$currentCorrectResponse,$currentGoStim,,,,,,,,,2,0,2,0,10,0,40,0,,,,,,,,,889.1044555455446,stop,squareblack.png,right,0.6,,,,,,,,,,,,,,,0.001192919909954071,0.4904833734035492,1.0891363695263863,891.6071364581585,test,3,,,,,,,,,,889.1202700138092,889.6213477998972,889.6213477998972,889.6213477998972,890.2197337895632,890.7204827144742,890.6367844864726,891.6315497383475,right,1,0.6561027020215988,0.55,,,,,,,,,,,s030,001,2024-08-16_11h41.11.411,simplestop_skeleton,2022.2.2,59.94607263280578,
None,None,,,,,,,,,2,0,2,0,10,1,41,2,,,,,,,,,891.6075576767325,go,circleblack.png,left,0.55,,,,,,,,,,,,,,,0.00792066752910614,0.48979707062244415,,894.1098782941699,test,3,,,,,,,,,,891.6315497383475,892.1400527060032,892.1235268637538,892.1235268637538,892.6737899929285,893.1730591356754,893.1234959810972,894.1290610060096,left,1,0.7940136566758156,0.55,,,,,,,,,,,s030,001,2024-08-16_11h41.11.411,simplestop_skeleton,2022.2.2,59.94607263280578,
None,None,,,,,,,,,2,0,2,0,10,2,42,2,,,,,,,,,894.1103063374758,go,squareblack.png,right,0.55,,,,,,,,,,,,,,,0.0016566365957260132,0.4883463680744171,,896.612543694675,test,3,,,,,,,,,,894.1290610060096,894.6412075385451,894.62451056391,894.62451056391,895.1751690506935,895.6771663948894,895.6271269097924,896.6318935528398,right,1,0.9416596442461014,0.55,,,,,,,,,,,s030,001,2024-08-16_11h41.11.411,simplestop_skeleton,2022.2.2,59.94607263280578,
None,None,,,,,,,,,2,0,2,0,10,3,43,1,,,,,,,,,896.6129925400019,go,circleblack.png,left,0.55,,,,,,,,,,,,,,,0.001860298216342926,0.4883928894996643,,899.1154065206647,test,3,,,,,,,,,,896.6318935528398,897.1442310065031,897.1272721737623,897.1272721737623,897.6780253127217,898.1793067827821,898.1290689706802,899.1344436556101,left,1,1.1867099404335022,0.55,,,,,,,,,,,s030,001,2024-08-16_11h41.11.411,simplestop_skeleton,2022.2.2,59.94607263280578,
None,None,,,,,,,,,2,0,2,0,11,0,44,2,,,,,,,,,899.1158399656415,go,circleblack.png,left,0.55,,,,,,,,,,,,,,,0.0013659894466400146,0.48979347199201584,,901.6166916787624,test,3,,,,,,,,,,899.1344436556101,899.648117005825,899.6313852891326,899.6313852891326,900.1822485402226,900.6826648339629,900.6324981153011,901.6345951408148,left,1,1.4524281173944473,0.55,,,,,,,,,,,s030,001,2024-08-16_11h41.11.411,simplestop_skeleton,2022.2.2,59.94607263280578,
None,None,,,,,,,,,2,0,2,0,11,1,45,3,,,,,,,,,901.6171360462904,stop,circleblack.png,left,0.55,,,,,,,,,,,,,,,0.0012404024600982666,0.48890186846256256,1.0394468754529953,904.121136598289,test,3,,,,,,,,,,901.6345951408148,902.1495945900679,902.132791057229,902.132791057229,902.6834877878428,903.1840272843838,903.1340105608106,904.1406373083591,None,0,,0.6,,,,,,,,,,,s030,001,2024-08-16_11h41.11.411,simplestop_skeleton,2022.2.2,59.94607263280578,
None,None,,,,,,,,,2,0,2,0,11,2,46,1,,,,,,,,,904.1215677633882,stop,squareblack.png,right,0.6,,,,,,,,,,,,,,,0.0017691776156425476,0.48970526456832886,1.0886583849787712,906.623686350882,test,3,,,,,,,,,,904.1406373083591,904.653741016984,904.6373057514429,904.6373057514429,905.2362645938993,905.7376672029495,905.6367983669043,906.6435602456331,None,0,,0.65,,,,,,,,,,,s030,001,2024-08-16_11h41.11.411,simplestop_skeleton,2022.2.2,59.94607263280578,
None,None,,,,,,,,,2,0,2,0,11,3,47,2,,,,,,,,,906.6241328641772,go,circleblack.png,left,0.65,,,,,,,,,,,,,,,0.0025511905550956726,0.489062637090683,,909.1250697225332,test,3,,,,,,,,,,906.6435602456331,907.1564751341939,907.1396203190088,907.1396203190088,907.7902926802635,908.2912150099874,908.1412598118186,909.1448041051626,left,1,0.9728416055440903,0.65,,,,,,,,,,,s030,001,2024-08-16_11h41.11.411,simplestop_skeleton,2022.2.2,59.94607263280578,
