corrGoResp,shape,practiceBlocks.thisRepN,practiceBlocks.thisTrialN,practiceBlocks.thisN,practiceBlocks.thisIndex,practiceTrials.thisRepN,practiceTrials.thisTrialN,practiceTrials.thisN,practiceTrials.thisIndex,stopBlocks.thisRepN,stopBlocks.thisTrialN,stopBlocks.thisN,stopBlocks.thisIndex,testTrials.thisRepN,testTrials.thisTrialN,testTrials.thisN,testTrials.thisIndex,stopPracTrialList,Test Block: 1,welcome.started,start_exp.started,start_exp.keys,start_exp.rt,instrStopText.started,start_prac.started,StartTrialTimeStamp,trialType,goStim,correctResponse,ssd,fixation.started,rules.started,goStim.started,goResp.started,fixation.stopped,stopSignal.started,stopSignal.stopped,goStim.stopped,goResp.stopped,rules.stopped,goResp.keys,goResp.corr,goResp.rt,text.started,rules_2.started,text.stopped,rules_2.stopped,fixationOnset,goStimOnset,stopSignalOnset,EndTrialTimeStamp,Phase,Block,text_5.started,key_resp_3.started,key_resp_3.keys,key_resp_3.rt,key_resp.started,testText.started,test_fixation.started,goStim_test.started,goResp_test.started,test_fixation.stopped,stopSignal_test.started,stopSignal_test.stopped,goStim_test.stopped,goResp_test.stopped,goResp_test.keys,goResp_test.corr,goResp_test.rt,EndingSSD,text_6.started,key_resp_4.started,key_resp_4.keys,key_resp_4.rt,Test Block: 2,Test Block: 3,ending_text.started,end_resp.started,end_resp.keys,end_resp.rt,participant,session,date,expName,psychopyVersion,frameRate,
,,,,,,,,,,,,,,,,,,"[{'fileName': 'squareblack.png', 'correct_response': 'right', 'condition': 'stop'}, {'fileName': 'circleblack.png', 'correct_response': 'left', 'condition': 'go'}, {'fileName': 'circleblack.png', 'correct_response': 'left', 'condition': 'stop'}, {'fileName': 'squareblack.png', 'correct_response': 'right', 'condition': 'go'}, {'fileName': 'circleblack.png', 'correct_response': 'left', 'condition': 'go'}, {'fileName': 'circleblack.png', 'correct_response': 'left', 'condition': 'go'}, {'fileName': 'squareblack.png', 'correct_response': 'right', 'condition': 'stop'}, {'fileName': 'squareblack.png', 'correct_response': 'right', 'condition': 'go'}, {'fileName': 'squareblack.png', 'correct_response': 'right', 'condition': 'go'}, {'fileName': 'circleblack.png', 'correct_response': 'left', 'condition': 'stop'}, {'fileName': 'squareblack.png', 'correct_response': 'right', 'condition': 'go'}, {'fileName': 'circleblack.png', 'correct_response': 'left', 'condition': 'go'}, {'fileName': 'squareblack.png', 'correct_response': 'right', 'condition': 'stop'}, {'fileName': 'circleblack.png', 'correct_response': 'left', 'condition': 'stop'}, {'fileName': 'squareblack.png', 'correct_response': 'right', 'condition': 'go'}, {'fileName': 'squareblack.png', 'correct_response': 'right', 'condition': 'go'}, {'fileName': 'squareblack.png', 'correct_response': 'right', 'condition': 'go'}, {'fileName': 'squareblack.png', 'correct_response': 'right', 'condition': 'go'}, {'fileName': 'circleblack.png', 'correct_response': 'left', 'condition': 'go'}, {'fileName': 'circleblack.png', 'correct_response': 'left', 'condition': 'go'}, {'fileName': 'squareblack.png', 'correct_response': 'right', 'condition': 'stop'}, {'fileName': 'circleblack.png', 'correct_response': 'left', 'condition': 'go'}, {'fileName': 'circleblack.png', 'correct_response': 'left', 'condition': 'go'}, {'fileName': 'circleblack.png', 'correct_response': 'left', 'condition': 'stop'}]","[{'fileName': 'squareblack.png', 'correct_response': 'right', 'condition': 'stop'}, {'fileName': 'circleblack.png', 'correct_response': 'left', 'condition': 'go'}, {'fileName': 'squareblack.png', 'correct_response': 'right', 'condition': 'go'}, {'fileName': 'squareblack.png', 'correct_response': 'right', 'condition': 'go'}, {'fileName': 'circleblack.png', 'correct_response': 'left', 'condition': 'go'}, {'fileName': 'circleblack.png', 'correct_response': 'left', 'condition': 'stop'}, {'fileName': 'squareblack.png', 'correct_response': 'right', 'condition': 'go'}, {'fileName': 'circleblack.png', 'correct_response': 'left', 'condition': 'stop'}, {'fileName': 'circleblack.png', 'correct_response': 'left', 'condition': 'go'}, {'fileName': 'squareblack.png', 'correct_response': 'right', 'condition': 'go'}, {'fileName': 'circleblack.png', 'correct_response': 'left', 'condition': 'go'}, {'fileName': 'squareblack.png', 'correct_response': 'right', 'condition': 'stop'}, {'fileName': 'squareblack.png', 'correct_response': 'right', 'condition': 'stop'}, {'fileName': 'squareblack.png', 'correct_response': 'right', 'condition': 'go'}, {'fileName': 'circleblack.png', 'correct_response': 'left', 'condition': 'stop'}, {'fileName': 'squareblack.png', 'correct_response': 'right', 'condition': 'go'}, {'fileName': 'circleblack.png', 'correct_response': 'left', 'condition': 'go'}, {'fileName': 'squareblack.png', 'correct_response': 'right', 'condition': 'stop'}, {'fileName': 'squareblack.png', 'correct_response': 'right', 'condition': 'go'}, {'fileName': 'squareblack.png', 'correct_response': 'right', 'condition': 'go'}, {'fileName': 'circleblack.png', 'correct_response': 'left', 'condition': 'go'}, {'fileName': 'circleblack.png', 'correct_response': 'left', 'condition': 'stop'}, {'fileName': 'circleblack.png', 'correct_response': 'left', 'condition': 'go'}, {'fileName': 'circleblack.png', 'correct_response': 'left', 'condition': 'go'}, {'fileName': 'circleblack.png', 'correct_response': 'left', 'condition': 'go'}, {'fileName': 'circleblack.png', 'correct_response': 'left', 'condition': 'go'}, {'fileName': 'circleblack.png', 'correct_response': 'left', 'condition': 'stop'}, {'fileName': 'circleblack.png', 'correct_response': 'left', 'condition': 'stop'}, {'fileName': 'squareblack.png', 'correct_response': 'right', 'condition': 'stop'}, {'fileName': 'circleblack.png', 'correct_response': 'left', 'condition': 'go'}, {'fileName': 'circleblack.png', 'correct_response': 'left', 'condition': 'go'}, {'fileName': 'squareblack.png', 'correct_response': 'right', 'condition': 'stop'}, {'fileName': 'squareblack.png', 'correct_response': 'right', 'condition': 'go'}, {'fileName': 'squareblack.png', 'correct_response': 'right', 'condition': 'go'}, {'fileName': 'squareblack.png', 'correct_response': 'right', 'condition': 'go'}, {'fileName': 'squareblack.png', 'correct_response': 'right', 'condition': 'go'}, {'fileName': 'circleblack.png', 'correct_response': 'left', 'condition': 'go'}, {'fileName': 'squareblack.png', 'correct_response': 'right', 'condition': 'go'}, {'fileName': 'circleblack.png', 'correct_response': 'left', 'condition': 'go'}, {'fileName': 'circleblack.png', 'correct_response': 'left', 'condition': 'stop'}, {'fileName': 'circleblack.png', 'correct_response': 'left', 'condition': 'go'}, {'fileName': 'squareblack.png', 'correct_response': 'right', 'condition': 'go'}, {'fileName': 'squareblack.png', 'correct_response': 'right', 'condition': 'stop'}, {'fileName': 'squareblack.png', 'correct_response': 'right', 'condition': 'go'}, {'fileName': 'squareblack.png', 'correct_response': 'right', 'condition': 'go'}, {'fileName': 'squareblack.png', 'correct_response': 'right', 'condition': 'stop'}, {'fileName': 'circleblack.png', 'correct_response': 'left', 'condition': 'stop'}, {'fileName': 'circleblack.png', 'correct_response': 'left', 'condition': 'go'}]",3033.4339286088943,3033.4339286088943,return,2.512971308082342,,,,,,,,,,,,,,,,,,,,,,,,,,,,,,,,,,,,,,,,,,,,,,,,,,,,,,,,,,,s017,001,2024-07-22_17h45.01.681,simplestop_skeleton,2022.2.2,59.885107615096786,
None,None,0,0,0,0,0,0,0,3,,,,,,,,,,,,,,,3035.9886193461716,3035.9886193461716,3124.8102576322854,stop,squareblack.png,right,0.35,3124.8311273530126,3124.8311273530126,3125.323799714446,3125.323799714446,3125.3406259305775,3125.674011025578,3126.174722671509,3126.3250091932714,3127.3256361931562,3127.343657653779,right,1,0.7819625325500965,3127.343657653779,3127.343657653779,3127.84835633263,3127.84835633263,0.002897597849369049,0.4870505817234516,0.8373967967927456,3127.8271989002824,practice,1,,,,,,,,,,,,,,,,,,,,,,,,,,,,,s017,001,2024-07-22_17h45.01.681,simplestop_skeleton,2022.2.2,59.885107615096786,
None,None,0,0,0,0,0,1,1,3,,,,,,,,,,,,,,,,,3127.8277490250766,go,circleblack.png,left,0.3,3127.84835633263,3127.84835633263,3128.343482352793,3128.343482352793,3128.3601114936173,3128.643804870546,3129.142989654094,3129.343314629048,3130.345849376172,3130.362313132733,left,1,0.40459832549095154,3130.362313132733,3130.362313132733,3130.8672089464962,3130.8672089464962,0.0034320615231990814,0.4896731488406658,0.7900723740458488,3130.8472646549344,practice,1,,,,,,,,,,,,,,,,,,,,,,,,,,,,,s017,001,2024-07-22_17h45.01.681,simplestop_skeleton,2022.2.2,59.885107615096786,
None,None,0,0,0,0,0,2,2,3,,,,,,,,,,,,,,,,,3130.8476883023977,stop,circleblack.png,left,0.3,3130.8672089464962,3130.8672089464962,3131.363426502794,3131.363426502794,3131.380076047033,3131.6636808402836,3132.163034334779,3132.3632563613355,3133.3660200946033,3133.3824451714754,left,1,0.3452916145324707,3133.3824451714754,3133.3824451714754,3133.8873644545674,3133.8873644545674,0.001364968717098236,0.48992516845464706,0.789955623447895,3133.8673847056925,practice,1,,,,,,,,,,,,,,,,,,,,,,,,,,,,,s017,001,2024-07-22_17h45.01.681,simplestop_skeleton,2022.2.2,59.885107615096786,
$currentCorrectResponse,$currentGoStim,0,0,0,0,0,3,3,0,,,,,,,,,,,,,,,,,3133.8678053468466,go,squareblack.png,right,0.25,3133.8873644545674,3133.8873644545674,3134.3835908919573,3134.3835908919573,3134.400241471827,3134.6340270228684,3135.133241262287,3135.3831649273634,3136.385733690113,3136.4027194455266,right,1,0.4513561986386776,3136.4027194455266,3136.4027194455266,3136.9071522168815,3136.9071522168815,0.0017429180443286896,0.4902273900806904,0.7404014803469181,3136.887171551585,practice,1,,,,,,,,,,,,,,,,,,,,,,,,,,,,,s017,001,2024-07-22_17h45.01.681,simplestop_skeleton,2022.2.2,59.885107615096786,
None,None,0,0,0,0,1,0,4,2,,,,,,,,,,,,,,,,,3136.8876086212695,go,circleblack.png,left,0.25,3136.9071522168815,3136.9071522168815,3137.403575897217,3137.403575897217,3137.4201606959105,3137.653775062412,3138.1542896814644,3138.403134930879,3139.4052997268736,3139.421834498644,left,1,0.48386702686548233,3139.421834498644,3139.421834498644,,,0.0018323585391044617,0.49000687897205353,0.7402539402246475,3139.906881503761,practice,1,,,,,,,,,,,,,,,,,,,,,,,,,,,,,s017,001,2024-07-22_17h45.01.681,simplestop_skeleton,2022.2.2,59.885107615096786,
None,None,0,0,0,0,1,1,5,2,,,,,,,,,,,,,,,,,3139.9073008969426,go,circleblack.png,left,0.25,3139.92675338313,3139.92675338313,3140.4236180335283,3140.4236180335283,3140.4400446787477,3140.6740974597633,3141.1898240223527,3141.4231626838446,3142.4259304068983,3142.4259304068983,right,0,0.04459157586097717,3142.4259304068983,3142.4259304068983,,,0.0012989155948162079,0.49041371047496796,0.7407356575131416,3142.910683054477,practice,1,,,,,,,,,,,,,,,,,,,,,,,,,,,,,s017,001,2024-07-22_17h45.01.681,simplestop_skeleton,2022.2.2,59.885107615096786,
$currentCorrectResponse,$currentGoStim,0,0,0,0,1,2,6,0,,,,,,,,,,,,,,,,,3142.9111041799188,stop,squareblack.png,right,0.25,3142.9304771907628,3142.9304771907628,3143.426858533174,3143.426858533174,3143.4436738044024,3143.6773774921894,3144.1781987808645,3144.4265309795737,3145.4284542240202,3145.4454154372215,right,1,0.5247616730630398,3145.4454154372215,3145.4454154372215,,,0.0017375163733959198,0.4900188781321049,0.7400600761175156,3145.9304675906897,practice,1,,,,,,,,,,,,,,,,,,,,,,,,,,,,,s017,001,2024-07-22_17h45.01.681,simplestop_skeleton,2022.2.2,59.885107615096786,
None,None,0,0,0,0,1,3,7,3,,,,,,,,,,,,,,,,,3145.9308934137225,go,squareblack.png,right,0.2,3145.95001873374,3145.95001873374,3146.4468823485076,3146.4468823485076,3146.4635930135846,3146.6470312587917,3147.1479648202658,3147.448833204806,3148.448606673628,3148.4650974571705,right,1,0.586069330573082,3148.4650974571705,3148.4650974571705,,,0.0012580975890159607,0.48992856591939926,0.690413948148489,3148.9506395086646,practice,1,,,,,,,,,,,,,,,,,,,,,,,,,,,,,s017,001,2024-07-22_17h45.01.681,simplestop_skeleton,2022.2.2,59.885107615096786,
None,None,0,0,0,0,2,0,8,1,,,,,,,,,,,,,,,,,3148.951091900468,go,squareblack.png,right,0.2,3148.9704495742917,3148.9704495742917,3149.4671400263906,3149.4671400263906,3149.483653843403,3149.6670774519444,3150.1662217266858,3150.4665296040475,3151.469076965004,3151.4858880378306,right,1,0.36057259514927864,3151.4858880378306,3151.4858880378306,3151.9965492226183,3151.9965492226183,0.0012747906148433685,0.4900400899350643,0.6902185715734959,3151.970702253282,practice,1,,,,,,,,,,,,,,,,,,,,,,,,,,,,,s017,001,2024-07-22_17h45.01.681,simplestop_skeleton,2022.2.2,59.885107615096786,
None,None,0,0,0,0,2,1,9,1,,,,,,,,,,,,,,,,,3151.971118323505,stop,circleblack.png,left,0.2,3151.9965492226183,3151.9965492226183,3152.487028811127,3152.487028811127,3152.503512889147,3152.6869857497513,3153.1876355707645,3153.4881621599197,3154.4892090260983,3154.5059353895485,None,0,,3154.5059353895485,3154.5059353895485,,,0.008412003517150879,0.49010002613067627,0.6902612410485744,3154.9908131361008,practice,1,,,,,,,,,,,,,,,,,,,,,,,,,,,,,s017,001,2024-07-22_17h45.01.681,simplestop_skeleton,2022.2.2,59.885107615096786,
None,None,0,0,0,0,2,2,10,2,,,,,,,,,,,,,,,,,3154.9912456311285,go,squareblack.png,right,0.25,3155.010713852942,3155.010713852942,3155.506753690541,3155.506753690541,3155.5236513614655,3155.757243808359,3156.257670748979,3156.5065256506205,3157.508399501443,3157.5256319865584,right,1,0.4558868557214737,3157.5256319865584,3157.5256319865584,,,0.001672361046075821,0.4897027350962162,0.7401483505964279,3158.0102165974677,practice,1,,,,,,,,,,,,,,,,,,,,,,,,,,,,,s017,001,2024-07-22_17h45.01.681,simplestop_skeleton,2022.2.2,59.885107615096786,
None,None,0,0,0,0,2,3,11,1,,,,,,,,,,,,,,,,,3158.010645970702,go,circleblack.png,left,0.25,3158.030538454652,3158.030538454652,3158.5267198495567,3158.5267198495567,3158.5434832945466,3158.777146104723,3159.2779290154576,3159.5264396481216,3160.5283664800227,3160.545428238809,left,1,0.5304644592106342,3160.545428238809,3160.545428238809,,,0.0018885768949985504,0.4901576600968838,0.7403516359627247,3161.030277054757,practice,1,,,,,,,,,,,,,,,,,,,,,,,,,,,,,s017,001,2024-07-22_17h45.01.681,simplestop_skeleton,2022.2.2,59.885107615096786,
None,None,0,0,0,0,3,0,12,1,,,,,,,,,,,,,,,,,3161.030718706548,stop,squareblack.png,right,0.25,3161.0501464754343,3161.0501464754343,3161.546735379845,3161.546735379845,3161.5633183307946,3161.7970893345773,3162.2964817620814,3162.546508152038,3163.5484121888876,3163.565224375576,right,1,0.4724993519484997,3163.565224375576,3163.565224375576,,,0.0017922259867191315,0.4901433177292347,0.7405820153653622,3164.0504712723196,practice,1,,,,,,,,,,,,,,,,,,,,,,,,,,,,,s017,001,2024-07-22_17h45.01.681,simplestop_skeleton,2022.2.2,59.885107615096786,
$currentCorrectResponse,$currentGoStim,0,0,0,0,3,1,13,0,,,,,,,,,,,,,,,,,3164.050909385085,stop,circleblack.png,left,0.2,3164.0705465748906,3164.0705465748906,3164.566917974502,3164.566917974502,3164.5837288871408,3164.767078846693,3165.2675510309637,3165.5679357759655,3166.5693196617067,3166.585690267384,None,0,,3166.585690267384,3166.585690267384,3167.0904033966362,3167.0904033966362,0.0018217042088508606,0.4902082085609436,0.6902131214737892,3167.0705740600824,practice,1,,,,,,,,,,,,,,,,,,,,,,,,,,,,,s017,001,2024-07-22_17h45.01.681,simplestop_skeleton,2022.2.2,59.885107615096786,
None,None,0,0,0,0,3,2,14,3,,,,,,,,,,,,,,,,,3167.070991065353,go,squareblack.png,right,0.25,3167.0904033966362,3167.0904033966362,3167.58677906543,3167.58677906543,3167.60346570611,3167.8368625715375,3168.336350135505,3168.5864216946065,3169.5884107090533,3169.6054911203682,right,1,0.4510927237570286,3169.6054911203682,3169.6054911203682,,,0.00171612948179245,0.4898550473153591,0.7401291094720364,3170.090384338051,practice,1,,,,,,,,,,,,,,,,,,,,,,,,,,,,,s017,001,2024-07-22_17h45.01.681,simplestop_skeleton,2022.2.2,59.885107615096786,
$currentCorrectResponse,$currentGoStim,0,0,0,0,3,3,15,0,,,,,,,,,,,,,,,,,3170.0908331610262,go,squareblack.png,right,0.25,3170.1098297797143,3170.1098297797143,3170.606666382402,3170.606666382402,3170.623346876353,3170.856994241476,3171.357494443655,3171.6078817136586,3172.6074955277145,3172.6244958229363,right,1,0.7019252292811871,3172.6244958229363,3172.6244958229363,,,0.0011823400855064392,0.4902335964143276,0.7405290007591248,3173.1102015674114,practice,1,,,,,,,,,,,,,,,,,,,,,,,,,,,,,s017,001,2024-07-22_17h45.01.681,simplestop_skeleton,2022.2.2,59.885107615096786,
$currentCorrectResponse,$currentGoStim,0,0,0,0,4,0,16,0,,,,,,,,,,,,,,,,,3173.110629312694,go,squareblack.png,right,0.25,3173.1304874382913,3173.1304874382913,3173.6269142739475,3173.6269142739475,3173.6432811394334,3173.876912664622,3174.3762356489897,3174.626424279064,3175.6290239691734,3175.6457578241825,right,1,0.41670724004507065,3175.6457578241825,3175.6457578241825,3176.149955995381,3176.149955995381,0.0013055279850959778,0.4897475428879261,0.7399168573319912,3176.1303944922984,practice,1,,,,,,,,,,,,,,,,,,,,,,,,,,,,,s017,001,2024-07-22_17h45.01.681,simplestop_skeleton,2022.2.2,59.885107615096786,
None,None,0,0,0,0,4,1,17,2,,,,,,,,,,,,,,,,,3176.1308093108237,go,squareblack.png,right,0.25,3176.149955995381,3176.149955995381,3176.646759532392,3176.646759532392,3176.663661170751,3176.8972210101783,3177.3967268653214,3177.6464502587914,3178.648150715977,3178.665247477591,right,1,0.47057291120290756,3178.665247477591,3178.665247477591,,,0.001208283007144928,0.49008971080183983,0.7402016706764698,3179.1503148563206,practice,1,,,,,,,,,,,,,,,,,,,,,,,,,,,,,s017,001,2024-07-22_17h45.01.681,simplestop_skeleton,2022.2.2,59.885107615096786,
None,None,0,0,0,0,4,2,18,1,,,,,,,,,,,,,,,,,3179.1507313214242,go,circleblack.png,left,0.25,3179.176215890795,3179.176215890795,3179.6668467894197,3179.6668467894197,3179.6835412569344,3179.9170471914113,3180.4175900630653,3180.6665484309196,3181.668564416468,3181.685157004744,left,1,0.47325532883405685,3181.685157004744,3181.685157004744,,,0.008457839488983154,0.490252498537302,0.7404003515839577,3182.1704015247524,practice,1,,,,,,,,,,,,,,,,,,,,,,,,,,,,,s017,001,2024-07-22_17h45.01.681,simplestop_skeleton,2022.2.2,59.885107615096786,
None,None,0,0,0,0,4,3,19,2,,,,,,,,,,,,,,,,,3182.170820657164,go,circleblack.png,left,0.25,3182.1901863105595,3182.1901863105595,3182.6870913542807,3182.6870913542807,3182.7038177885115,3182.9373002909124,3183.43629841879,3183.686517741531,3184.6884703226388,3184.7051618024707,left,1,0.4347955770790577,3184.7051618024707,3184.7051618024707,,,0.0012635402381420135,0.4899079315364361,0.7400920055806637,3185.190802782774,practice,1,,,,,,,,,,,,,,,,,,,,,,,,,,,,,s017,001,2024-07-22_17h45.01.681,simplestop_skeleton,2022.2.2,59.885107615096786,
None,None,0,0,0,0,5,0,20,2,,,,,,,,,,,,,,,,,3185.191408481449,stop,squareblack.png,right,0.25,3185.2129060328007,3185.2129060328007,3185.707392964512,3185.707392964512,3185.723625089973,3185.957165647298,3186.4562696181238,3186.706507679075,3187.709279548377,3187.7257779836655,right,1,0.39867469668388367,3187.7257779836655,3187.7257779836655,3188.2317825108767,3188.2317825108767,0.0024615488946437836,0.4885967783629894,0.7388393357396126,3188.2106543406844,practice,1,,,,,,,,,,,,,,,,,,,,,,,,,,,,,s017,001,2024-07-22_17h45.01.681,simplestop_skeleton,2022.2.2,59.885107615096786,
None,None,0,0,0,0,5,1,21,1,,,,,,,,,,,,,,,,,3188.2110725454986,go,circleblack.png,left,0.2,3188.2317825108767,3188.2317825108767,3188.7268000766635,3188.7268000766635,3188.7434809431434,3188.9269410297275,3189.4279293082654,3189.726545702666,3190.7281596958637,3190.74532109499,left,1,0.48451580107212067,3190.74532109499,3190.74532109499,,,0.0018316283822059631,0.4892389215528965,0.6894373781979084,3191.230268534273,practice,1,,,,,,,,,,,,,,,,,,,,,,,,,,,,,s017,001,2024-07-22_17h45.01.681,simplestop_skeleton,2022.2.2,59.885107615096786,
None,None,0,0,0,0,5,2,22,3,,,,,,,,,,,,,,,,,3191.2307061105967,go,circleblack.png,left,0.2,3191.2498061023653,3191.2498061023653,3191.746702104807,3191.746702104807,3191.7633941695094,3191.947098929435,3192.4475559964776,3192.7479769848287,3193.747588377446,3193.7642038054764,right,0,0.7437534555792809,3193.7642038054764,3193.7642038054764,,,0.0012606754899024963,0.4902604706585407,0.6903501637279987,3194.2503884509206,practice,1,,,,,,,,,,,,,,,,,,,,,,,,,,,,,s017,001,2024-07-22_17h45.01.681,simplestop_skeleton,2022.2.2,59.885107615096786,
$currentCorrectResponse,$currentGoStim,0,0,0,0,5,3,23,0,,,,,,,,,,,,,,,,,3194.2508118078113,stop,circleblack.png,left,0.2,3194.2700300849974,3194.2700300849974,3194.766697254032,3194.766697254032,3194.7832941412926,3194.967077355832,3195.4675080925226,3195.768021326512,3196.769142422825,3196.7856422029436,None,0,,3196.7856422029436,3196.7856422029436,3197.288378737867,3197.288378737867,0.0013172328472137451,0.49026675522327423,0.6904648952186108,3197.2704229056835,practice,1,,,,,,,,,,,,,,,,,,,,,,,,,,,,,s017,001,2024-07-22_17h45.01.681,simplestop_skeleton,2022.2.2,59.885107615096786,
,,0,0,0,0,,,,,,,,,,,,,"[{'fileName': 'circleblack.png', 'correct_response': 'left', 'condition': 'stop'}, {'fileName': 'squareblack.png', 'correct_response': 'right', 'condition': 'stop'}, {'fileName': 'circleblack.png', 'correct_response': 'left', 'condition': 'go'}, {'fileName': 'squareblack.png', 'correct_response': 'right', 'condition': 'stop'}, {'fileName': 'squareblack.png', 'correct_response': 'right', 'condition': 'go'}, {'fileName': 'squareblack.png', 'correct_response': 'right', 'condition': 'go'}, {'fileName': 'circleblack.png', 'correct_response': 'left', 'condition': 'go'}, {'fileName': 'circleblack.png', 'correct_response': 'left', 'condition': 'go'}, {'fileName': 'squareblack.png', 'correct_response': 'right', 'condition': 'go'}, {'fileName': 'circleblack.png', 'correct_response': 'left', 'condition': 'stop'}, {'fileName': 'circleblack.png', 'correct_response': 'left', 'condition': 'go'}, {'fileName': 'squareblack.png', 'correct_response': 'right', 'condition': 'go'}, {'fileName': 'squareblack.png', 'correct_response': 'right', 'condition': 'stop'}, {'fileName': 'squareblack.png', 'correct_response': 'right', 'condition': 'stop'}, {'fileName': 'squareblack.png', 'correct_response': 'right', 'condition': 'go'}, {'fileName': 'circleblack.png', 'correct_response': 'left', 'condition': 'stop'}, {'fileName': 'circleblack.png', 'correct_response': 'left', 'condition': 'go'}, {'fileName': 'circleblack.png', 'correct_response': 'left', 'condition': 'go'}, {'fileName': 'circleblack.png', 'correct_response': 'left', 'condition': 'go'}, {'fileName': 'circleblack.png', 'correct_response': 'left', 'condition': 'go'}, {'fileName': 'squareblack.png', 'correct_response': 'right', 'condition': 'go'}, {'fileName': 'squareblack.png', 'correct_response': 'right', 'condition': 'go'}, {'fileName': 'squareblack.png', 'correct_response': 'right', 'condition': 'go'}, {'fileName': 'circleblack.png', 'correct_response': 'left', 'condition': 'stop'}]",,,,,,,,,,,,,,,,,,,,,,,,,,,,,,,,,,,,3197.288378737867,3197.288378737867,return,1.8954261541366577,,,,,,,,,,,,,,,,,,,,,,,,,s017,001,2024-07-22_17h45.01.681,simplestop_skeleton,2022.2.2,59.885107615096786,
None,None,,,,,,,,,0,0,0,0,0,0,0,1,,,,,,,,,3203.1437171399593,stop,squareblack.png,right,0.25,,,,,,,,,,,,,,,,,,0.002803068608045578,0.49026333168148994,0.7401727810502052,3205.6472095660865,test,1,,,,,3199.204908080399,3199.204908080399,3203.163829740137,3203.659988299012,3203.659988299012,3203.676643382758,3203.9104640334845,3204.410879738629,3204.661296684295,3205.666654314846,right,1,0.44702382758259773,0.2,,,,,,,,,,,s017,001,2024-07-22_17h45.01.681,simplestop_skeleton,2022.2.2,59.885107615096786,
None,None,,,,,,,,,0,0,0,0,0,1,1,2,,,,,,,,,3205.6477576307952,go,circleblack.png,left,0.2,,,,,,,,,,,,,,,,,,0.0026180893182754517,0.4890238307416439,,3208.1487290263176,test,1,,,,,,,3205.666654314846,3206.1626942828298,3206.1626942828298,3206.17922623083,3206.3628900535405,3206.8639222942293,3207.1623542569578,3208.166698191315,left,1,0.4349098429083824,0.2,,,,,,,,,,,s017,001,2024-07-22_17h45.01.681,simplestop_skeleton,2022.2.2,59.885107615096786,
None,None,,,,,,,,,0,0,0,0,0,2,2,3,,,,,,,,,3208.149177789688,go,squareblack.png,right,0.2,,,,,,,,,,,,,,,,,,0.0016505680978298187,0.48950545489788055,,3210.652098238468,test,1,,,,,,,3208.166698191315,3208.665230445564,3208.665230445564,3208.6821205578744,3208.866042457521,3209.381419084966,3209.665021147579,3210.6710475720465,right,1,0.540031585842371,0.2,,,,,,,,,,,s017,001,2024-07-22_17h45.01.681,simplestop_skeleton,2022.2.2,59.885107615096786,
None,None,,,,,,,,,0,0,0,0,0,3,3,1,,,,,,,,,3210.6525368206203,go,squareblack.png,right,0.2,,,,,,,,,,,,,,,,,,0.0011840835213661194,0.4895691014826298,,3213.154518187046,test,1,,,,,,,3210.6710475720465,3211.168118864298,3211.168118864298,3211.184836767614,3211.3683046661317,3211.8692511841655,3212.1678405441344,3213.1720981150866,right,1,0.4383063204586506,0.2,,,,,,,,,,,s017,001,2024-07-22_17h45.01.681,simplestop_skeleton,2022.2.2,59.885107615096786,
None,None,,,,,,,,,0,0,0,0,1,0,4,1,,,,,,,,,3213.155050456524,go,circleblack.png,left,0.2,,,,,,,,,,,,,,,,,,0.0017673224210739136,0.4899730533361435,,3215.656862396747,test,1,,,,,,,3213.1720981150866,3213.670984953642,3213.670984953642,3213.6875097490847,3213.871060065925,3214.371623314917,3214.670564055443,3215.674006037414,left,1,0.4096558876335621,0.2,,,,,,,,,,,s017,001,2024-07-22_17h45.01.681,simplestop_skeleton,2022.2.2,59.885107615096786,
None,None,,,,,,,,,0,0,0,0,1,1,5,2,,,,,,,,,3215.6573086753488,stop,circleblack.png,left,0.2,,,,,,,,,,,,,,,,,,0.001268915832042694,0.49029168486595154,0.6905980110168457,3218.160537868738,test,1,,,,,,,3215.674006037414,3216.173581905663,3216.173581905663,3216.173581905663,3216.373931463808,3216.8745009340346,3217.174736890942,3218.179695509374,None,0,,0.25,,,,,,,,,,,s017,001,2024-07-22_17h45.01.681,simplestop_skeleton,2022.2.2,59.885107615096786,
None,None,,,,,,,,,0,0,0,0,1,2,6,1,,,,,,,,,3218.1609812676907,go,squareblack.png,right,0.25,,,,,,,,,,,,,,,,,,0.001702766865491867,0.4900018572807312,,3220.662563480437,test,1,,,,,,,3218.179695509374,3218.676655765623,3218.676655765623,3218.693064119667,3218.9269024431705,3219.427880860865,3219.676227465272,3220.6802157461643,right,1,0.5070379748940468,0.25,,,,,,,,,,,s017,001,2024-07-22_17h45.01.681,simplestop_skeleton,2022.2.2,59.885107615096786,
$currentCorrectResponse,$currentGoStim,,,,,,,,,0,0,0,0,1,3,7,0,,,,,,,,,3220.6630020923913,stop,circleblack.png,left,0.25,,,,,,,,,,,,,,,,,,0.0018700510263442993,0.4902108386158943,0.7404476255178452,3223.165971376002,test,1,,,,,,,3220.6802157461643,3221.179218634963,3221.179218634963,3221.179218634963,3221.429501693696,3221.9303000345826,3222.1804551929235,3223.184957202524,None,0,,0.3,,,,,,,,,,,s017,001,2024-07-22_17h45.01.681,simplestop_skeleton,2022.2.2,59.885107615096786,
$currentCorrectResponse,$currentGoStim,,,,,,,,,0,0,0,0,2,0,8,0,,,,,,,,,3223.1664106845856,go,circleblack.png,left,0.3,,,,,,,,,,,,,,,,,,0.0013805292546749115,0.4899185076355934,,3225.6686028651893,test,1,,,,,,,3223.184957202524,3223.6821470856667,3223.6821470856667,3223.698781505227,3223.9823493026197,3224.4830419570208,3224.6817086935043,3225.6860560812056,left,1,0.4684060662984848,0.3,,,,,,,,,,,s017,001,2024-07-22_17h45.01.681,simplestop_skeleton,2022.2.2,59.885107615096786,
$currentCorrectResponse,$currentGoStim,,,,,,,,,0,0,0,0,2,1,9,0,,,,,,,,,3225.6690454408526,go,squareblack.png,right,0.3,,,,,,,,,,,,,,,,,,0.0017358288168907166,0.48969075456261635,,3228.1710438355803,test,1,,,,,,,3225.6860560812056,3226.184923697263,3226.184923697263,3226.201502457261,3226.4851823188365,3226.98422518,3227.1844201125205,3228.188213042915,right,1,0.41765544563531876,0.3,,,,,,,,,,,s017,001,2024-07-22_17h45.01.681,simplestop_skeleton,2022.2.2,59.885107615096786,
None,None,,,,,,,,,0,0,0,0,2,2,10,2,,,,,,,,,3228.1714908517897,go,circleblack.png,left,0.3,,,,,,,,,,,,,,,,,,0.0018396750092506409,0.4901569001376629,,3230.673380088061,test,1,,,,,,,3228.188213042915,3228.687747180462,3228.687747180462,3228.687747180462,3228.987845674157,3229.488538593054,3229.6870796084404,3230.6912597306073,left,1,0.5348930768668652,0.3,,,,,,,,,,,s017,001,2024-07-22_17h45.01.681,simplestop_skeleton,2022.2.2,59.885107615096786,
None,None,,,,,,,,,0,0,0,0,2,3,11,2,,,,,,,,,3230.673825379461,stop,squareblack.png,right,0.3,,,,,,,,,,,,,,,,,,0.0017042458057403564,0.4903600923717022,0.7908818125724792,3233.1769646778703,test,1,,,,,,,3230.6912597306073,3231.190248798579,3231.190248798579,3231.206883776933,3231.4905902184546,3231.9911806061864,3232.191895816475,3233.1957477368414,None,0,,0.35,,,,,,,,,,,s017,001,2024-07-22_17h45.01.681,simplestop_skeleton,2022.2.2,59.885107615096786,
None,None,,,,,,,,,0,0,0,0,3,0,12,1,,,,,,,,,3233.1774130128324,stop,squareblack.png,right,0.35,,,,,,,,,,,,,,,,,,0.0012306906282901764,0.4898187704384327,0.8402746021747589,3235.6796367540956,test,1,,,,,,,3233.1957477368414,3233.6931312046945,3233.6931312046945,3233.709776405245,3234.043538097292,3234.544118452817,3234.6941572651267,3235.698646467179,None,0,,0.4,,,,,,,,,,,s017,001,2024-07-22_17h45.01.681,simplestop_skeleton,2022.2.2,59.885107615096786,
None,None,,,,,,,,,0,0,0,0,3,1,13,3,,,,,,,,,3235.680141951889,go,squareblack.png,right,0.4,,,,,,,,,,,,,,,,,,0.0012116730213165283,0.48983603343367577,,3238.182032570243,test,1,,,,,,,3235.698646467179,3236.1957538351417,3236.1957538351417,3236.2126469388604,3236.596461556852,3237.09538051486,3237.1955027766526,3238.2061362564564,right,1,0.5602478571236134,0.4,,,,,,,,,,,s017,001,2024-07-22_17h45.01.681,simplestop_skeleton,2022.2.2,59.885107615096786,
None,None,,,,,,,,,0,0,0,0,3,2,14,3,,,,,,,,,3238.1824809387326,stop,circleblack.png,left,0.4,,,,,,,,,,,,,,,,,,0.008790630847215652,0.4902832470834255,0.8890838511288166,3240.6853265464306,test,1,,,,,,,3238.2061362564564,3238.6990435682237,3238.6990435682237,3238.7156266495585,3239.0975496396422,3239.5982015393674,3239.698218204081,3240.7044696956873,left,1,0.5263126716017723,0.35,,,,,,,,,,,s017,001,2024-07-22_17h45.01.681,simplestop_skeleton,2022.2.2,59.885107615096786,
$currentCorrectResponse,$currentGoStim,,,,,,,,,0,0,0,0,3,3,15,0,,,,,,,,,3240.685760412365,go,squareblack.png,right,0.35,,,,,,,,,,,,,,,,,,0.0015550591051578522,0.4895198829472065,,3243.18726368621,test,1,,,,,,,3240.7044696956873,3241.2013293243945,3241.2013293243945,3241.218011908233,3241.5516788996756,3242.0521269589663,3242.2028962410986,3243.2057437449694,right,1,0.6841617934405804,0.35,,,,,,,,,,,s017,001,2024-07-22_17h45.01.681,simplestop_skeleton,2022.2.2,59.885107615096786,
None,None,,,,,,,,,0,0,0,0,4,0,16,2,,,,,,,,,3243.187705516815,go,circleblack.png,left,0.35,,,,,,,,,,,,,,,,,,0.0018839538097381592,0.4899935871362686,,3245.6901362277567,test,1,,,,,,,3243.2057437449694,3243.7040273807943,3243.7040273807943,3243.720673855394,3244.054350618273,3244.5535176098347,3244.7037443853915,3245.707876332104,left,1,0.4946776442229748,0.35,,,,,,,,,,,s017,001,2024-07-22_17h45.01.681,simplestop_skeleton,2022.2.2,59.885107615096786,
None,None,,,,,,,,,0,0,0,0,4,1,17,1,,,,,,,,,3245.690584246069,stop,squareblack.png,right,0.35,,,,,,,,,,,,,,,,,,0.0017302446067333221,0.4895894303917885,0.8399817608296871,3248.193802718073,test,1,,,,,,,3245.707876332104,3246.2069074325264,3246.2069074325264,3246.2235358916223,3246.5571904443204,3247.0579736195505,3247.2080026194453,3248.21279418841,None,0,,0.4,,,,,,,,,,,s017,001,2024-07-22_17h45.01.681,simplestop_skeleton,2022.2.2,59.885107615096786,
None,None,,,,,,,,,0,0,0,0,4,2,18,3,,,,,,,,,3248.194241158664,go,squareblack.png,right,0.4,,,,,,,,,,,,,,,,,,0.001394074410200119,0.48956361040472984,,3250.69585070014,test,1,,,,,,,3248.21279418841,3248.709526117891,3248.709526117891,3248.7262767367065,3249.110103841871,3249.609183650464,3249.7093251012266,3250.712916083634,right,1,0.5569649934768677,0.4,,,,,,,,,,,s017,001,2024-07-22_17h45.01.681,simplestop_skeleton,2022.2.2,59.885107615096786,
$currentCorrectResponse,$currentGoStim,,,,,,,,,0,0,0,0,4,3,19,0,,,,,,,,,3250.6963083669543,go,squareblack.png,right,0.4,,,,,,,,,,,,,,,,,,0.0011971332132816315,0.4905391000211239,,3253.197863597423,test,1,,,,,,,3250.712916083634,3251.2122608572245,3251.2122608572245,3251.2122608572245,3251.6127622015774,3252.113351818174,3252.2120015248656,3253.2154272720218,right,1,0.568077627569437,0.4,,,,,,,,,,,s017,001,2024-07-22_17h45.01.681,simplestop_skeleton,2022.2.2,59.885107615096786,
$currentCorrectResponse,$currentGoStim,,,,,,,,,0,0,0,0,5,0,20,0,,,,,,,,,3253.19829633832,go,circleblack.png,left,0.4,,,,,,,,,,,,,,,,,,0.0018787756562232971,0.4908793158829212,,3255.7006746977568,test,1,,,,,,,3253.2154272720218,3253.715065792203,3253.715065792203,3253.715065792203,3254.115487203002,3254.616462677717,3254.7150479778647,3255.7171305567026,left,1,0.6334952041506767,0.4,,,,,,,,,,,s017,001,2024-07-22_17h45.01.681,simplestop_skeleton,2022.2.2,59.885107615096786,
None,None,,,,,,,,,0,0,0,0,5,1,21,1,,,,,,,,,3255.7011156491935,stop,circleblack.png,left,0.4,,,,,,,,,,,,,,,,,,0.001206863671541214,0.4911467730998993,0.8915622681379318,3258.204206112772,test,1,,,,,,,3255.7171305567026,3256.218038972467,3256.218038972467,3256.218038972467,3256.6183062791824,3257.117358211428,3257.2175502479076,3258.2208396978676,left,1,0.42343224957585335,0.35,,,,,,,,,,,s017,001,2024-07-22_17h45.01.681,simplestop_skeleton,2022.2.2,59.885107615096786,
None,None,,,,,,,,,0,0,0,0,5,2,22,1,,,,,,,,,3258.20464040339,go,circleblack.png,left,0.35,,,,,,,,,,,,,,,,,,0.0012491904199123383,0.4899429976940155,,3260.707933500409,test,1,,,,,,,3258.2208396978676,3258.7206222340465,3258.7206222340465,3258.7206222340465,3259.070927873254,3259.572011180222,3259.720358274877,3260.7253622747958,left,1,0.6239439882338047,0.35,,,,,,,,,,,s017,001,2024-07-22_17h45.01.681,simplestop_skeleton,2022.2.2,59.885107615096786,
None,None,,,,,,,,,0,0,0,0,5,3,23,3,,,,,,,,,3260.7083770632744,go,circleblack.png,left,0.35,,,,,,,,,,,,,,,,,,0.0015286169946193695,0.48902254551649094,,3263.2087154090405,test,1,,,,,,,3260.7253622747958,3261.223481670022,3261.223481670022,3261.240199904889,3261.5739097446203,3262.0746628418565,3262.2232652045786,3263.225379873067,left,1,0.704741831868887,0.35,,,,,,,,,,,s017,001,2024-07-22_17h45.01.681,simplestop_skeleton,2022.2.2,59.885107615096786,
$currentCorrectResponse,$currentGoStim,,,,,,,,,0,0,0,0,6,0,24,0,,,,,,,,,3263.2091506272554,go,circleblack.png,left,0.35,,,,,,,,,,,,,,,,,,0.0012178346514701843,0.4899187609553337,,3265.713312972337,test,1,,,,,,,3263.225379873067,3263.7248215526342,3263.7248215526342,3263.7248215526342,3264.0752830170095,3264.5763527862728,3264.7269858531654,3265.73229669407,left,1,0.40678493306040764,0.35,,,,,,,,,,,s017,001,2024-07-22_17h45.01.681,simplestop_skeleton,2022.2.2,59.885107615096786,
$currentCorrectResponse,$currentGoStim,,,,,,,,,0,0,0,0,6,1,25,0,,,,,,,,,3265.7137525826693,go,circleblack.png,left,0.35,,,,,,,,,,,,,,,,,,0.0014027543365955353,0.48955753445625305,,3268.2151511646807,test,1,,,,,,,3265.73229669407,3266.229083970189,3266.229083970189,3266.2457285635173,3266.5793724171817,3267.0784417130053,3267.2286783009768,3268.231903936714,left,1,0.4175218641757965,0.35,,,,,,,,,,,s017,001,2024-07-22_17h45.01.681,simplestop_skeleton,2022.2.2,59.885107615096786,
None,None,,,,,,,,,0,0,0,0,6,2,26,2,,,,,,,,,3268.2155976668,stop,circleblack.png,left,0.35,,,,,,,,,,,,,,,,,,0.0012485608458518982,0.48992104455828667,0.8405155204236507,3270.718469195068,test,1,,,,,,,3268.231903936714,3268.7315958179533,3268.7315958179533,3268.7315958179533,3269.0807543694973,3269.581355366856,3269.7313255406916,3270.737192235887,left,1,0.47191932797431946,0.3,,,,,,,,,,,s017,001,2024-07-22_17h45.01.681,simplestop_skeleton,2022.2.2,59.885107615096786,
None,None,,,,,,,,,0,0,0,0,6,3,27,1,,,,,,,,,3270.7188957072794,stop,circleblack.png,left,0.3,,,,,,,,,,,,,,,,,,0.001339878886938095,0.48958340659737587,0.789926890283823,3273.2211349010468,test,1,,,,,,,3270.737192235887,3271.234620310366,3271.234620310366,3271.250942878425,3271.534921452403,3272.035264518112,3272.2356195412576,3273.245632212609,None,0,,0.35,,,,,,,,,,,s017,001,2024-07-22_17h45.01.681,simplestop_skeleton,2022.2.2,59.885107615096786,
$currentCorrectResponse,$currentGoStim,,,,,,,,,0,0,0,0,7,0,28,0,,,,,,,,,3273.221568685025,stop,squareblack.png,right,0.35,,,,,,,,,,,,,,,,,,0.007806498557329178,0.48979538306593895,0.8401757478713989,3275.7239569686353,test,1,,,,,,,3273.245632212609,3273.737152751535,3273.737152751535,3273.7540680095553,3274.0876493416727,3274.588266015053,3274.738424155861,3275.7430857010186,None,0,,0.4,,,,,,,,,,,s017,001,2024-07-22_17h45.01.681,simplestop_skeleton,2022.2.2,59.885107615096786,
None,None,,,,,,,,,0,0,0,0,7,1,29,3,,,,,,,,,3275.72439635545,go,circleblack.png,left,0.4,,,,,,,,,,,,,,,,,,0.0018179677426815033,0.4896521791815758,,3278.2252649627626,test,1,,,,,,,3275.7430857010186,3276.23993948102,3276.23993948102,3276.2565800845623,3276.640442892909,3277.1414103731513,3277.241529993713,3278.242062434554,left,1,0.7389719672501087,0.4,,,,,,,,,,,s017,001,2024-07-22_17h45.01.681,simplestop_skeleton,2022.2.2,59.885107615096786,
None,None,,,,,,,,,0,0,0,0,7,2,30,3,,,,,,,,,3278.2257040776312,go,circleblack.png,left,0.4,,,,,,,,,,,,,,,,,,0.0012367293238639832,0.4897053502500057,,3280.730400312692,test,1,,,,,,,3278.242062434554,3278.7417041510344,3278.7417041510344,3278.7417041510344,3279.1417170092463,3279.642420414835,3279.742473077029,3280.7506149187684,left,1,0.7438585981726646,0.4,,,,,,,,,,,s017,001,2024-07-22_17h45.01.681,simplestop_skeleton,2022.2.2,59.885107615096786,
$currentCorrectResponse,$currentGoStim,,,,,,,,,0,0,0,0,7,3,31,0,,,,,,,,,3280.7308649756014,stop,squareblack.png,right,0.4,,,,,,,,,,,,,,,,,,0.0025583654642105103,0.488423191010952,0.8887881562113762,3283.2322307750583,test,1,,,,,,,3280.7506149187684,3281.2456780411303,3281.2456780411303,3281.2621889300644,3281.646031484008,3282.146519087255,3282.246479805559,3283.2511423788965,None,0,,0.45,,,,,,,,,,,s017,001,2024-07-22_17h45.01.681,simplestop_skeleton,2022.2.2,59.885107615096786,
None,None,,,,,,,,,0,0,0,0,8,0,32,2,,,,,,,,,3283.232684470713,go,squareblack.png,right,0.45,,,,,,,,,,,,,,,,,,0.001339241862297058,0.48947179317474365,,3285.7347585111856,test,1,,,,,,,3283.2511423788965,3283.748416915536,3283.748416915536,3283.764954905957,3284.198739718646,3284.6979347020388,3284.7478811368346,3285.751555349678,right,1,0.491936631500721,0.45,,,,,,,,,,,s017,001,2024-07-22_17h45.01.681,simplestop_skeleton,2022.2.2,59.885107615096786,
$currentCorrectResponse,$currentGoStim,,,,,,,,,0,0,0,0,8,1,33,0,,,,,,,,,3285.735211137682,go,squareblack.png,right,0.45,,,,,,,,,,,,,,,,,,0.0012081079185009003,0.4898676499724388,,3288.2369282357395,test,1,,,,,,,3285.751555349678,3286.251064207405,3286.251064207405,3286.251064207405,3286.7015934213996,3287.2005563750863,3287.250585332513,3288.254331097007,right,1,0.3896212950348854,0.45,,,,,,,,,,,s017,001,2024-07-22_17h45.01.681,simplestop_skeleton,2022.2.2,59.885107615096786,
None,None,,,,,,,,,0,0,0,0,8,2,34,3,,,,,,,,,3288.2373760528862,go,squareblack.png,right,0.45,,,,,,,,,,,,,,,,,,0.0011982433497905731,0.49036068841814995,,3290.739836513996,test,1,,,,,,,3288.254331097007,3288.7536512464285,3288.7536512464285,3288.7536512464285,3289.204127319157,3289.703393470496,3289.7533916793764,3290.7567014805973,right,1,0.48490551859140396,0.45,,,,,,,,,,,s017,001,2024-07-22_17h45.01.681,simplestop_skeleton,2022.2.2,59.885107615096786,
None,None,,,,,,,,,0,0,0,0,8,3,35,3,,,,,,,,,3290.740288667381,go,squareblack.png,right,0.45,,,,,,,,,,,,,,,,,,0.001257777214050293,0.4902384616434574,,3293.2418395988643,test,1,,,,,,,3290.7567014805973,3291.2565566003323,3291.2565566003323,3291.2565566003323,3291.7068781666458,3292.207904584706,3292.2563973665237,3293.2642303965986,right,1,0.7077481932938099,0.45,,,,,,,,,,,s017,001,2024-07-22_17h45.01.681,simplestop_skeleton,2022.2.2,59.885107615096786,
None,None,,,,,,,,,0,0,0,0,9,0,36,2,,,,,,,,,3293.2422777488828,go,circleblack.png,left,0.45,,,,,,,,,,,,,,,,,,0.0077504366636276245,0.49122803658246994,,3295.745847567916,test,1,,,,,,,3293.2642303965986,3293.759383689612,3293.759383689612,3293.7759720906615,3294.2089025452733,3294.708849027753,3294.759021218866,3295.765233553946,left,1,0.8247518055140972,0.45,,,,,,,,,,,s017,001,2024-07-22_17h45.01.681,simplestop_skeleton,2022.2.2,59.885107615096786,
None,None,,,,,,,,,0,0,0,0,9,1,37,3,,,,,,,,,3295.7462789081037,go,squareblack.png,right,0.45,,,,,,,,,,,,,,,,,,0.0016683600842952728,0.4897315725684166,,3298.248070869595,test,1,,,,,,,3295.765233553946,3296.2618984915316,3296.2618984915316,3296.2787514962256,3296.7127950042486,3297.2283329963684,3297.261593963951,3298.2659943029284,right,1,0.5419448018074036,0.45,,,,,,,,,,,s017,001,2024-07-22_17h45.01.681,simplestop_skeleton,2022.2.2,59.885107615096786,
$currentCorrectResponse,$currentGoStim,,,,,,,,,0,0,0,0,9,2,38,0,,,,,,,,,3298.248505279422,go,circleblack.png,left,0.45,,,,,,,,,,,,,,,,,,0.0019020959734916687,0.4906688369810581,,3300.7515575513244,test,1,,,,,,,3298.2659943029284,3298.765220824629,3298.765220824629,3298.765220824629,3299.213876068592,3299.714463315904,3299.7644417844713,3300.7705002874136,left,1,0.4768044240772724,0.45,,,,,,,,,,,s017,001,2024-07-22_17h45.01.681,simplestop_skeleton,2022.2.2,59.885107615096786,
None,None,,,,,,,,,0,0,0,0,9,3,39,2,,,,,,,,,3300.751998323947,stop,circleblack.png,left,0.45,,,,,,,,,,,,,,,,,,0.0013576336205005646,0.4895659051835537,0.9401445612311363,3303.25342194736,test,1,,,,,,,3300.7705002874136,3301.267465289682,3301.267465289682,3301.2841315194964,3301.718061506748,3302.217283230275,3302.267219427973,3303.2723812907934,left,1,0.4059457667171955,0.4,,,,,,,,,,,s017,001,2024-07-22_17h45.01.681,simplestop_skeleton,2022.2.2,59.885107615096786,
None,None,,,,,,,,,0,0,0,0,10,0,40,2,,,,,,,,,3303.253894519061,go,circleblack.png,left,0.4,,,,,,,,,,,,,,,,,,0.001283261924982071,0.4903763085603714,,3305.756501816213,test,1,,,,,,,3303.2723812907934,3303.770266711712,3303.770266711712,3303.7869906276464,3304.1706655845046,3304.669775981456,3304.7699031233788,3305.7787843346596,left,1,0.4694962874054909,0.4,,,,,,,,,,,s017,001,2024-07-22_17h45.01.681,simplestop_skeleton,2022.2.2,59.885107615096786,
None,None,,,,,,,,,0,0,0,0,10,1,41,3,,,,,,,,,3305.7569359131157,go,squareblack.png,right,0.4,,,,,,,,,,,,,,,,,,0.007154475897550583,0.49010809510946274,,3308.258855842054,test,1,,,,,,,3305.7787843346596,3306.273078098893,3306.273078098893,3306.2897841222584,3306.673495694995,3307.1739937588573,3307.2727322094142,3308.2904783412814,right,1,0.5347935669124126,0.4,,,,,,,,,,,s017,001,2024-07-22_17h45.01.681,simplestop_skeleton,2022.2.2,59.885107615096786,
None,None,,,,,,,,,0,0,0,0,10,2,42,1,,,,,,,,,3308.259301535785,stop,squareblack.png,right,0.4,,,,,,,,,,,,,,,,,,0.0011409707367420197,0.4907206557691097,0.8912730738520622,3310.7617334350944,test,1,,,,,,,3308.2904783412814,3308.775917686522,3308.775917686522,3308.7924639061093,3309.176050312817,3309.675376649946,3309.7755357027054,3310.779188401997,right,1,0.43338825553655624,0.35,,,,,,,,,,,s017,001,2024-07-22_17h45.01.681,simplestop_skeleton,2022.2.2,59.885107615096786,
None,None,,,,,,,,,0,0,0,0,10,3,43,3,,,,,,,,,3310.7621663548052,go,squareblack.png,right,0.35,,,,,,,,,,,,,,,,,,0.0012008845806121826,0.490504153072834,,3313.2642937786877,test,1,,,,,,,3310.779188401997,3311.27856149897,3311.27856149897,3311.27856149897,3311.628979474306,3312.1300132498145,3312.278274565935,3313.2966407723725,right,1,0.6030665412545204,0.35,,,,,,,,,,,s017,001,2024-07-22_17h45.01.681,simplestop_skeleton,2022.2.2,59.885107615096786,
None,None,,,,,,,,,0,0,0,0,11,0,44,1,,,,,,,,,3313.2649424150586,go,squareblack.png,right,0.35,,,,,,,,,,,,,,,,,,0.00115150585770607,0.49057595059275627,,3315.7667066268623,test,1,,,,,,,3313.2966407723725,3313.781444180757,3313.781444180757,3313.7981157414615,3314.1319092549384,3314.632628194988,3314.782467223704,3315.7834920175374,right,1,0.689679466187954,0.35,,,,,,,,,,,s017,001,2024-07-22_17h45.01.681,simplestop_skeleton,2022.2.2,59.885107615096786,
None,None,,,,,,,,,0,0,0,0,11,1,45,2,,,,,,,,,3315.7671442478895,stop,squareblack.png,right,0.35,,,,,,,,,,,,,,,,,,0.0013050884008407593,0.489600770175457,0.8400792665779591,3318.270938601345,test,1,,,,,,,3315.7834920175374,3316.2827723175287,3316.2827723175287,3316.2827723175287,3316.633758943528,3317.133741684258,3317.28489709273,3318.2956670857966,None,0,,0.4,,,,,,,,,,,s017,001,2024-07-22_17h45.01.681,simplestop_skeleton,2022.2.2,59.885107615096786,
None,None,,,,,,,,,0,0,0,0,11,2,46,1,,,,,,,,,3318.2713800631464,stop,circleblack.png,left,0.4,,,,,,,,,,,,,,,,,,0.007918920367956161,0.4896128885447979,0.8898384608328342,3320.773706998676,test,1,,,,,,,3318.2956670857966,3318.786889079958,3318.786889079958,3318.8035567104816,3319.187244553119,3319.687992081046,3319.7879908308387,3320.792730871588,None,0,,0.45,,,,,,,,,,,s017,001,2024-07-22_17h45.01.681,simplestop_skeleton,2022.2.2,59.885107615096786,
None,None,,,,,,,,,0,0,0,0,11,3,47,2,,,,,,,,,3320.7741542309523,go,circleblack.png,left,0.45,,,,,,,,,,,,,,,,,,0.0014592818915843964,0.489398505538702,,3323.2750231437385,test,1,,,,,,,3320.792730871588,3321.28963573277,3321.28963573277,3321.3064826093614,3321.7401235364377,3322.2411005087197,3322.2912204936147,3323.297792535275,left,1,0.7661742530763149,0.45,,,,,,,,,,,s017,001,2024-07-22_17h45.01.681,simplestop_skeleton,2022.2.2,59.885107615096786,
,,,,,,,,,,0,0,0,0,,,,,,"[{'fileName': 'circleblack.png', 'correct_response': 'left', 'condition': 'stop'}, {'fileName': 'squareblack.png', 'correct_response': 'right', 'condition': 'go'}, {'fileName': 'circleblack.png', 'correct_response': 'left', 'condition': 'go'}, {'fileName': 'squareblack.png', 'correct_response': 'right', 'condition': 'go'}, {'fileName': 'circleblack.png', 'correct_response': 'left', 'condition': 'go'}, {'fileName': 'squareblack.png', 'correct_response': 'right', 'condition': 'go'}, {'fileName': 'squareblack.png', 'correct_response': 'right', 'condition': 'go'}, {'fileName': 'circleblack.png', 'correct_response': 'left', 'condition': 'go'}, {'fileName': 'squareblack.png', 'correct_response': 'right', 'condition': 'stop'}, {'fileName': 'circleblack.png', 'correct_response': 'left', 'condition': 'go'}, {'fileName': 'circleblack.png', 'correct_response': 'left', 'condition': 'stop'}, {'fileName': 'squareblack.png', 'correct_response': 'right', 'condition': 'stop'}, {'fileName': 'squareblack.png', 'correct_response': 'right', 'condition': 'stop'}, {'fileName': 'squareblack.png', 'correct_response': 'right', 'condition': 'go'}, {'fileName': 'squareblack.png', 'correct_response': 'right', 'condition': 'go'}, {'fileName': 'circleblack.png', 'correct_response': 'left', 'condition': 'go'}, {'fileName': 'squareblack.png', 'correct_response': 'right', 'condition': 'stop'}, {'fileName': 'squareblack.png', 'correct_response': 'right', 'condition': 'go'}, {'fileName': 'circleblack.png', 'correct_response': 'left', 'condition': 'stop'}, {'fileName': 'circleblack.png', 'correct_response': 'left', 'condition': 'stop'}, {'fileName': 'circleblack.png', 'correct_response': 'left', 'condition': 'go'}, {'fileName': 'circleblack.png', 'correct_response': 'left', 'condition': 'go'}, {'fileName': 'circleblack.png', 'correct_response': 'left', 'condition': 'go'}, {'fileName': 'squareblack.png', 'correct_response': 'right', 'condition': 'go'}, {'fileName': 'squareblack.png', 'correct_response': 'right', 'condition': 'go'}, {'fileName': 'circleblack.png', 'correct_response': 'left', 'condition': 'go'}, {'fileName': 'circleblack.png', 'correct_response': 'left', 'condition': 'stop'}, {'fileName': 'circleblack.png', 'correct_response': 'left', 'condition': 'stop'}, {'fileName': 'squareblack.png', 'correct_response': 'right', 'condition': 'stop'}, {'fileName': 'squareblack.png', 'correct_response': 'right', 'condition': 'go'}, {'fileName': 'squareblack.png', 'correct_response': 'right', 'condition': 'go'}, {'fileName': 'squareblack.png', 'correct_response': 'right', 'condition': 'stop'}, {'fileName': 'circleblack.png', 'correct_response': 'left', 'condition': 'go'}, {'fileName': 'circleblack.png', 'correct_response': 'left', 'condition': 'go'}, {'fileName': 'circleblack.png', 'correct_response': 'left', 'condition': 'go'}, {'fileName': 'squareblack.png', 'correct_response': 'right', 'condition': 'go'}, {'fileName': 'squareblack.png', 'correct_response': 'right', 'condition': 'go'}, {'fileName': 'squareblack.png', 'correct_response': 'right', 'condition': 'stop'}, {'fileName': 'squareblack.png', 'correct_response': 'right', 'condition': 'go'}, {'fileName': 'squareblack.png', 'correct_response': 'right', 'condition': 'go'}, {'fileName': 'squareblack.png', 'correct_response': 'right', 'condition': 'go'}, {'fileName': 'circleblack.png', 'correct_response': 'left', 'condition': 'go'}, {'fileName': 'circleblack.png', 'correct_response': 'left', 'condition': 'go'}, {'fileName': 'squareblack.png', 'correct_response': 'right', 'condition': 'stop'}, {'fileName': 'circleblack.png', 'correct_response': 'left', 'condition': 'go'}, {'fileName': 'circleblack.png', 'correct_response': 'left', 'condition': 'stop'}, {'fileName': 'circleblack.png', 'correct_response': 'left', 'condition': 'stop'}, {'fileName': 'circleblack.png', 'correct_response': 'left', 'condition': 'go'}]",,,,,,,,,,,,,,,,,,,,,,,,,,,,,,,,,,,,,,,,,,,,,,,,,,,,,3323.297792535275,3323.297792535275,return,11.518246170133352,,,,,,,s017,001,2024-07-22_17h45.01.681,simplestop_skeleton,2022.2.2,59.885107615096786,
$currentCorrectResponse,$currentGoStim,,,,,,,,,1,0,1,0,0,0,0,0,,,,,,,,,3334.8451225943863,stop,circleblack.png,left,0.45,,,,,,,,,,,,,,,,,,0.0013564825057983398,0.4838399179279804,0.9339850507676601,3337.342388011515,test,2,,,,,,,3334.863981578499,3335.3551242910326,3335.3551242910326,3335.3720864467323,3335.8058116026223,3336.3062621951103,3336.356493137777,3337.366917140782,None,0,,0.5,,,,,,,,,,,s017,001,2024-07-22_17h45.01.681,simplestop_skeleton,2022.2.2,59.885107615096786,
None,None,,,,,,,,,1,0,1,0,0,1,1,2,,,,,,,,,3337.342976141721,go,squareblack.png,right,0.5,,,,,,,,,,,,,,,,,,0.007528241723775864,0.4894219897687435,,3339.843464255333,test,2,,,,,,,3337.366917140782,3337.8582541570067,3337.8582541570067,3337.8747754991055,3338.359016776085,3338.874367929995,3338.857603598386,3339.861456543207,right,1,0.5160838738083839,0.5,,,,,,,,,,,s017,001,2024-07-22_17h45.01.681,simplestop_skeleton,2022.2.2,59.885107615096786,
None,None,,,,,,,,,1,0,1,0,0,2,2,3,,,,,,,,,3339.8439100310206,go,circleblack.png,left,0.5,,,,,,,,,,,,,,,,,,0.001775357872247696,0.4894498661160469,,3342.347603943199,test,2,,,,,,,3339.861456543207,3340.359293408692,3340.359293408692,3340.3760997503996,3340.859948500991,3341.361336607486,3341.361336607486,3342.3668396808207,left,1,0.6557905226945877,0.5,,,,,,,,,,,s017,001,2024-07-22_17h45.01.681,simplestop_skeleton,2022.2.2,59.885107615096786,
None,None,,,,,,,,,1,0,1,0,0,3,3,2,,,,,,,,,3342.3480388969183,go,squareblack.png,right,0.5,,,,,,,,,,,,,,,,,,0.001771930605173111,0.4894869029521942,,3344.848825894296,test,2,,,,,,,3342.3668396808207,3342.8638033904135,3342.8638033904135,3342.88033824414,3343.364190623164,3343.863100487739,3343.863100487739,3344.8660010546446,right,1,0.5908490978181362,0.5,,,,,,,,,,,s017,001,2024-07-22_17h45.01.681,simplestop_skeleton,2022.2.2,59.885107615096786,
None,None,,,,,,,,,1,0,1,0,1,0,4,1,,,,,,,,,3344.8492629900575,go,circleblack.png,left,0.5,,,,,,,,,,,,,,,,,,0.0017384663224220276,0.4899095632135868,,3347.3527406193316,test,2,,,,,,,3344.8660010546446,3345.364941738546,3345.364941738546,3345.3816179819405,3345.8655353076756,3346.366767950356,3346.366767950356,3347.3722793124616,left,1,0.46731480956077576,0.5,,,,,,,,,,,s017,001,2024-07-22_17h45.01.681,simplestop_skeleton,2022.2.2,59.885107615096786,
None,None,,,,,,,,,1,0,1,0,1,1,5,3,,,,,,,,,3347.3531716503203,go,squareblack.png,right,0.5,,,,,,,,,,,,,,,,,,0.0016441605985164642,0.4897312708199024,,3349.854927048087,test,2,,,,,,,3347.3722793124616,3347.869225934148,3347.869225934148,3347.8856453560293,3348.370143815875,3348.885383155197,3348.868710141629,3349.8722803369164,right,1,0.42428239434957504,0.5,,,,,,,,,,,s017,001,2024-07-22_17h45.01.681,simplestop_skeleton,2022.2.2,59.885107615096786,
$currentCorrectResponse,$currentGoStim,,,,,,,,,1,0,1,0,1,2,6,0,,,,,,,,,3349.8553631342947,go,squareblack.png,right,0.5,,,,,,,,,,,,,,,,,,0.001190684735774994,0.4903806820511818,,3352.3570003546774,test,2,,,,,,,3349.8722803369164,3350.372180752456,3350.372180752456,3350.372180752456,3350.872344724834,3351.37132518366,3351.37132518366,3352.3746271952987,right,1,0.5845802500844002,0.5,,,,,,,,,,,s017,001,2024-07-22_17h45.01.681,simplestop_skeleton,2022.2.2,59.885107615096786,
None,None,,,,,,,,,1,0,1,0,1,3,7,1,,,,,,,,,3352.3574451580644,go,circleblack.png,left,0.5,,,,,,,,,,,,,,,,,,0.001879669725894928,0.48948684334754944,,3354.861176878214,test,2,,,,,,,3352.3746271952987,3352.872991167009,3352.872991167009,3352.8896316066384,3353.373636301607,3353.8747823536396,3353.8747823536396,3354.8808607384562,left,1,0.6062193848192692,0.5,,,,,,,,,,,s017,001,2024-07-22_17h45.01.681,simplestop_skeleton,2022.2.2,59.885107615096786,
None,None,,,,,,,,,1,0,1,0,2,0,8,3,,,,,,,,,3354.8616080470383,stop,squareblack.png,right,0.5,,,,,,,,,,,,,,,,,,0.0017598755657672882,0.4895789287984371,0.9904998242855072,3357.3633811585605,test,2,,,,,,,3354.8808607384562,3355.377316389233,3355.377316389233,3355.393928553909,3355.8776586428285,3356.376843214035,3356.376843214035,3357.3810949511826,right,1,0.4719565361738205,0.45,,,,,,,,,,,s017,001,2024-07-22_17h45.01.681,simplestop_skeleton,2022.2.2,59.885107615096786,
None,None,,,,,,,,,1,0,1,0,2,1,9,2,,,,,,,,,3357.3638434819877,go,circleblack.png,left,0.45,,,,,,,,,,,,,,,,,,0.0019297413527965546,0.490288894623518,,3359.865188449621,test,2,,,,,,,3357.3810949511826,3357.87996250391,3357.87996250391,3357.87996250391,3358.330461088568,3358.8314827792346,3358.8816130012274,3359.882078308612,left,1,0.8315863683819771,0.45,,,,,,,,,,,s017,001,2024-07-22_17h45.01.681,simplestop_skeleton,2022.2.2,59.885107615096786,
None,None,,,,,,,,,1,0,1,0,2,2,10,2,,,,,,,,,3359.865638434887,stop,circleblack.png,left,0.45,,,,,,,,,,,,,,,,,,0.001275520771741867,0.48978471383452415,0.9403328858315945,3362.3701665923,test,2,,,,,,,3359.882078308612,3360.3813762180507,3360.3813762180507,3360.3813762180507,3360.831825260073,3361.33233365044,3361.3825016394258,3362.389554962516,left,1,0.45751648396253586,0.4,,,,,,,,,,,s017,001,2024-07-22_17h45.01.681,simplestop_skeleton,2022.2.2,59.885107615096786,
None,None,,,,,,,,,1,0,1,0,2,3,11,3,,,,,,,,,3362.370597861707,stop,squareblack.png,right,0.4,,,,,,,,,,,,,,,,,,0.002506643533706665,0.48920485377311707,0.8893334418535233,3364.8713989295065,test,2,,,,,,,3362.389554962516,3362.8855662867427,3362.8855662867427,3362.9021074026823,3363.2860980406404,3363.785052165389,3363.885531745851,3364.8888949900866,right,1,0.4226502776145935,0.35,,,,,,,,,,,s017,001,2024-07-22_17h45.01.681,simplestop_skeleton,2022.2.2,59.885107615096786,
None,None,,,,,,,,,1,0,1,0,3,0,12,3,,,,,,,,,3364.871840968728,stop,squareblack.png,right,0.35,,,,,,,,,,,,,,,,,,0.0011960230767726898,0.49042943120002747,0.8407352939248085,3367.3752304539084,test,2,,,,,,,3364.8888949900866,3365.3882316164672,3365.3882316164672,3365.3882316164672,3365.738582100719,3366.2393374703825,3366.3894108757377,3367.3941336795688,None,0,,0.4,,,,,,,,,,,s017,001,2024-07-22_17h45.01.681,simplestop_skeleton,2022.2.2,59.885107615096786,
$currentCorrectResponse,$currentGoStim,,,,,,,,,1,0,1,0,3,1,13,0,,,,,,,,,3367.37567031011,go,squareblack.png,right,0.4,,,,,,,,,,,,,,,,,,0.001316715031862259,0.4895475171506405,,3369.8763620853424,test,2,,,,,,,3367.3941336795688,3367.8910644836724,3367.8910644836724,3367.907824855298,3368.2915940992534,3368.7913180477917,3368.890627320856,3369.8931655697525,right,1,0.5803360417485237,0.4,,,,,,,,,,,s017,001,2024-07-22_17h45.01.681,simplestop_skeleton,2022.2.2,59.885107615096786,
None,None,,,,,,,,,1,0,1,0,3,2,14,3,,,,,,,,,3369.8768129199743,go,squareblack.png,right,0.4,,,,,,,,,,,,,,,,,,0.001211952418088913,0.48977796360850334,,3372.3805905990303,test,2,,,,,,,3369.8931655697525,3370.3923157975078,3370.3923157975078,3370.3923157975078,3370.793026778847,3371.293411307037,3371.3938251696527,3372.4033810719848,right,1,0.7082742229104042,0.4,,,,,,,,,,,s017,001,2024-07-22_17h45.01.681,simplestop_skeleton,2022.2.2,59.885107615096786,
None,None,,,,,,,,,1,0,1,0,3,3,15,1,,,,,,,,,3372.381027817726,go,circleblack.png,left,0.4,,,,,,,,,,,,,,,,,,0.005761999636888504,0.48922886699438095,,3374.882220208645,test,2,,,,,,,3372.4033810719848,3372.896467477083,3372.896467477083,3372.913249384612,3373.297023717314,3373.7961661331356,3373.8962050937116,3374.9010915085673,left,1,0.5262726545333862,0.4,,,,,,,,,,,s017,001,2024-07-22_17h45.01.681,simplestop_skeleton,2022.2.2,59.885107615096786,
None,None,,,,,,,,,1,0,1,0,4,0,16,1,,,,,,,,,3374.882963452488,stop,squareblack.png,right,0.4,,,,,,,,,,,,,,,,,,0.0017075128853321075,0.4879600778222084,0.8885250836610794,3377.3861516043544,test,2,,,,,,,3374.9010915085673,3375.397958815098,3375.397958815098,3375.414554040879,3375.7984868735075,3376.298941280693,3376.4003801085055,3377.4049085602164,None,0,,0.45,,,,,,,,,,,s017,001,2024-07-22_17h45.01.681,simplestop_skeleton,2022.2.2,59.885107615096786,
None,None,,,,,,,,,1,0,1,0,4,1,17,2,,,,,,,,,3377.3865849636495,go,squareblack.png,right,0.45,,,,,,,,,,,,,,,,,,0.001243840903043747,0.4900865964591503,,3379.8873534090817,test,2,,,,,,,3377.4049085602164,3377.902061291039,3377.902061291039,3377.9193470589817,3378.3525291085243,3378.8518988080323,3378.901843007654,3379.907010484487,right,1,0.6629946604371071,0.45,,,,,,,,,,,s017,001,2024-07-22_17h45.01.681,simplestop_skeleton,2022.2.2,59.885107615096786,
$currentCorrectResponse,$currentGoStim,,,,,,,,,1,0,1,0,4,2,18,0,,,,,,,,,3379.8878367990255,stop,circleblack.png,left,0.45,,,,,,,,,,,,,,,,,,0.0046379901468753815,0.4896470755338669,0.9402393028140068,3382.3921443782747,test,2,,,,,,,3379.907010484487,3380.4034434743226,3380.4034434743226,3380.4200902841985,3380.854088816792,3381.354519098997,3381.4046469032764,3382.4111277610064,left,1,0.5004910118877888,0.4,,,,,,,,,,,s017,001,2024-07-22_17h45.01.681,simplestop_skeleton,2022.2.2,59.885107615096786,
$currentCorrectResponse,$currentGoStim,,,,,,,,,1,0,1,0,4,3,19,0,,,,,,,,,3382.3925833255053,stop,circleblack.png,left,0.4,,,,,,,,,,,,,,,,,,0.0014637894928455353,0.4893430434167385,0.8897309228777885,3384.893688708544,test,2,,,,,,,3382.4111277610064,3382.907660227269,3382.907660227269,3382.924550551921,3383.3081242591143,3383.8072991222143,3383.9073560498655,3384.9111177809536,left,1,0.4887297935783863,0.35,,,,,,,,,,,s017,001,2024-07-22_17h45.01.681,simplestop_skeleton,2022.2.2,59.885107615096786,
$currentCorrectResponse,$currentGoStim,,,,,,,,,1,0,1,0,5,0,20,0,,,,,,,,,3384.8941292129457,go,circleblack.png,left,0.35,,,,,,,,,,,,,,,,,,0.0012624859809875488,0.4906397722661495,,3387.3958808369935,test,2,,,,,,,3384.9111177809536,3385.410395756364,3385.410395756364,3385.410395756364,3385.760746072978,3386.261949941516,3386.4102377034724,3387.4275561608374,left,1,0.6955391056835651,0.35,,,,,,,,,,,s017,001,2024-07-22_17h45.01.681,simplestop_skeleton,2022.2.2,59.885107615096786,
None,None,,,,,,,,,1,0,1,0,5,1,21,3,,,,,,,,,3387.396335825324,go,circleblack.png,left,0.35,,,,,,,,,,,,,,,,,,0.001225888729095459,0.4913370832800865,,3389.899912495166,test,2,,,,,,,3387.4275561608374,3387.913432225585,3387.913432225585,3387.930182468146,3388.2620635330677,3388.762782089412,3388.9126996919513,3389.9188525639474,left,1,0.7312116771936417,0.35,,,,,,,,,,,s017,001,2024-07-22_17h45.01.681,simplestop_skeleton,2022.2.2,59.885107615096786,
None,None,,,,,,,,,1,0,1,0,5,2,22,3,,,,,,,,,3389.900375071913,go,circleblack.png,left,0.35,,,,,,,,,,,,,,,,,,0.0013293586671352386,0.48956073075532913,,3392.4010566063225,test,2,,,,,,,3389.9188525639474,3390.4158781021833,3390.4158781021833,3390.4325751028955,3390.766376744956,3391.267283245921,3391.4155790507793,3392.422800194472,left,1,0.6125820018351078,0.35,,,,,,,,,,,s017,001,2024-07-22_17h45.01.681,simplestop_skeleton,2022.2.2,59.885107615096786,
None,None,,,,,,,,,1,0,1,0,5,3,23,3,,,,,,,,,3392.4015202261508,go,squareblack.png,right,0.35,,,,,,,,,,,,,,,,,,0.007041279226541519,0.4913531355559826,,3394.905384387821,test,2,,,,,,,3392.422800194472,3392.918639652431,3392.918639652431,3392.935320548713,3393.2675323672593,3393.768235888332,3393.9184887222946,3394.9243412539363,right,1,0.6784352399408817,0.35,,,,,,,,,,,s017,001,2024-07-22_17h45.01.681,simplestop_skeleton,2022.2.2,59.885107615096786,
None,None,,,,,,,,,1,0,1,0,6,0,24,2,,,,,,,,,3394.9058153890073,go,squareblack.png,right,0.35,,,,,,,,,,,,,,,,,,0.0012593306601047516,0.4896247126162052,,3397.407415471971,test,2,,,,,,,3394.9243412539363,3395.4212766774,3395.4212766774,3395.438181847334,3395.771797861904,3396.270911913365,3396.4210823513567,3397.4253622442484,right,1,0.5173049122095108,0.35,,,,,,,,,,,s017,001,2024-07-22_17h45.01.681,simplestop_skeleton,2022.2.2,59.885107615096786,
None,None,,,,,,,,,1,0,1,0,6,1,25,1,,,,,,,,,3397.407856877893,go,circleblack.png,left,0.35,,,,,,,,,,,,,,,,,,0.001926131546497345,0.49052944779396057,,3399.909346897155,test,2,,,,,,,3397.4253622442484,3397.924069482833,3397.924069482833,3397.924069482833,3398.2746371999383,3398.7758352197707,3398.923836171627,3399.928268402815,left,1,0.6712467782199383,0.35,,,,,,,,,,,s017,001,2024-07-22_17h45.01.681,simplestop_skeleton,2022.2.2,59.885107615096786,
None,None,,,,,,,,,1,0,1,0,6,2,26,2,,,,,,,,,3399.909784294665,stop,circleblack.png,left,0.35,,,,,,,,,,,,,,,,,,0.0017181038856506348,0.4888720028102398,0.8395002074539661,3402.4140534214675,test,2,,,,,,,3399.928268402815,3400.4254982434213,3400.4254982434213,3400.4422428682446,3400.7758707515895,3401.2763971686363,3401.426553659141,3402.4338956549764,None,0,,0.4,,,,,,,,,,,s017,001,2024-07-22_17h45.01.681,simplestop_skeleton,2022.2.2,59.885107615096786,
None,None,,,,,,,,,1,0,1,0,6,3,27,2,,,,,,,,,3402.414483450353,stop,circleblack.png,left,0.4,,,,,,,,,,,,,,,,,,0.002113446593284607,0.48829398304224014,0.8888700790703297,3404.9166536852717,test,2,,,,,,,3402.4338956549764,3402.9297286383808,3402.9297286383808,3402.9464107230306,3403.3300589732826,3403.830836389214,3403.930799987167,3404.9358868449926,None,0,,0.45,,,,,,,,,,,s017,001,2024-07-22_17h45.01.681,simplestop_skeleton,2022.2.2,59.885107615096786,
None,None,,,,,,,,,1,0,1,0,7,0,28,1,,,,,,,,,3404.9170829579234,stop,squareblack.png,right,0.45,,,,,,,,,,,,,,,,,,0.0017677396535873413,0.48946694284677505,0.9403936192393303,3407.419649850577,test,2,,,,,,,3404.9358868449926,3405.432684134692,3405.432684134692,3405.4492387771606,3405.883120894432,3406.383723858744,3406.433711219579,3407.438545681536,None,0,,0.5,,,,,,,,,,,s017,001,2024-07-22_17h45.01.681,simplestop_skeleton,2022.2.2,59.885107615096786,
$currentCorrectResponse,$currentGoStim,,,,,,,,,1,0,1,0,7,1,29,0,,,,,,,,,3407.420106075704,go,squareblack.png,right,0.5,,,,,,,,,,,,,,,,,,0.0013277903199195862,0.4896644428372383,,3409.920691523701,test,2,,,,,,,3407.438545681536,3407.9354013204575,3407.9354013204575,3407.9520907513797,3408.435836751014,3408.936807960272,3408.936807960272,3409.937436711043,right,1,0.7226185351610184,0.5,,,,,,,,,,,s017,001,2024-07-22_17h45.01.681,simplestop_skeleton,2022.2.2,59.885107615096786,
$currentCorrectResponse,$currentGoStim,,,,,,,,,1,0,1,0,7,2,30,0,,,,,,,,,3409.921148918569,go,squareblack.png,right,0.5,,,,,,,,,,,,,,,,,,0.0012342222034931183,0.48983749374747276,,3412.4247222058475,test,2,,,,,,,3409.937436711043,3410.436780113727,3410.436780113727,3410.436780113727,3410.937487784773,3411.4377871379256,3411.4377871379256,3412.4438049010932,right,1,0.56855558604002,0.5,,,,,,,,,,,s017,001,2024-07-22_17h45.01.681,simplestop_skeleton,2022.2.2,59.885107615096786,
None,None,,,,,,,,,1,0,1,0,7,3,31,1,,,,,,,,,3412.425179142505,stop,squareblack.png,right,0.5,,,,,,,,,,,,,,,,,,0.0013090446591377258,0.48969816416502,0.9902368634939194,3414.9272837787867,test,2,,,,,,,3412.4438049010932,3412.940916005522,3412.940916005522,3412.957449261099,3413.441573161632,3413.957171395421,3413.940514281392,3414.9452297203243,right,1,0.41260428354144096,0.45,,,,,,,,,,,s017,001,2024-07-22_17h45.01.681,simplestop_skeleton,2022.2.2,59.885107615096786,
None,None,,,,,,,,,1,0,1,0,8,0,32,1,,,,,,,,,3414.92773264274,go,circleblack.png,left,0.45,,,,,,,,,,,,,,,,,,0.0020008571445941925,0.48987962678074837,,3417.4301636070013,test,2,,,,,,,3414.9452297203243,3415.4437370598316,3415.4437370598316,3415.460263311863,3415.89414639771,3416.393483661115,3416.4434986263514,3417.4497434422374,left,1,0.7558885626494884,0.45,,,,,,,,,,,s017,001,2024-07-22_17h45.01.681,simplestop_skeleton,2022.2.2,59.885107615096786,
$currentCorrectResponse,$currentGoStim,,,,,,,,,1,0,1,0,8,1,33,0,,,,,,,,,3417.4306256510317,go,circleblack.png,left,0.45,,,,,,,,,,,,,,,,,,0.0014756806194782257,0.4880996383726597,,3419.933075014502,test,2,,,,,,,3417.4497434422374,3417.945028256625,3417.945028256625,3417.961741436273,3418.3953487835824,3418.8958027288318,3418.9459283538163,3419.9522170349956,left,1,0.6259072162210941,0.45,,,,,,,,,,,s017,001,2024-07-22_17h45.01.681,simplestop_skeleton,2022.2.2,59.885107615096786,
None,None,,,,,,,,,1,0,1,0,8,2,34,3,,,,,,,,,3419.9335470683873,go,circleblack.png,left,0.45,,,,,,,,,,,,,,,,,,0.0013748519122600555,0.48948655277490616,,3422.434197604656,test,2,,,,,,,3419.9522170349956,3420.4494067020714,3420.4494067020714,3420.4657408371568,3420.8998638279736,3421.4004498682916,3421.448913246393,3422.4514578692615,left,1,0.7121896669268608,0.45,,,,,,,,,,,s017,001,2024-07-22_17h45.01.681,simplestop_skeleton,2022.2.2,59.885107615096786,
None,None,,,,,,,,,1,0,1,0,8,3,35,3,,,,,,,,,3422.4346322268248,go,squareblack.png,right,0.45,,,,,,,,,,,,,,,,,,0.0016386210918426514,0.48989925161004066,,3424.938433781266,test,2,,,,,,,3422.4514578692615,3422.950322519988,3422.950322519988,3422.9670180231333,3423.4013447351754,3423.9013615250587,3423.951389528811,3424.9576547183096,right,1,0.6931974999606609,0.45,,,,,,,,,,,s017,001,2024-07-22_17h45.01.681,simplestop_skeleton,2022.2.2,59.885107615096786,
None,None,,,,,,,,,1,0,1,0,9,0,36,1,,,,,,,,,3424.938895624131,go,squareblack.png,right,0.45,,,,,,,,,,,,,,,,,,0.0013295561075210571,0.48945916444063187,,3427.4406939931214,test,2,,,,,,,3424.9576547183096,3425.4544902555645,3425.4544902555645,3425.4712413698435,3425.905064139515,3426.404133643955,3426.4541034027934,3427.458715353161,right,1,0.4782423749566078,0.45,,,,,,,,,,,s017,001,2024-07-22_17h45.01.681,simplestop_skeleton,2022.2.2,59.885107615096786,
None,None,,,,,,,,,1,0,1,0,9,1,37,2,,,,,,,,,3427.4415131770074,stop,squareblack.png,right,0.45,,,,,,,,,,,,,,,,,,0.0013189613819122314,0.487846065312624,0.9383930936455727,3429.943864773959,test,2,,,,,,,3427.458715353161,3427.9558510780334,3427.9558510780334,3427.972549099475,3428.406321953982,3428.9086892716587,3428.957735784352,3429.962656311691,right,1,0.4887953996658325,0.4,,,,,,,,,,,s017,001,2024-07-22_17h45.01.681,simplestop_skeleton,2022.2.2,59.885107615096786,
None,None,,,,,,,,,1,0,1,0,9,2,38,2,,,,,,,,,3429.944308564067,go,squareblack.png,right,0.4,,,,,,,,,,,,,,,,,,0.0011852569878101349,0.48990398645401,,3432.4453187435865,test,2,,,,,,,3429.962656311691,3430.4599690251052,3430.4599690251052,3430.4767508506775,3430.860449567437,3431.3598361238837,3431.4597118645906,3432.4622461646795,right,1,0.5458863154053688,0.4,,,,,,,,,,,s017,001,2024-07-22_17h45.01.681,simplestop_skeleton,2022.2.2,59.885107615096786,
None,None,,,,,,,,,1,0,1,0,9,3,39,2,,,,,,,,,3432.445780724287,go,squareblack.png,right,0.4,,,,,,,,,,,,,,,,,,0.0012069344520568848,0.4897589236497879,,3434.9494123235345,test,2,,,,,,,3432.4622461646795,3432.9613681212068,3432.9613681212068,3432.9613681212068,3433.3622918091714,3433.8623712696135,3433.962452210486,3434.968498352915,right,1,0.47499876841902733,0.4,,,,,,,,,,,s017,001,2024-07-22_17h45.01.681,simplestop_skeleton,2022.2.2,59.885107615096786,
None,None,,,,,,,,,1,0,1,0,10,0,40,1,,,,,,,,,3434.9498997442424,go,squareblack.png,right,0.4,,,,,,,,,,,,,,,,,,0.0011945702135562897,0.4896971546113491,,3437.4510394111276,test,2,,,,,,,3434.968498352915,3435.4656458869576,3435.4656458869576,3435.4824145436287,3435.8664159812033,3436.381906107068,3436.4651577174664,3437.470181476325,right,1,0.3873574733734131,0.4,,,,,,,,,,,s017,001,2024-07-22_17h45.01.681,simplestop_skeleton,2022.2.2,59.885107615096786,
None,None,,,,,,,,,1,0,1,0,10,1,41,3,,,,,,,,,3437.451490819454,go,circleblack.png,left,0.4,,,,,,,,,,,,,,,,,,0.0036862678825855255,0.49109987542033195,,3439.9536645896733,test,2,,,,,,,3437.470181476325,3437.9683517701924,3437.9683517701924,3437.9849694035947,3438.368791591376,3438.8681175224483,3438.9679284617305,3439.970381807536,left,1,0.5883839949965477,0.4,,,,,,,,,,,s017,001,2024-07-22_17h45.01.681,simplestop_skeleton,2022.2.2,59.885107615096786,
None,None,,,,,,,,,1,0,1,0,10,2,42,2,,,,,,,,,3439.954189442098,go,circleblack.png,left,0.4,,,,,,,,,,,,,,,,,,0.001256100833415985,0.4895407371222973,,3442.457244824618,test,2,,,,,,,3439.970381807536,3440.469659563154,3440.469659563154,3440.469659563154,3440.8702515885234,3441.3708143532276,3441.471374411136,3442.4750368855894,left,1,0.5166967771947384,0.4,,,,,,,,,,,s017,001,2024-07-22_17h45.01.681,simplestop_skeleton,2022.2.2,59.885107615096786,
$currentCorrectResponse,$currentGoStim,,,,,,,,,1,0,1,0,10,3,43,0,,,,,,,,,3442.457695003599,stop,squareblack.png,right,0.4,,,,,,,,,,,,,,,,,,0.0017209909856319427,0.4901226684451103,0.8905353918671608,3444.9592084512115,test,2,,,,,,,3442.4750368855894,3442.9738421961665,3442.9738421961665,3442.9906446374953,3443.3746741078794,3443.8748167455196,3443.974886775017,3444.976966805756,None,0,,0.45,,,,,,,,,,,s017,001,2024-07-22_17h45.01.681,simplestop_skeleton,2022.2.2,59.885107615096786,
$currentCorrectResponse,$currentGoStim,,,,,,,,,1,0,1,0,11,0,44,0,,,,,,,,,3444.9596719294786,go,circleblack.png,left,0.45,,,,,,,,,,,,,,,,,,0.002077113837003708,0.48953530192375183,,3447.463108573109,test,2,,,,,,,3444.976966805756,3445.4751514717937,3445.4751514717937,3445.491873830557,3445.925847686827,3446.4262399747968,3446.4763077124953,3447.4792171381414,left,1,0.5614409409463406,0.45,,,,,,,,,,,s017,001,2024-07-22_17h45.01.681,simplestop_skeleton,2022.2.2,59.885107615096786,
None,None,,,,,,,,,1,0,1,0,11,1,45,1,,,,,,,,,3447.463557433337,stop,circleblack.png,left,0.45,,,,,,,,,,,,,,,,,,0.001306980848312378,0.4900783598423004,0.940457995980978,3449.965467199683,test,2,,,,,,,3447.4792171381414,3447.979503110051,3447.979503110051,3447.979503110051,3448.430487561971,3448.9456377364695,3448.9790973328054,3449.982328109443,left,1,0.4413455203175545,0.4,,,,,,,,,,,s017,001,2024-07-22_17h45.01.681,simplestop_skeleton,2022.2.2,59.885107615096786,
None,None,,,,,,,,,1,0,1,0,11,2,46,1,,,,,,,,,3449.9659997671843,stop,circleblack.png,left,0.4,,,,,,,,,,,,,,,,,,0.0012344084680080414,0.48879481479525566,0.8891588374972343,3452.4688178263605,test,2,,,,,,,3449.982328109443,3450.4809684567153,3450.4809684567153,3450.4978870488703,3450.8813188150525,3451.382346946746,3451.482842259109,3452.4880381152034,left,1,0.31809382140636444,0.35,,,,,,,,,,,s017,001,2024-07-22_17h45.01.681,simplestop_skeleton,2022.2.2,59.885107615096786,
$currentCorrectResponse,$currentGoStim,,,,,,,,,1,0,1,0,11,3,47,0,,,,,,,,,3452.469258464873,go,circleblack.png,left,0.35,,,,,,,,,,,,,,,,,,0.0013838522136211395,0.49037041515111923,,3454.9702211245894,test,2,,,,,,,3452.4880381152034,3452.9849621243775,3452.9849621243775,3453.0020127110183,3453.335384670645,3453.8362561389804,3453.9847463555634,3454.986823555082,left,1,0.6987374424934387,0.35,,,,,,,,,,,s017,001,2024-07-22_17h45.01.681,simplestop_skeleton,2022.2.2,59.885107615096786,
,,,,,,,,,,1,0,1,0,,,,,,,,,,,,,,,,,,,,,,,,,,,,,,,,,,,,,,,,,,,,,,,,,,,,,,,,,,,3454.986823555082,3454.986823555082,return,4.482194345444441,"[{'fileName': 'squareblack.png', 'correct_response': 'right', 'condition': 'go'}, {'fileName': 'circleblack.png', 'correct_response': 'left', 'condition': 'stop'}, {'fileName': 'circleblack.png', 'correct_response': 'left', 'condition': 'go'}, {'fileName': 'circleblack.png', 'correct_response': 'left', 'condition': 'go'}, {'fileName': 'circleblack.png', 'correct_response': 'left', 'condition': 'stop'}, {'fileName': 'squareblack.png', 'correct_response': 'right', 'condition': 'go'}, {'fileName': 'circleblack.png', 'correct_response': 'left', 'condition': 'go'}, {'fileName': 'squareblack.png', 'correct_response': 'right', 'condition': 'go'}, {'fileName': 'squareblack.png', 'correct_response': 'right', 'condition': 'go'}, {'fileName': 'circleblack.png', 'correct_response': 'left', 'condition': 'go'}, {'fileName': 'squareblack.png', 'correct_response': 'right', 'condition': 'stop'}, {'fileName': 'squareblack.png', 'correct_response': 'right', 'condition': 'stop'}, {'fileName': 'circleblack.png', 'correct_response': 'left', 'condition': 'go'}, {'fileName': 'squareblack.png', 'correct_response': 'right', 'condition': 'go'}, {'fileName': 'squareblack.png', 'correct_response': 'right', 'condition': 'go'}, {'fileName': 'circleblack.png', 'correct_response': 'left', 'condition': 'stop'}, {'fileName': 'squareblack.png', 'correct_response': 'right', 'condition': 'go'}, {'fileName': 'circleblack.png', 'correct_response': 'left', 'condition': 'go'}, {'fileName': 'squareblack.png', 'correct_response': 'right', 'condition': 'stop'}, {'fileName': 'circleblack.png', 'correct_response': 'left', 'condition': 'go'}, {'fileName': 'circleblack.png', 'correct_response': 'left', 'condition': 'stop'}, {'fileName': 'circleblack.png', 'correct_response': 'left', 'condition': 'go'}, {'fileName': 'squareblack.png', 'correct_response': 'right', 'condition': 'stop'}, {'fileName': 'squareblack.png', 'correct_response': 'right', 'condition': 'go'}, {'fileName': 'squareblack.png', 'correct_response': 'right', 'condition': 'go'}, {'fileName': 'squareblack.png', 'correct_response': 'right', 'condition': 'go'}, {'fileName': 'circleblack.png', 'correct_response': 'left', 'condition': 'go'}, {'fileName': 'squareblack.png', 'correct_response': 'right', 'condition': 'stop'}, {'fileName': 'circleblack.png', 'correct_response': 'left', 'condition': 'go'}, {'fileName': 'squareblack.png', 'correct_response': 'right', 'condition': 'stop'}, {'fileName': 'squareblack.png', 'correct_response': 'right', 'condition': 'go'}, {'fileName': 'circleblack.png', 'correct_response': 'left', 'condition': 'go'}, {'fileName': 'circleblack.png', 'correct_response': 'left', 'condition': 'stop'}, {'fileName': 'squareblack.png', 'correct_response': 'right', 'condition': 'go'}, {'fileName': 'circleblack.png', 'correct_response': 'left', 'condition': 'stop'}, {'fileName': 'circleblack.png', 'correct_response': 'left', 'condition': 'go'}, {'fileName': 'circleblack.png', 'correct_response': 'left', 'condition': 'stop'}, {'fileName': 'circleblack.png', 'correct_response': 'left', 'condition': 'go'}, {'fileName': 'squareblack.png', 'correct_response': 'right', 'condition': 'go'}, {'fileName': 'circleblack.png', 'correct_response': 'left', 'condition': 'go'}, {'fileName': 'squareblack.png', 'correct_response': 'right', 'condition': 'go'}, {'fileName': 'squareblack.png', 'correct_response': 'right', 'condition': 'stop'}, {'fileName': 'squareblack.png', 'correct_response': 'right', 'condition': 'go'}, {'fileName': 'circleblack.png', 'correct_response': 'left', 'condition': 'go'}, {'fileName': 'circleblack.png', 'correct_response': 'left', 'condition': 'go'}, {'fileName': 'squareblack.png', 'correct_response': 'right', 'condition': 'go'}, {'fileName': 'squareblack.png', 'correct_response': 'right', 'condition': 'stop'}, {'fileName': 'circleblack.png', 'correct_response': 'left', 'condition': 'stop'}]",,,,,,s017,001,2024-07-22_17h45.01.681,simplestop_skeleton,2022.2.2,59.885107615096786,
None,None,,,,,,,,,2,0,2,0,0,0,0,3,,,,,,,,,3459.4934645555913,go,squareblack.png,right,0.35,,,,,,,,,,,,,,,,,,0.0025615207850933075,0.48961950838565826,,3461.9963337294757,test,3,,,,,,,3459.5137786641717,3460.009437341243,3460.009437341243,3460.026187736541,3460.359946154058,3460.86050228402,3461.010517768562,3462.016218751669,right,1,0.6245444007217884,0.35,,,,,,,,,,,s017,001,2024-07-22_17h45.01.681,simplestop_skeleton,2022.2.2,59.885107615096786,
None,None,,,,,,,,,2,0,2,0,0,1,1,1,,,,,,,,,3461.996908709407,stop,circleblack.png,left,0.35,,,,,,,,,,,,,,,,,,0.002701491117477417,0.488957904279232,0.8394800759851933,3464.4975362606347,test,3,,,,,,,3462.016218751669,3462.512198779732,3462.512198779732,3462.5288384519517,3462.8625036999583,3463.3634846694767,3463.5116662941873,3464.5142471902072,left,1,0.5226930603384972,0.3,,,,,,,,,,,s017,001,2024-07-22_17h45.01.681,simplestop_skeleton,2022.2.2,59.885107615096786,
None,None,,,,,,,,,2,0,2,0,0,2,2,2,,,,,,,,,3464.4979747645557,go,circleblack.png,left,0.3,,,,,,,,,,,,,,,,,,0.0012553110718727112,0.4895303174853325,,3467.001496706158,test,3,,,,,,,3464.5142471902072,3465.013327103108,3465.013327103108,3465.013327103108,3465.3136922717094,3465.8142159953713,3466.014438342303,3467.020470418036,left,1,0.4080029986798763,0.3,,,,,,,,,,,s017,001,2024-07-22_17h45.01.681,simplestop_skeleton,2022.2.2,59.885107615096786,
None,None,,,,,,,,,2,0,2,0,0,3,3,3,,,,,,,,,3467.0019282884896,go,circleblack.png,left,0.3,,,,,,,,,,,,,,,,,,0.0013523325324058533,0.49000871554017067,,3469.503988750279,test,3,,,,,,,3467.020470418036,3467.51780058071,3467.51780058071,3467.534430682659,3467.8181961104274,3468.3171522431076,3468.517429612577,3469.520673766732,left,1,0.3047834485769272,0.3,,,,,,,,,,,s017,001,2024-07-22_17h45.01.681,simplestop_skeleton,2022.2.2,59.885107615096786,
$currentCorrectResponse,$currentGoStim,,,,,,,,,2,0,2,0,1,0,4,0,,,,,,,,,3469.504449967295,stop,circleblack.png,left,0.3,,,,,,,,,,,,,,,,,,0.0013047344982624054,0.4900311417877674,0.7907320894300938,3472.0060113966465,test,3,,,,,,,3469.520673766732,3470.020741775632,3470.020741775632,3470.020741775632,3470.320902220905,3470.8199697472155,3471.0200501941144,3472.0287434756756,left,1,0.4673739932477474,0.25,,,,,,,,,,,s017,001,2024-07-22_17h45.01.681,simplestop_skeleton,2022.2.2,59.885107615096786,
$currentCorrectResponse,$currentGoStim,,,,,,,,,2,0,2,0,1,1,5,0,,,,,,,,,3472.006451841444,go,squareblack.png,right,0.25,,,,,,,,,,,,,,,,,,0.00741901621222496,0.4913618490099907,,3474.5102524496615,test,3,,,,,,,3472.0287434756756,3472.5235683359206,3472.5235683359206,3472.540109947324,3472.7720196582377,3473.2727109119296,3473.5228873305023,3474.531115490943,right,1,0.6433041878044605,0.25,,,,,,,,,,,s017,001,2024-07-22_17h45.01.681,simplestop_skeleton,2022.2.2,59.885107615096786,
None,None,,,,,,,,,2,0,2,0,1,2,6,2,,,,,,,,,3474.5107257291675,go,circleblack.png,left,0.25,,,,,,,,,,,,,,,,,,0.0028011389076709747,0.4874916411936283,,3477.013164471835,test,3,,,,,,,3474.531115490943,3475.0246018841863,3475.0246018841863,3475.0416806302965,3475.275766581297,3475.7756185159087,3476.0266008898616,3477.0338974893093,left,1,0.6358899623155594,0.25,,,,,,,,,,,s017,001,2024-07-22_17h45.01.681,simplestop_skeleton,2022.2.2,59.885107615096786,
None,None,,,,,,,,,2,0,2,0,1,3,7,2,,,,,,,,,3477.0136343091726,go,squareblack.png,right,0.25,,,,,,,,,,,,,,,,,,0.002690467983484268,0.4879353642463684,,3479.5139387734234,test,3,,,,,,,3477.0338974893093,3477.5274219438434,3477.5274219438434,3477.5439378879964,3477.777980301529,3478.277991462499,3478.528955243528,3479.532254152,right,1,0.47978975623846054,0.25,,,,,,,,,,,s017,001,2024-07-22_17h45.01.681,simplestop_skeleton,2022.2.2,59.885107615096786,
$currentCorrectResponse,$currentGoStim,,,,,,,,,2,0,2,0,2,0,8,0,,,,,,,,,3479.5145658887923,go,squareblack.png,right,0.25,,,,,,,,,,,,,,,,,,0.0011834092438220978,0.4892429709434509,,3482.0179301537573,test,3,,,,,,,3479.532254152,3480.030059084296,3480.030059084296,3480.04682386294,3480.2802798449993,3480.7809437960386,3481.031157977879,3482.037294909358,right,1,0.5221204310655594,0.25,,,,,,,,,,,s017,001,2024-07-22_17h45.01.681,simplestop_skeleton,2022.2.2,59.885107615096786,
None,None,,,,,,,,,2,0,2,0,2,1,9,3,,,,,,,,,3482.0183580443263,go,circleblack.png,left,0.25,,,,,,,,,,,,,,,,,,0.0018457919359207153,0.49016230180859566,,3484.51995241642,test,3,,,,,,,3482.037294909358,3482.535200960934,3482.535200960934,3482.5509332083166,3482.7845720872283,3483.2838828265667,3483.648234616965,3484.5374366529286,left,1,0.4565444327890873,0.25,,,,,,,,,,,s017,001,2024-07-22_17h45.01.681,simplestop_skeleton,2022.2.2,59.885107615096786,
$currentCorrectResponse,$currentGoStim,,,,,,,,,2,0,2,0,2,2,10,0,,,,,,,,,3484.520424608141,stop,squareblack.png,right,0.25,,,,,,,,,,,,,,,,,,0.0015993043780326843,0.4892316162586212,0.739479698240757,3487.0225002355874,test,3,,,,,,,3484.5374366529286,3485.035710133612,3485.035710133612,3485.0522754862905,3485.2861459329724,3485.7865676805377,3486.036760073155,3487.0535491146147,None,0,,0.3,,,,,,,,,,,s017,001,2024-07-22_17h45.01.681,simplestop_skeleton,2022.2.2,59.885107615096786,
None,None,,,,,,,,,2,0,2,0,2,3,11,2,,,,,,,,,3487.0229612104595,stop,squareblack.png,right,0.3,,,,,,,,,,,,,,,,,,0.0011814720928668976,0.4893825463950634,0.7897096127271652,3489.525158274919,test,3,,,,,,,3487.0535491146147,3487.538347635418,3487.538347635418,3487.555062107742,3487.83888650313,3488.339207034558,3488.539541501552,3489.543152682483,None,0,,0.35,,,,,,,,,,,s017,001,2024-07-22_17h45.01.681,simplestop_skeleton,2022.2.2,59.885107615096786,
None,None,,,,,,,,,2,0,2,0,3,0,12,2,,,,,,,,,3489.5256210304797,go,circleblack.png,left,0.35,,,,,,,,,,,,,,,,,,0.0018769390881061554,0.4896285831928253,,3492.0278841145337,test,3,,,,,,,3489.543152682483,3490.040974508971,3490.040974508971,3490.0577450208366,3490.391668461263,3490.8922687880695,3491.0422503761947,3492.0455008484423,left,1,0.7631925195455551,0.35,,,,,,,,,,,s017,001,2024-07-22_17h45.01.681,simplestop_skeleton,2022.2.2,59.885107615096786,
None,None,,,,,,,,,2,0,2,0,3,1,13,3,,,,,,,,,3492.0283626951277,go,squareblack.png,right,0.35,,,,,,,,,,,,,,,,,,0.0016119591891765594,0.4896564409136772,,3494.531128898263,test,3,,,,,,,3492.0455008484423,3492.5440204814076,3492.5440204814076,3492.5608810707927,3492.8944329470396,3493.395022969693,3493.545635446906,3494.5494823642075,right,1,0.7602949291467667,0.35,,,,,,,,,,,s017,001,2024-07-22_17h45.01.681,simplestop_skeleton,2022.2.2,59.885107615096786,
$currentCorrectResponse,$currentGoStim,,,,,,,,,2,0,2,0,3,2,14,0,,,,,,,,,3494.5317448228598,go,squareblack.png,right,0.35,,,,,,,,,,,,,,,,,,0.0014985278248786926,0.4884478636085987,,3497.0332720056176,test,3,,,,,,,3494.5494823642075,3495.0465132519603,3495.0465132519603,3495.06339327991,3495.3968723118305,3495.8976889401674,3496.0478287898004,3497.0512733757496,right,1,0.47678133472800255,0.35,,,,,,,,,,,s017,001,2024-07-22_17h45.01.681,simplestop_skeleton,2022.2.2,59.885107615096786,
None,None,,,,,,,,,2,0,2,0,3,3,15,3,,,,,,,,,3497.0337096191943,stop,circleblack.png,left,0.35,,,,,,,,,,,,,,,,,,0.0017962343990802765,0.4899085871875286,0.8398376516997814,3499.5360419899225,test,3,,,,,,,3497.0512733757496,3497.5493268854916,3497.5493268854916,3497.5662643946707,3497.899836104363,3498.4007853791118,3498.5511336401105,3499.553323801607,None,0,,0.4,,,,,,,,,,,s017,001,2024-07-22_17h45.01.681,simplestop_skeleton,2022.2.2,59.885107615096786,
None,None,,,,,,,,,2,0,2,0,4,0,16,3,,,,,,,,,3499.5364785045385,go,squareblack.png,right,0.4,,,,,,,,,,,,,,,,,,0.001595478504896164,0.48963018879294395,,3502.038758262992,test,3,,,,,,,3499.553323801607,3500.05189794302,3500.05189794302,3500.0686260275543,3500.4525563269854,3500.953028060496,3501.053094126284,3502.0562531538308,right,1,0.5063369013369083,0.4,,,,,,,,,,,s017,001,2024-07-22_17h45.01.681,simplestop_skeleton,2022.2.2,59.885107615096786,
None,None,,,,,,,,,2,0,2,0,4,1,17,2,,,,,,,,,3502.039205234498,go,circleblack.png,left,0.4,,,,,,,,,,,,,,,,,,0.001778487116098404,0.49137724190950394,,3504.5417220667005,test,3,,,,,,,3502.0562531538308,3502.5564335547388,3502.5564335547388,3502.5564335547388,3502.956869531423,3503.4573433175683,3503.5578338727355,3504.558923110366,left,1,0.4925791546702385,0.4,,,,,,,,,,,s017,001,2024-07-22_17h45.01.681,simplestop_skeleton,2022.2.2,59.885107615096786,
None,None,,,,,,,,,2,0,2,0,4,2,18,3,,,,,,,,,3504.5421584248543,stop,squareblack.png,right,0.4,,,,,,,,,,,,,,,,,,0.0015899427235126495,0.49019090831279755,0.8899564892053604,3507.04587996006,test,3,,,,,,,3504.558923110366,3505.0581048429012,3505.0581048429012,3505.0581048429012,3505.4580808095634,3505.958909776062,3506.058732226491,3507.065877504647,None,0,,0.45,,,,,,,,,,,s017,001,2024-07-22_17h45.01.681,simplestop_skeleton,2022.2.2,59.885107615096786,
None,None,,,,,,,,,2,0,2,0,4,3,19,1,,,,,,,,,3507.0463183000684,go,circleblack.png,left,0.45,,,,,,,,,,,,,,,,,,0.002605956047773361,0.48939577117562294,,3509.5471650213003,test,3,,,,,,,3507.065877504647,3507.562067974359,3507.562067974359,3507.578606661409,3508.0124154649675,3508.5129111669958,3508.5629414878786,3509.5650114268064,left,1,0.4569809250533581,0.45,,,,,,,,,,,s017,001,2024-07-22_17h45.01.681,simplestop_skeleton,2022.2.2,59.885107615096786,
None,None,,,,,,,,,2,0,2,0,5,0,20,3,,,,,,,,,3509.5475924797356,stop,circleblack.png,left,0.45,,,,,,,,,,,,,,,,,,0.0014461949467658997,0.4896557815372944,0.9403290413320065,3512.0510045029223,test,3,,,,,,,3509.5650114268064,3510.0631483085454,3510.0631483085454,3510.079826004803,3510.51403689757,3511.0142195746303,3511.0643063895404,3512.0678986646235,left,1,0.4746554084122181,0.4,,,,,,,,,,,s017,001,2024-07-22_17h45.01.681,simplestop_skeleton,2022.2.2,59.885107615096786,
None,None,,,,,,,,,2,0,2,0,5,1,21,3,,,,,,,,,3512.051452409476,go,circleblack.png,left,0.4,,,,,,,,,,,,,,,,,,0.0012847036123275757,0.4901757836341858,,3514.5552842617035,test,3,,,,,,,3512.0678986646235,3512.5674629844725,3512.5674629844725,3512.5674629844725,3512.9680435173213,3513.4683365523815,3513.568533360958,3514.579325798899,left,1,0.6362385265529156,0.4,,,,,,,,,,,s017,001,2024-07-22_17h45.01.681,simplestop_skeleton,2022.2.2,59.885107615096786,
None,None,,,,,,,,,2,0,2,0,5,2,22,1,,,,,,,,,3514.5559496991336,stop,squareblack.png,right,0.4,,,,,,,,,,,,,,,,,,0.002560354769229889,0.4834666885435581,0.885140910744667,3517.0568837560713,test,3,,,,,,,3514.579325798899,3515.068700887263,3515.068700887263,3515.0853774659336,3515.47052834183,3515.9710384495556,3516.0716422349215,3517.075837470591,right,1,0.5371735878288746,0.35,,,,,,,,,,,s017,001,2024-07-22_17h45.01.681,simplestop_skeleton,2022.2.2,59.885107615096786,
None,None,,,,,,,,,2,0,2,0,5,3,23,1,,,,,,,,,3517.057321857661,go,squareblack.png,right,0.35,,,,,,,,,,,,,,,,,,0.001390952616930008,0.48948878422379494,,3519.560042474419,test,3,,,,,,,3517.075837470591,3517.5733213052154,3517.5733213052154,3517.589777458459,3517.9233375974,3518.423816025257,3518.5741833895445,3519.5791266970336,right,1,0.6425006054341793,0.35,,,,,,,,,,,s017,001,2024-07-22_17h45.01.681,simplestop_skeleton,2022.2.2,59.885107615096786,
None,None,,,,,,,,,2,0,2,0,6,0,24,1,,,,,,,,,3519.5604710951447,go,squareblack.png,right,0.35,,,,,,,,,,,,,,,,,,0.0013587959110736847,0.4890162758529186,,3522.062795780599,test,3,,,,,,,3519.5791266970336,3520.075613681227,3520.075613681227,3520.092534247786,3520.4260114990175,3520.926630910486,3521.07679034397,3522.0840816907585,right,1,0.7234448716044426,0.35,,,,,,,,,,,s017,001,2024-07-22_17h45.01.681,simplestop_skeleton,2022.2.2,59.885107615096786,
None,None,,,,,,,,,2,0,2,0,6,1,25,1,,,,,,,,,3522.0632648281753,go,squareblack.png,right,0.35,,,,,,,,,,,,,,,,,,0.0014274269342422485,0.4866075739264488,,3524.5653441250324,test,3,,,,,,,3522.0840816907585,3522.5788150578737,3522.5788150578737,3522.595556177199,3522.927333638072,3523.427934538573,3523.5781009718776,3524.590874902904,right,1,0.3756793141365051,0.35,,,,,,,,,,,s017,001,2024-07-22_17h45.01.681,simplestop_skeleton,2022.2.2,59.885107615096786,
$currentCorrectResponse,$currentGoStim,,,,,,,,,2,0,2,0,6,2,26,0,,,,,,,,,3524.565786872059,go,circleblack.png,left,0.35,,,,,,,,,,,,,,,,,,0.008697528392076492,0.48952145129442215,,3527.06777465716,test,3,,,,,,,3524.590874902904,3525.081236205995,3525.081236205995,3525.097850225866,3525.431628141552,3525.932190913707,3526.0826351083815,3527.086996793747,left,1,0.5478212274610996,0.35,,,,,,,,,,,s017,001,2024-07-22_17h45.01.681,simplestop_skeleton,2022.2.2,59.885107615096786,
None,None,,,,,,,,,2,0,2,0,6,3,27,2,,,,,,,,,3527.0681993328035,stop,squareblack.png,right,0.35,,,,,,,,,,,,,,,,,,0.0017403848469257355,0.4897051267325878,0.8403799645602703,3529.5706866271794,test,3,,,,,,,3527.086996793747,3527.583968348801,3527.583968348801,3527.600668039173,3527.934362746775,3528.43496805802,3528.5851458646357,3529.590125359595,None,0,,0.4,,,,,,,,,,,s017,001,2024-07-22_17h45.01.681,simplestop_skeleton,2022.2.2,59.885107615096786,
None,None,,,,,,,,,2,0,2,0,7,0,28,1,,,,,,,,,3529.5712102390826,go,circleblack.png,left,0.4,,,,,,,,,,,,,,,,,,0.0019063949584960938,0.4894711412489414,,3532.0735110491514,test,3,,,,,,,3529.590125359595,3530.0869685076177,3530.0869685076177,3530.1034948043525,3530.487110711634,3530.987704731524,3531.087969634682,3532.092668045312,left,1,0.4515725299715996,0.4,,,,,,,,,,,s017,001,2024-07-22_17h45.01.681,simplestop_skeleton,2022.2.2,59.885107615096786,
None,None,,,,,,,,,2,0,2,0,7,1,29,3,,,,,,,,,3532.0739507451653,stop,squareblack.png,right,0.4,,,,,,,,,,,,,,,,,,0.0015666820108890533,0.48975611478090286,0.8901985213160515,3534.5748907104135,test,3,,,,,,,3532.092668045312,3532.58933782205,3532.58933782205,3532.6061251685023,3532.9899902567267,3533.490794416517,3533.5891512334347,3534.59182722494,right,1,0.5417394861578941,0.35,,,,,,,,,,,s017,001,2024-07-22_17h45.01.681,simplestop_skeleton,2022.2.2,59.885107615096786,
None,None,,,,,,,,,2,0,2,0,7,2,30,2,,,,,,,,,3534.5753403156996,go,squareblack.png,right,0.35,,,,,,,,,,,,,,,,,,0.0011873990297317505,0.4895927459001541,,3537.079074088484,test,3,,,,,,,3534.59182722494,3535.0907415784895,3535.0907415784895,3535.0907415784895,3535.4411899633706,3535.942072365433,3536.092174369842,3537.098666213453,right,1,0.7601570524275303,0.35,,,,,,,,,,,s017,001,2024-07-22_17h45.01.681,simplestop_skeleton,2022.2.2,59.885107615096786,
None,None,,,,,,,,,2,0,2,0,7,3,31,1,,,,,,,,,3537.0794996470213,go,circleblack.png,left,0.35,,,,,,,,,,,,,,,,,,0.0019331015646457672,0.4894598387181759,,3539.580520775169,test,3,,,,,,,3537.098666213453,3537.594809856266,3537.594809856266,3537.6117303818464,3537.9454356320202,3538.4458976611495,3538.5958923324943,3539.5975653007627,left,1,0.7564523927867413,0.35,,,,,,,,,,,s017,001,2024-07-22_17h45.01.681,simplestop_skeleton,2022.2.2,59.885107615096786,
$currentCorrectResponse,$currentGoStim,,,,,,,,,2,0,2,0,8,0,32,0,,,,,,,,,3539.580978639424,stop,circleblack.png,left,0.35,,,,,,,,,,,,,,,,,,0.0012289956212043762,0.4890391081571579,0.8399012684822083,3542.0839419588447,test,3,,,,,,,3539.5975653007627,3540.0963060706854,3540.0963060706854,3540.1131055131555,3540.4467966780066,3540.9471747353673,3541.097676191479,3542.101219050586,None,0,,0.4,,,,,,,,,,,s017,001,2024-07-22_17h45.01.681,simplestop_skeleton,2022.2.2,59.885107615096786,
None,None,,,,,,,,,2,0,2,0,8,1,33,1,,,,,,,,,3542.084370829165,go,squareblack.png,right,0.4,,,,,,,,,,,,,,,,,,0.0017406977713108063,0.4900582320988178,,3544.586973514408,test,3,,,,,,,3542.101219050586,3542.6004045642912,3542.6004045642912,3542.6004045642912,3543.0008185468614,3543.5013922713697,3543.6013454422355,3544.606458026916,right,1,0.76267921179533,0.4,,,,,,,,,,,s017,001,2024-07-22_17h45.01.681,simplestop_skeleton,2022.2.2,59.885107615096786,
None,None,,,,,,,,,2,0,2,0,8,2,34,2,,,,,,,,,3544.587406344712,stop,circleblack.png,left,0.4,,,,,,,,,,,,,,,,,,0.0019144155085086823,0.4897380582988262,0.8902250900864601,3547.0899917669594,test,3,,,,,,,3544.606458026916,3545.1033288426697,3545.1033288426697,3545.120120141655,3545.5036143511534,3546.004410672933,3546.1043706722558,3547.108931992203,None,0,,0.45,,,,,,,,,,,s017,001,2024-07-22_17h45.01.681,simplestop_skeleton,2022.2.2,59.885107615096786,
None,None,,,,,,,,,2,0,2,0,8,3,35,1,,,,,,,,,3547.0904268212616,go,circleblack.png,left,0.45,,,,,,,,,,,,,,,,,,0.001473899930715561,0.48975398391485214,,3549.592667326331,test,3,,,,,,,3547.108931992203,3547.6061198040843,3547.6061198040843,3547.622800927609,3548.0567414090037,3548.557441506535,3548.607108525932,3549.611756570637,left,1,0.5205726847052574,0.45,,,,,,,,,,,s017,001,2024-07-22_17h45.01.681,simplestop_skeleton,2022.2.2,59.885107615096786,
None,None,,,,,,,,,2,0,2,0,9,0,36,2,,,,,,,,,3549.593156553805,stop,circleblack.png,left,0.45,,,,,,,,,,,,,,,,,,0.0013984553515911102,0.489861898124218,0.9401534199714661,3552.095876533538,test,3,,,,,,,3549.611756570637,3550.10871842131,3550.10871842131,3550.1255861893296,3550.55926239118,3551.0596612356603,3551.1099059805274,3552.1149913594127,left,1,0.4788966625928879,0.4,,,,,,,,,,,s017,001,2024-07-22_17h45.01.681,simplestop_skeleton,2022.2.2,59.885107615096786,
$currentCorrectResponse,$currentGoStim,,,,,,,,,2,0,2,0,9,1,37,0,,,,,,,,,3552.096300918609,go,circleblack.png,left,0.4,,,,,,,,,,,,,,,,,,0.0013844296336174011,0.48965606465935707,,3554.5981472581625,test,3,,,,,,,3552.1149913594127,3552.6119016855955,3552.6119016855955,3552.628635816276,3553.010488267988,3553.5111824907362,3553.6112250760198,3554.6227695271373,left,1,0.5872476100921631,0.4,,,,,,,,,,,s017,001,2024-07-22_17h45.01.681,simplestop_skeleton,2022.2.2,59.885107615096786,
None,None,,,,,,,,,2,0,2,0,9,2,38,3,,,,,,,,,3554.5985871329904,go,squareblack.png,right,0.4,,,,,,,,,,,,,,,,,,0.0075435638427734375,0.48966259136796,,3557.1009652763605,test,3,,,,,,,3554.6227695271373,3555.1144567653537,3555.1144567653537,3555.1308690980077,3555.5147713944316,3556.015265956521,3556.11535840109,3557.1204359978437,right,1,0.6686177402734756,0.4,,,,,,,,,,,s017,001,2024-07-22_17h45.01.681,simplestop_skeleton,2022.2.2,59.885107615096786,
$currentCorrectResponse,$currentGoStim,,,,,,,,,2,0,2,0,9,3,39,0,,,,,,,,,3557.1013955958188,go,circleblack.png,left,0.4,,,,,,,,,,,,,,,,,,0.0018245726823806763,0.4898396022617817,,3559.603910777718,test,3,,,,,,,3557.1204359978437,3557.6169968545437,3557.6169968545437,3557.6337998770177,3558.0174242444336,3558.518043451011,3558.6183384247124,3559.6231635026634,left,1,0.6570056937634945,0.4,,,,,,,,,,,s017,001,2024-07-22_17h45.01.681,simplestop_skeleton,2022.2.2,59.885107615096786,
None,None,,,,,,,,,2,0,2,0,10,0,40,3,,,,,,,,,3559.604370150715,go,squareblack.png,right,0.4,,,,,,,,,,,,,,,,,,0.001762300729751587,0.48937813565135,,3562.1066971309483,test,3,,,,,,,3559.6231635026634,3560.1198398396373,3560.1198398396373,3560.136707957834,3560.520480699837,3561.0208934284747,3561.1210417859256,3562.1254172585905,right,1,0.5350039787590504,0.4,,,,,,,,,,,s017,001,2024-07-22_17h45.01.681,simplestop_skeleton,2022.2.2,59.885107615096786,
None,None,,,,,,,,,2,0,2,0,10,1,41,2,,,,,,,,,3562.1071315407753,stop,squareblack.png,right,0.4,,,,,,,,,,,,,,,,,,0.0012754127383232117,0.4895715266466141,0.8901194706559181,3564.6082205958664,test,3,,,,,,,3562.1254172585905,3562.6225519366562,3562.6225519366562,3562.6394230611622,3563.023006685078,3563.523480858654,3563.6239065118134,3564.625543348491,None,0,,0.45,,,,,,,,,,,s017,001,2024-07-22_17h45.01.681,simplestop_skeleton,2022.2.2,59.885107615096786,
$currentCorrectResponse,$currentGoStim,,,,,,,,,2,0,2,0,10,2,42,0,,,,,,,,,3564.608678098768,go,squareblack.png,right,0.45,,,,,,,,,,,,,,,,,,0.0013218596577644348,0.4886920265853405,,3567.1119538508356,test,3,,,,,,,3564.625543348491,3565.124272417277,3565.124272417277,3565.141053751111,3565.574425999075,3566.0750880762935,3566.1255207173526,3567.1317050457,right,1,0.6909936033189297,0.45,,,,,,,,,,,s017,001,2024-07-22_17h45.01.681,simplestop_skeleton,2022.2.2,59.885107615096786,
None,None,,,,,,,,,2,0,2,0,10,3,43,2,,,,,,,,,3567.1123925969005,go,circleblack.png,left,0.45,,,,,,,,,,,,,,,,,,0.0020344890654087067,0.48971134796738625,,3569.6134454496205,test,3,,,,,,,3567.1317050457,3567.628208000213,3567.628208000213,3567.6446874439716,3568.078864183277,3568.579332873225,3568.6292241364717,3569.6306037567556,left,1,0.5885943546891212,0.45,,,,,,,,,,,s017,001,2024-07-22_17h45.01.681,simplestop_skeleton,2022.2.2,59.885107615096786,
$currentCorrectResponse,$currentGoStim,,,,,,,,,2,0,2,0,11,0,44,0,,,,,,,,,3569.613896023482,go,circleblack.png,left,0.45,,,,,,,,,,,,,,,,,,0.0012685582041740417,0.48956166952848434,,3572.1168002821505,test,3,,,,,,,3569.6306037567556,3570.1295713819563,3570.1295713819563,3570.1462045907974,3570.580100238323,3571.080571938306,3571.1306705400348,3572.134748734534,left,1,0.6240350529551506,0.45,,,,,,,,,,,s017,001,2024-07-22_17h45.01.681,simplestop_skeleton,2022.2.2,59.885107615096786,
None,None,,,,,,,,,2,0,2,0,11,1,45,1,,,,,,,,,3572.117233749479,go,squareblack.png,right,0.45,,,,,,,,,,,,,,,,,,0.001676812767982483,0.4903446324169636,,3574.620361890644,test,3,,,,,,,3572.134748734534,3572.633576001972,3572.633576001972,3572.6502848267555,3573.0841659083962,3573.583164025098,3573.633305389434,3574.6381980143487,right,1,0.56440220028162,0.45,,,,,,,,,,,s017,001,2024-07-22_17h45.01.681,simplestop_skeleton,2022.2.2,59.885107615096786,
$currentCorrectResponse,$currentGoStim,,,,,,,,,2,0,2,0,11,2,46,0,,,,,,,,,3574.620793815702,stop,squareblack.png,right,0.45,,,,,,,,,,,,,,,,,,0.0014117956161499023,0.48813532292842865,0.9385409653186798,3577.123187854886,test,3,,,,,,,3574.6381980143487,3575.1351756192744,3575.1351756192744,3575.1517418175936,3575.585317283869,3576.0858565308154,3576.1358580626547,3577.1435007341206,right,1,0.6014737784862518,0.4,,,,,,,,,,,s017,001,2024-07-22_17h45.01.681,simplestop_skeleton,2022.2.2,59.885107615096786,
None,None,,,,,,,,,2,0,2,0,11,3,47,1,,,,,,,,,3577.123642832041,stop,circleblack.png,left,0.4,,,,,,,,,,,,,,,,,,0.0026730820536613464,0.4885508306324482,0.8893292993307114,3579.6245759129524,test,3,,,,,,,3577.1435007341206,3577.639012053609,3577.639012053609,3577.6558027528226,3578.03948193416,3578.538665138185,3578.6386455968022,3579.6399319805205,left,1,0.4903704524040222,0.35,,,,,,,,,,,s017,001,2024-07-22_17h45.01.681,simplestop_skeleton,2022.2.2,59.885107615096786,
