corrGoResp,shape,practiceBlocks.thisRepN,practiceBlocks.thisTrialN,practiceBlocks.thisN,practiceBlocks.thisIndex,practiceTrials.thisRepN,practiceTrials.thisTrialN,practiceTrials.thisN,practiceTrials.thisIndex,stopBlocks.thisRepN,stopBlocks.thisTrialN,stopBlocks.thisN,stopBlocks.thisIndex,testTrials.thisRepN,testTrials.thisTrialN,testTrials.thisN,testTrials.thisIndex,stopPracTrialList,Test Block: 1,welcome.started,start_exp.started,start_exp.keys,start_exp.rt,instrStopText.started,start_prac.started,StartTrialTimeStamp,trialType,goStim,correctResponse,ssd,fixation.started,rules.started,goStim.started,goResp.started,fixation.stopped,stopSignal.started,stopSignal.stopped,goStim.stopped,goResp.stopped,rules.stopped,goResp.keys,goResp.corr,goResp.rt,text.started,rules_2.started,text.stopped,rules_2.stopped,fixationOnset,goStimOnset,stopSignalOnset,EndTrialTimeStamp,Phase,Block,text_5.started,key_resp_3.started,key_resp_3.keys,key_resp_3.rt,key_resp.started,testText.started,test_fixation.started,goStim_test.started,goResp_test.started,test_fixation.stopped,stopSignal_test.started,stopSignal_test.stopped,goStim_test.stopped,goResp_test.stopped,goResp_test.keys,goResp_test.corr,goResp_test.rt,EndingSSD,text_6.started,key_resp_4.started,key_resp_4.keys,key_resp_4.rt,Test Block: 2,Test Block: 3,ending_text.started,end_resp.started,end_resp.keys,end_resp.rt,participant,session,date,expName,psychopyVersion,frameRate,
,,,,,,,,,,,,,,,,,,"[{'fileName': 'squareblack.png', 'correct_response': 'right', 'condition': 'go'}, {'fileName': 'squareblack.png', 'correct_response': 'right', 'condition': 'go'}, {'fileName': 'circleblack.png', 'correct_response': 'left', 'condition': 'stop'}, {'fileName': 'squareblack.png', 'correct_response': 'right', 'condition': 'go'}, {'fileName': 'circleblack.png', 'correct_response': 'left', 'condition': 'stop'}, {'fileName': 'squareblack.png', 'correct_response': 'right', 'condition': 'stop'}, {'fileName': 'circleblack.png', 'correct_response': 'left', 'condition': 'go'}, {'fileName': 'squareblack.png', 'correct_response': 'right', 'condition': 'go'}, {'fileName': 'circleblack.png', 'correct_response': 'left', 'condition': 'go'}, {'fileName': 'squareblack.png', 'correct_response': 'right', 'condition': 'stop'}, {'fileName': 'circleblack.png', 'correct_response': 'left', 'condition': 'go'}, {'fileName': 'circleblack.png', 'correct_response': 'left', 'condition': 'go'}, {'fileName': 'circleblack.png', 'correct_response': 'left', 'condition': 'go'}, {'fileName': 'circleblack.png', 'correct_response': 'left', 'condition': 'go'}, {'fileName': 'squareblack.png', 'correct_response': 'right', 'condition': 'go'}, {'fileName': 'circleblack.png', 'correct_response': 'left', 'condition': 'go'}, {'fileName': 'squareblack.png', 'correct_response': 'right', 'condition': 'stop'}, {'fileName': 'squareblack.png', 'correct_response': 'right', 'condition': 'go'}, {'fileName': 'squareblack.png', 'correct_response': 'right', 'condition': 'go'}, {'fileName': 'circleblack.png', 'correct_response': 'left', 'condition': 'go'}, {'fileName': 'squareblack.png', 'correct_response': 'right', 'condition': 'go'}, {'fileName': 'circleblack.png', 'correct_response': 'left', 'condition': 'stop'}, {'fileName': 'circleblack.png', 'correct_response': 'left', 'condition': 'stop'}, {'fileName': 'squareblack.png', 'correct_response': 'right', 'condition': 'stop'}]","[{'fileName': 'squareblack.png', 'correct_response': 'right', 'condition': 'go'}, {'fileName': 'squareblack.png', 'correct_response': 'right', 'condition': 'stop'}, {'fileName': 'circleblack.png', 'correct_response': 'left', 'condition': 'go'}, {'fileName': 'squareblack.png', 'correct_response': 'right', 'condition': 'go'}, {'fileName': 'circleblack.png', 'correct_response': 'left', 'condition': 'go'}, {'fileName': 'squareblack.png', 'correct_response': 'right', 'condition': 'go'}, {'fileName': 'circleblack.png', 'correct_response': 'left', 'condition': 'stop'}, {'fileName': 'circleblack.png', 'correct_response': 'left', 'condition': 'go'}, {'fileName': 'squareblack.png', 'correct_response': 'right', 'condition': 'go'}, {'fileName': 'circleblack.png', 'correct_response': 'left', 'condition': 'stop'}, {'fileName': 'circleblack.png', 'correct_response': 'left', 'condition': 'go'}, {'fileName': 'squareblack.png', 'correct_response': 'right', 'condition': 'stop'}, {'fileName': 'circleblack.png', 'correct_response': 'left', 'condition': 'go'}, {'fileName': 'circleblack.png', 'correct_response': 'left', 'condition': 'go'}, {'fileName': 'circleblack.png', 'correct_response': 'left', 'condition': 'go'}, {'fileName': 'circleblack.png', 'correct_response': 'left', 'condition': 'stop'}, {'fileName': 'squareblack.png', 'correct_response': 'right', 'condition': 'go'}, {'fileName': 'squareblack.png', 'correct_response': 'right', 'condition': 'stop'}, {'fileName': 'squareblack.png', 'correct_response': 'right', 'condition': 'go'}, {'fileName': 'circleblack.png', 'correct_response': 'left', 'condition': 'stop'}, {'fileName': 'squareblack.png', 'correct_response': 'right', 'condition': 'go'}, {'fileName': 'squareblack.png', 'correct_response': 'right', 'condition': 'go'}, {'fileName': 'squareblack.png', 'correct_response': 'right', 'condition': 'stop'}, {'fileName': 'circleblack.png', 'correct_response': 'left', 'condition': 'go'}, {'fileName': 'circleblack.png', 'correct_response': 'left', 'condition': 'go'}, {'fileName': 'squareblack.png', 'correct_response': 'right', 'condition': 'stop'}, {'fileName': 'circleblack.png', 'correct_response': 'left', 'condition': 'stop'}, {'fileName': 'circleblack.png', 'correct_response': 'left', 'condition': 'go'}, {'fileName': 'circleblack.png', 'correct_response': 'left', 'condition': 'stop'}, {'fileName': 'squareblack.png', 'correct_response': 'right', 'condition': 'stop'}, {'fileName': 'circleblack.png', 'correct_response': 'left', 'condition': 'go'}, {'fileName': 'squareblack.png', 'correct_response': 'right', 'condition': 'go'}, {'fileName': 'squareblack.png', 'correct_response': 'right', 'condition': 'go'}, {'fileName': 'squareblack.png', 'correct_response': 'right', 'condition': 'go'}, {'fileName': 'circleblack.png', 'correct_response': 'left', 'condition': 'go'}, {'fileName': 'squareblack.png', 'correct_response': 'right', 'condition': 'go'}, {'fileName': 'circleblack.png', 'correct_response': 'left', 'condition': 'go'}, {'fileName': 'circleblack.png', 'correct_response': 'left', 'condition': 'go'}, {'fileName': 'squareblack.png', 'correct_response': 'right', 'condition': 'stop'}, {'fileName': 'circleblack.png', 'correct_response': 'left', 'condition': 'go'}, {'fileName': 'squareblack.png', 'correct_response': 'right', 'condition': 'go'}, {'fileName': 'circleblack.png', 'correct_response': 'left', 'condition': 'go'}, {'fileName': 'squareblack.png', 'correct_response': 'right', 'condition': 'go'}, {'fileName': 'squareblack.png', 'correct_response': 'right', 'condition': 'stop'}, {'fileName': 'circleblack.png', 'correct_response': 'left', 'condition': 'stop'}, {'fileName': 'squareblack.png', 'correct_response': 'right', 'condition': 'go'}, {'fileName': 'circleblack.png', 'correct_response': 'left', 'condition': 'stop'}, {'fileName': 'squareblack.png', 'correct_response': 'right', 'condition': 'go'}]",2818.123944479972,2818.123944479972,return,1.806134793907404,,,,,,,,,,,,,,,,,,,,,,,,,,,,,,,,,,,,,,,,,,,,,,,,,,,,,,,,,,,s011,001,2024-07-23_17h40.35.041,simplestop_skeleton,2022.2.2,59.7698709684602,
None,None,0,0,0,0,0,0,0,1,,,,,,,,,,,,,,,2819.9728976152837,2819.9728976152837,2874.72685052827,go,squareblack.png,right,0.35,2874.749677449465,2874.749677449465,2875.2404141910374,2875.2404141910374,2875.2569515891373,2875.590739686042,2876.0912855044007,2876.241703566164,2877.24252621457,2877.259016148746,right,1,0.38934464752674103,2877.259016148746,2877.259016148746,2877.763816960156,2877.763816960156,0.0025543607771396637,0.4856707639992237,0.8362838514149189,2877.74381923303,practice,1,,,,,,,,,,,,,,,,,,,,,,,,,,,,,s011,001,2024-07-23_17h40.35.041,simplestop_skeleton,2022.2.2,59.7698709684602,
None,None,0,0,0,0,0,1,1,3,,,,,,,,,,,,,,,,,2877.7443447485566,go,squareblack.png,right,0.35,2877.763816960156,2877.763816960156,2878.2601600550115,2878.2601600550115,2878.276722807437,2878.6109195053577,2879.126495786011,2879.2597806453705,2880.2609125487506,2880.2776582427323,right,1,0.3198128901422024,2880.2776582427323,2880.2776582427323,2880.7855442650616,2880.7855442650616,0.0012192577123641968,0.4896436743438244,0.8404906839132309,2880.7623089402914,practice,1,,,,,,,,,,,,,,,,,,,,,,,,,,,,,s011,001,2024-07-23_17h40.35.041,simplestop_skeleton,2022.2.2,59.7698709684602,
None,None,0,0,0,0,0,2,2,3,,,,,,,,,,,,,,,,,2880.7627359367907,stop,circleblack.png,left,0.35,2880.7855442650616,2880.7855442650616,2881.2804524749517,2881.2804524749517,2881.2972420416772,2881.6290895938873,2882.1300849467516,2882.279900059104,2883.2815047465265,2883.2986767180264,left,1,0.3119981400668621,2883.2986767180264,2883.2986767180264,,,0.007976401597261429,0.4921180307865143,0.8405933827161789,2883.783728584647,practice,1,,,,,,,,,,,,,,,,,,,,,,,,,,,,,s011,001,2024-07-23_17h40.35.041,simplestop_skeleton,2022.2.2,59.7698709684602,
$currentCorrectResponse,$currentGoStim,0,0,0,0,0,3,3,0,,,,,,,,,,,,,,,,,2883.7841565534472,go,squareblack.png,right,0.3,2883.80397034809,2883.80397034809,2884.30006050691,2884.30006050691,2884.3168376237154,2884.6004171185195,2885.0996508337557,2885.2997717671096,2886.3011487461627,2886.317843839526,right,1,0.44161200895905495,2886.317843839526,2886.317843839526,2886.8202438168228,2886.8202438168228,0.0017691440880298615,0.49026934802532196,0.7904290445148945,2886.802398249507,practice,1,,,,,,,,,,,,,,,,,,,,,,,,,,,,,s011,001,2024-07-23_17h40.35.041,simplestop_skeleton,2022.2.2,59.7698709684602,
None,None,0,0,0,0,1,0,4,1,,,,,,,,,,,,,,,,,2886.8028349094093,stop,circleblack.png,left,0.3,2886.8202438168228,2886.8202438168228,2887.3188592754304,2887.3188592754304,2887.3355566486716,2887.618974596262,2888.119607537985,2888.3199133239686,2889.3218122310936,2889.3218122310936,left,1,0.36629172414541245,2889.3218122310936,2889.3218122310936,,,0.0017330832779407501,0.4902777932584286,0.7903949953615665,2889.806954614818,practice,1,,,,,,,,,,,,,,,,,,,,,,,,,,,,,s011,001,2024-07-23_17h40.35.041,simplestop_skeleton,2022.2.2,59.7698709684602,
$currentCorrectResponse,$currentGoStim,0,0,0,0,1,1,5,0,,,,,,,,,,,,,,,,,2889.8073770217597,stop,squareblack.png,right,0.25,2889.827069789171,2889.827069789171,2890.3235506154597,2890.3235506154597,2890.3401808924973,2890.573592726141,2891.0742275603116,2891.324517123401,2892.325704012066,2892.3424500524998,None,0,,2892.3424500524998,2892.3424500524998,2892.8470531366765,2892.8470531366765,0.0016460157930850983,0.490286398679018,0.7403610311448574,2892.827203273773,practice,1,,,,,,,,,,,,,,,,,,,,,,,,,,,,,s011,001,2024-07-23_17h40.35.041,simplestop_skeleton,2022.2.2,59.7698709684602,
None,None,0,0,0,0,1,2,6,1,,,,,,,,,,,,,,,,,2892.8276514932513,go,circleblack.png,left,0.3,2892.8470531366765,2892.8470531366765,2893.343594070524,2893.343594070524,2893.360215291381,2893.644027043134,2894.1430406980217,2894.343099080026,2895.3443900458515,2895.361158117652,left,1,0.4427720159292221,2895.361158117652,2895.361158117652,2895.8635447099805,2895.8635447099805,0.001758664846420288,0.4900151528418064,0.7903086543083191,2895.8457433097064,practice,1,,,,,,,,,,,,,,,,,,,,,,,,,,,,,s011,001,2024-07-23_17h40.35.041,simplestop_skeleton,2022.2.2,59.7698709684602,
None,None,0,0,0,0,1,3,7,1,,,,,,,,,,,,,,,,,2895.8462036177516,go,squareblack.png,right,0.3,2895.8635447099805,2895.8635447099805,2896.362089984119,2896.362089984119,2896.3788533471525,2896.6623932532966,2897.1630660779774,2897.3632929585874,2898.365289129317,2898.365289129317,right,1,0.46598200872540474,2898.365289129317,2898.365289129317,,,0.0015689358115196228,0.4901190809905529,0.7903332151472569,2898.8502951413393,practice,1,,,,,,,,,,,,,,,,,,,,,,,,,,,,,s011,001,2024-07-23_17h40.35.041,simplestop_skeleton,2022.2.2,59.7698709684602,
$currentCorrectResponse,$currentGoStim,0,0,0,0,2,0,8,0,,,,,,,,,,,,,,,,,2898.850745692849,go,circleblack.png,left,0.3,2898.8704429753125,2898.8704429753125,2899.3667482696474,2899.3667482696474,2899.3833915703,2899.667309552431,2900.166304651648,2900.3667404577136,2901.3676478005946,2901.384389460087,left,1,0.46071281284093857,2901.384389460087,2901.384389460087,2901.8867884241045,2901.8867884241045,0.0018976256251335144,0.49000414088368416,0.7902472615242004,2901.8690512627363,practice,1,,,,,,,,,,,,,,,,,,,,,,,,,,,,,s011,001,2024-07-23_17h40.35.041,simplestop_skeleton,2022.2.2,59.7698709684602,
None,None,0,0,0,0,2,1,9,3,,,,,,,,,,,,,,,,,2901.8694753982127,stop,squareblack.png,right,0.3,2901.8867884241045,2901.8867884241045,2902.385509252548,2902.385509252548,2902.4021951444447,2902.685672353953,2903.186202261597,2903.3865200318396,2904.388488572091,2904.388488572091,right,1,0.3325284607708454,2904.388488572091,2904.388488572091,,,0.0016012638807296753,0.4901900067925453,0.7903713546693325,2904.8736888729036,practice,1,,,,,,,,,,,,,,,,,,,,,,,,,,,,,s011,001,2024-07-23_17h40.35.041,simplestop_skeleton,2022.2.2,59.7698709684602,
$currentCorrectResponse,$currentGoStim,0,0,0,0,2,2,10,0,,,,,,,,,,,,,,,,,2904.874167226255,go,circleblack.png,left,0.25,2904.895331837237,2904.895331837237,2905.3902108445764,2905.3902108445764,2905.4067883603275,2905.640484843403,2906.139623168856,2906.389666199684,2907.392733398825,2907.4095101356506,left,1,0.4238027408719063,2907.4095101356506,2907.4095101356506,,,0.0026169754564762115,0.4886781834065914,0.7388857267796993,2907.9087266735733,practice,1,,,,,,,,,,,,,,,,,,,,,,,,,,,,,s011,001,2024-07-23_17h40.35.041,simplestop_skeleton,2022.2.2,59.7698709684602,
$currentCorrectResponse,$currentGoStim,0,0,0,0,2,3,11,0,,,,,,,,,,,,,,,,,2907.9091589562595,go,circleblack.png,left,0.25,2907.9273322559893,2907.9273322559893,2908.425510276109,2908.425510276109,2908.442086368799,2908.6756121851504,2909.1760716438293,2909.4264533929527,2910.4276702962816,2910.4276702962816,left,1,0.47589773684740067,2910.4276702962816,2910.4276702962816,,,0.0013704970479011536,0.4894547387957573,0.7396507076919079,2910.9135209955275,practice,1,,,,,,,,,,,,,,,,,,,,,,,,,,,,,s011,001,2024-07-23_17h40.35.041,simplestop_skeleton,2022.2.2,59.7698709684602,
None,None,0,0,0,0,3,0,12,2,,,,,,,,,,,,,,,,,2910.91394321993,go,circleblack.png,left,0.25,2910.9339051283896,2910.9339051283896,2911.4301105178893,2911.4301105178893,2911.4467926695943,2911.680303774774,2912.1795547939837,2912.4299280680716,2913.4309665337205,2913.44766747579,left,1,0.4842054806649685,2913.44766747579,2913.44766747579,2913.9498938657343,2913.9498938657343,0.0014346390962600708,0.4896192438900471,0.7398472726345062,2913.932414766401,practice,1,,,,,,,,,,,,,,,,,,,,,,,,,,,,,s011,001,2024-07-23_17h40.35.041,simplestop_skeleton,2022.2.2,59.7698709684602,
None,None,0,0,0,0,3,1,13,2,,,,,,,,,,,,,,,,,2913.932831443846,go,circleblack.png,left,0.25,2913.9498938657343,2913.9498938657343,2914.448830869049,2914.448830869049,2914.4655794911087,2914.699021689594,2915.1993916891515,2915.449842710048,2916.4517119824886,2916.4517119824886,left,1,0.3866620138287544,2916.4517119824886,2916.4517119824886,,,0.0012180693447589874,0.49003783240914345,0.7402058579027653,2916.9371756576,practice,1,,,,,,,,,,,,,,,,,,,,,,,,,,,,,s011,001,2024-07-23_17h40.35.041,simplestop_skeleton,2022.2.2,59.7698709684602,
None,None,0,0,0,0,3,2,14,3,,,,,,,,,,,,,,,,,2916.9376117922366,go,squareblack.png,right,0.25,2916.9624547436833,2916.9624547436833,2917.453452486545,2917.453452486545,2917.4700786694884,2917.703679189086,2918.2029852047563,2918.4533833935857,2919.454320088029,2919.4711510688066,right,1,0.471831850707531,2919.4711510688066,2919.4711510688066,2919.973651856184,2919.973651856184,0.007735203951597214,0.48996779695153236,0.740094106644392,2919.95557692647,practice,1,,,,,,,,,,,,,,,,,,,,,,,,,,,,,s011,001,2024-07-23_17h40.35.041,simplestop_skeleton,2022.2.2,59.7698709684602,
$currentCorrectResponse,$currentGoStim,0,0,0,0,3,3,15,0,,,,,,,,,,,,,,,,,2919.955998033285,go,circleblack.png,left,0.25,2919.973651856184,2919.973651856184,2920.4721023477614,2920.4721023477614,2920.4888053014874,2920.72224137187,2921.2228079997003,2921.473113760352,2922.4750844575465,2922.4750844575465,left,1,0.4339878037571907,2922.4750844575465,2922.4750844575465,,,0.0017352253198623657,0.49000779539346695,0.7401887215673923,2922.9602249227464,practice,1,,,,,,,,,,,,,,,,,,,,,,,,,,,,,s011,001,2024-07-23_17h40.35.041,simplestop_skeleton,2022.2.2,59.7698709684602,
None,None,0,0,0,0,4,0,16,3,,,,,,,,,,,,,,,,,2922.960657194257,stop,squareblack.png,right,0.25,2922.980230011046,2922.980230011046,2923.4766454808414,2923.4766454808414,2923.493418443948,2923.7268428318202,2924.2263731583953,2924.4765303619206,2925.4795031882823,2925.4795031882823,right,1,0.3899591788649559,2925.4795031882823,2925.4795031882823,,,0.0018056221306324005,0.49004365503787994,0.7405040003359318,2925.978742595762,practice,1,,,,,,,,,,,,,,,,,,,,,,,,,,,,,s011,001,2024-07-23_17h40.35.041,simplestop_skeleton,2022.2.2,59.7698709684602,
None,None,0,0,0,0,4,1,17,1,,,,,,,,,,,,,,,,,2925.979198399931,go,squareblack.png,right,0.2,2925.9959735497832,2925.9959735497832,2926.495392244309,2926.495392244309,2926.495392244309,2926.6956144869328,2927.1960163339972,2927.4968094155192,2928.4994960576296,2928.4994960576296,right,1,0.4957040287554264,2928.4994960576296,2928.4994960576296,,,0.0011661387979984283,0.490154255181551,0.6904195472598076,2928.9834344126284,practice,1,,,,,,,,,,,,,,,,,,,,,,,,,,,,,s011,001,2024-07-23_17h40.35.041,simplestop_skeleton,2022.2.2,59.7698709684602,
None,None,0,0,0,0,4,2,18,1,,,,,,,,,,,,,,,,,2928.9839903339744,go,squareblack.png,right,0.2,2929.003238875419,2929.003238875419,2929.4998577162623,2929.4998577162623,2929.516708459705,2929.7004060558975,2930.2014395073056,2930.499842647463,2931.500996362418,2931.5177143886685,right,1,0.5037818551063538,2931.5177143886685,2931.5177143886685,2932.0258989334106,2932.0258989334106,0.001191798597574234,0.49008701369166374,0.6902110725641251,2932.0023399181664,practice,1,,,,,,,,,,,,,,,,,,,,,,,,,,,,,s011,001,2024-07-23_17h40.35.041,simplestop_skeleton,2022.2.2,59.7698709684602,
None,None,0,0,0,0,4,3,19,3,,,,,,,,,,,,,,,,,2932.0027949884534,go,circleblack.png,left,0.2,2932.0258989334106,2932.0258989334106,2932.5187491364777,2932.5187491364777,2932.5354022309184,2932.7189611271024,2933.2193709015846,2933.5198229774833,2934.521276269108,2934.5377508737147,left,1,0.49598389863967896,2934.5377508737147,2934.5377508737147,,,0.007866255939006805,0.49000000208616257,0.6904223673045635,2935.023558229208,practice,1,,,,,,,,,,,,,,,,,,,,,,,,,,,,,s011,001,2024-07-23_17h40.35.041,simplestop_skeleton,2022.2.2,59.7698709684602,
None,None,0,0,0,0,5,0,20,2,,,,,,,,,,,,,,,,,2935.0239800848067,go,squareblack.png,right,0.2,2935.0436866395175,2935.0436866395175,2935.5400949567556,2935.5400949567556,2935.5569012388587,2935.7401006035507,2936.241088632494,2936.539857648313,2937.540880203247,2937.5577028431,right,1,0.4426129423081875,2937.5577028431,2937.5577028431,2938.060397360474,2938.060397360474,0.0017007961869239807,0.4901801533997059,0.6902781017124653,2938.042318314314,practice,1,,,,,,,,,,,,,,,,,,,,,,,,,,,,,s011,001,2024-07-23_17h40.35.041,simplestop_skeleton,2022.2.2,59.7698709684602,
None,None,0,0,0,0,5,1,21,2,,,,,,,,,,,,,,,,,2938.0427749305964,stop,circleblack.png,left,0.2,2938.060397360474,2938.060397360474,2938.5586802512407,2938.5586802512407,2938.5755805261433,2938.7587708868086,2939.25928491354,2939.559736508876,2940.5616029277444,2940.5616029277444,None,0,,2940.5616029277444,2940.5616029277444,,,0.0017068982124328613,0.48995141685009,0.6900744959712029,2941.046964749694,practice,1,,,,,,,,,,,,,,,,,,,,,,,,,,,,,s011,001,2024-07-23_17h40.35.041,simplestop_skeleton,2022.2.2,59.7698709684602,
None,None,0,0,0,0,5,2,22,2,,,,,,,,,,,,,,,,,2941.047381274402,stop,circleblack.png,left,0.25,2941.0665240958333,2941.0665240958333,2941.5634282268584,2941.5634282268584,2941.580203451216,2941.813817702234,2942.314212422818,2942.56454083696,2943.565595932305,2943.565595932305,None,0,,2943.565595932305,2943.565595932305,,,0.0012951791286468506,0.49031005427241325,0.7404959760606289,2944.050459969789,practice,1,,,,,,,,,,,,,,,,,,,,,,,,,,,,,s011,001,2024-07-23_17h40.35.041,simplestop_skeleton,2022.2.2,59.7698709684602,
None,None,0,0,0,0,5,3,23,2,,,,,,,,,,,,,,,,,2944.0508872419596,stop,squareblack.png,right,0.3,2944.0704226009548,2944.0704226009548,2944.5667327158153,2944.5667327158153,2944.583446484059,2944.867363527417,2945.3829540088773,2945.5665139108896,2946.5675614587963,2946.584199268371,right,1,0.4604356922209263,2946.584199268371,2946.584199268371,2947.0852374807,2947.0852374807,0.0016915053129196167,0.4901372157037258,0.7902331240475178,2947.0689561143517,practice,1,,,,,,,,,,,,,,,,,,,,,,,,,,,,,s011,001,2024-07-23_17h40.35.041,simplestop_skeleton,2022.2.2,59.7698709684602,
,,0,0,0,0,,,,,,,,,,,,,"[{'fileName': 'circleblack.png', 'correct_response': 'left', 'condition': 'go'}, {'fileName': 'circleblack.png', 'correct_response': 'left', 'condition': 'go'}, {'fileName': 'squareblack.png', 'correct_response': 'right', 'condition': 'go'}, {'fileName': 'circleblack.png', 'correct_response': 'left', 'condition': 'stop'}, {'fileName': 'circleblack.png', 'correct_response': 'left', 'condition': 'go'}, {'fileName': 'squareblack.png', 'correct_response': 'right', 'condition': 'stop'}, {'fileName': 'circleblack.png', 'correct_response': 'left', 'condition': 'stop'}, {'fileName': 'squareblack.png', 'correct_response': 'right', 'condition': 'go'}, {'fileName': 'squareblack.png', 'correct_response': 'right', 'condition': 'go'}, {'fileName': 'circleblack.png', 'correct_response': 'left', 'condition': 'go'}, {'fileName': 'squareblack.png', 'correct_response': 'right', 'condition': 'stop'}, {'fileName': 'squareblack.png', 'correct_response': 'right', 'condition': 'go'}, {'fileName': 'circleblack.png', 'correct_response': 'left', 'condition': 'stop'}, {'fileName': 'squareblack.png', 'correct_response': 'right', 'condition': 'stop'}, {'fileName': 'circleblack.png', 'correct_response': 'left', 'condition': 'go'}, {'fileName': 'circleblack.png', 'correct_response': 'left', 'condition': 'stop'}, {'fileName': 'circleblack.png', 'correct_response': 'left', 'condition': 'go'}, {'fileName': 'squareblack.png', 'correct_response': 'right', 'condition': 'go'}, {'fileName': 'squareblack.png', 'correct_response': 'right', 'condition': 'go'}, {'fileName': 'squareblack.png', 'correct_response': 'right', 'condition': 'stop'}, {'fileName': 'squareblack.png', 'correct_response': 'right', 'condition': 'go'}, {'fileName': 'squareblack.png', 'correct_response': 'right', 'condition': 'go'}, {'fileName': 'circleblack.png', 'correct_response': 'left', 'condition': 'go'}, {'fileName': 'circleblack.png', 'correct_response': 'left', 'condition': 'go'}]",,,,,,,,,,,,,,,,,,,,,,,,,,,,,,,,,,,,2947.0852374807,2947.0852374807,return,1.968498058617115,,,,,,,,,,,,,,,,,,,,,,,,,s011,001,2024-07-23_17h40.35.041,simplestop_skeleton,2022.2.2,59.7698709684602,
None,None,,,,,,,,,0,0,0,0,0,0,0,2,,,,,,,,,2955.9648133702576,go,squareblack.png,right,0.25,,,,,,,,,,,,,,,,,,0.002272278070449829,0.4886218383908272,,2958.4666588529944,test,1,,,,,2949.070458225906,2949.070458225906,2955.9849645756185,2956.4798225574195,2956.4798225574195,2956.496359474957,2956.7301339022815,2957.2306424304843,2957.4808540791273,2958.4857678450644,right,1,0.4543921649456024,0.25,,,,,,,,,,,s011,001,2024-07-23_17h40.35.041,simplestop_skeleton,2022.2.2,59.7698709684602,
$currentCorrectResponse,$currentGoStim,,,,,,,,,0,0,0,0,0,1,1,0,,,,,,,,,2958.4672015346587,stop,squareblack.png,right,0.25,,,,,,,,,,,,,,,,,,0.0013423077762126923,0.48922471702098846,0.7395511828362942,2960.96934838593,test,1,,,,,,,2958.4857678450644,2958.9824421592057,2958.9824421592057,2958.999488707632,2959.232896897942,2959.7320490442216,2959.98230618611,2960.988288655877,right,1,0.4270188584923744,0.2,,,,,,,,,,,s011,001,2024-07-23_17h40.35.041,simplestop_skeleton,2022.2.2,59.7698709684602,
$currentCorrectResponse,$currentGoStim,,,,,,,,,0,0,0,0,0,2,2,0,,,,,,,,,2960.969806164503,go,circleblack.png,left,0.2,,,,,,,,,,,,,,,,,,0.0025920309126377106,0.4872165434062481,,2963.472683340311,test,1,,,,,,,2960.988288655877,2961.4838429763913,2961.4838429763913,2961.500539559871,2961.684153676033,2962.1847251690924,2962.484898597002,2963.4945181570947,left,1,0.4375898949801922,0.2,,,,,,,,,,,s011,001,2024-07-23_17h40.35.041,simplestop_skeleton,2022.2.2,59.7698709684602,
None,None,,,,,,,,,0,0,0,0,0,3,3,2,,,,,,,,,2963.4731597416103,go,squareblack.png,right,0.2,,,,,,,,,,,,,,,,,,0.002779074013233185,0.48606035113334656,,2965.9748250208795,test,1,,,,,,,2963.4945181570947,2963.986643023789,2963.986643023789,2964.003314241767,2964.1868431717157,2964.6877822875977,2964.987696725875,2965.9948242790997,right,1,0.5160783194005489,0.2,,,,,,,,,,,s011,001,2024-07-23_17h40.35.041,simplestop_skeleton,2022.2.2,59.7698709684602,
None,None,,,,,,,,,0,0,0,0,1,0,4,3,,,,,,,,,2965.9752808324993,go,circleblack.png,left,0.2,,,,,,,,,,,,,,,,,,0.0020182542502880096,0.4878605119884014,,2968.476194445044,test,1,,,,,,,2965.9948242790997,2966.489460591227,2966.489460591227,2966.5059848092496,2966.6896031983197,2967.190152850002,2967.490443620831,2968.493574142456,left,1,0.519648015499115,0.2,,,,,,,,,,,s011,001,2024-07-23_17h40.35.041,simplestop_skeleton,2022.2.2,59.7698709684602,
None,None,,,,,,,,,0,0,0,0,1,1,5,1,,,,,,,,,2968.476646333933,go,squareblack.png,right,0.2,,,,,,,,,,,,,,,,,,0.001572880893945694,0.489806842058897,,2970.97904881835,test,1,,,,,,,2968.493574142456,2968.9921982996166,2968.9921982996166,2969.0088313631713,2969.1933170743287,2969.692855834961,2969.9932620562613,2970.9966966845095,right,1,0.4771159440279007,0.2,,,,,,,,,,,s011,001,2024-07-23_17h40.35.041,simplestop_skeleton,2022.2.2,59.7698709684602,
$currentCorrectResponse,$currentGoStim,,,,,,,,,0,0,0,0,1,2,6,0,,,,,,,,,2970.9794989563525,stop,circleblack.png,left,0.2,,,,,,,,,,,,,,,,,,0.0018049590289592743,0.48954887315630913,0.6905681118369102,2973.481689620763,test,1,,,,,,,2970.9966966845095,2971.4948296546936,2971.4948296546936,2971.511580888182,2971.696214489639,2972.1956149563193,2972.495987340808,2973.4983907192945,None,0,,0.25,,,,,,,,,,,s011,001,2024-07-23_17h40.35.041,simplestop_skeleton,2022.2.2,59.7698709684602,
$currentCorrectResponse,$currentGoStim,,,,,,,,,0,0,0,0,1,3,7,0,,,,,,,,,2973.48213019222,go,circleblack.png,left,0.25,,,,,,,,,,,,,,,,,,0.0012442134320735931,0.49092822894454,,2975.984562329948,test,1,,,,,,,2973.4983907192945,2973.9987666867673,2973.9987666867673,2973.9987666867673,2974.25000243634,2974.765113644302,2974.998869109899,2976.0018203556538,left,1,0.3682286664843559,0.25,,,,,,,,,,,s011,001,2024-07-23_17h40.35.041,simplestop_skeleton,2022.2.2,59.7698709684602,
None,None,,,,,,,,,0,0,0,0,2,0,8,3,,,,,,,,,2975.985002987087,go,squareblack.png,right,0.25,,,,,,,,,,,,,,,,,,0.0015779919922351837,0.48941323533654213,,2978.487110968679,test,1,,,,,,,2976.0018203556538,2976.501460250467,2976.501460250467,2976.517832968384,2976.7509477101266,2977.2512544095516,2977.5018180534244,2978.504537500441,right,1,0.39948174729943275,0.25,,,,,,,,,,,s011,001,2024-07-23_17h40.35.041,simplestop_skeleton,2022.2.2,59.7698709684602,
None,None,,,,,,,,,0,0,0,0,2,1,9,3,,,,,,,,,2978.487570066005,stop,circleblack.png,left,0.25,,,,,,,,,,,,,,,,,,0.0017136111855506897,0.48977331444621086,0.7397804111242294,2980.9906067214906,test,1,,,,,,,2978.504537500441,2979.0032956786454,2979.0032956786454,2979.020025514066,2979.2534838356078,2979.7540210299194,2980.004374578595,2981.008046619594,None,0,,0.3,,,,,,,,,,,s011,001,2024-07-23_17h40.35.041,simplestop_skeleton,2022.2.2,59.7698709684602,
None,None,,,,,,,,,0,0,0,0,2,2,10,2,,,,,,,,,2980.9910502955317,go,circleblack.png,left,0.3,,,,,,,,,,,,,,,,,,0.001257035881280899,0.4901510030031204,,2983.493776705116,test,1,,,,,,,2981.008046619594,2981.507344920188,2981.507344920188,2981.507344920188,2981.8076573237777,2982.3085879832506,2982.5071689635515,2983.512525074184,left,1,0.5029750652611256,0.3,,,,,,,,,,,s011,001,2024-07-23_17h40.35.041,simplestop_skeleton,2022.2.2,59.7698709684602,
None,None,,,,,,,,,0,0,0,0,2,3,11,1,,,,,,,,,2983.4942335635424,stop,squareblack.png,right,0.3,,,,,,,,,,,,,,,,,,0.0018852166831493378,0.4877604618668556,0.788208618760109,2985.9960470721126,test,1,,,,,,,2983.512525074184,2984.0086775757372,2984.0086775757372,2984.025441236794,2984.308968834579,2984.809718731791,2985.0098332203925,2986.01425787434,right,1,0.49948206171393394,0.25,,,,,,,,,,,s011,001,2024-07-23_17h40.35.041,simplestop_skeleton,2022.2.2,59.7698709684602,
None,None,,,,,,,,,0,0,0,0,3,0,12,3,,,,,,,,,2985.996507141739,go,circleblack.png,left,0.25,,,,,,,,,,,,,,,,,,0.0017745867371559143,0.4885818101465702,,2988.4986173659563,test,1,,,,,,,2986.01425787434,2986.5114317275584,2986.5114317275584,2986.5281989499927,2986.761704403907,2987.2624910101295,2987.512533649802,2988.51589826867,left,1,0.4185863249003887,0.25,,,,,,,,,,,s011,001,2024-07-23_17h40.35.041,simplestop_skeleton,2022.2.2,59.7698709684602,
None,None,,,,,,,,,0,0,0,0,3,1,13,3,,,,,,,,,2988.4990548603237,go,circleblack.png,left,0.25,,,,,,,,,,,,,,,,,,0.0013601407408714294,0.48905717208981514,,2991.0010693073273,test,1,,,,,,,2988.51589826867,2989.0141982249916,2989.0141982249916,2989.0308974012733,2989.2645018585026,2989.7649901136756,2990.0153155215085,2991.018364880234,left,1,0.504736166447401,0.25,,,,,,,,,,,s011,001,2024-07-23_17h40.35.041,simplestop_skeleton,2022.2.2,59.7698709684602,
None,None,,,,,,,,,0,0,0,0,3,2,14,1,,,,,,,,,2991.0015089921653,go,circleblack.png,left,0.25,,,,,,,,,,,,,,,,,,0.001245349645614624,0.4893207289278507,,2993.5036214254797,test,1,,,,,,,2991.018364880234,2991.5170361362398,2991.5170361362398,2991.533615414053,2991.768626499921,2992.267688307911,2992.518101532012,2993.5207297429442,left,1,0.5091199204325676,0.25,,,,,,,,,,,s011,001,2024-07-23_17h40.35.041,simplestop_skeleton,2022.2.2,59.7698709684602,
$currentCorrectResponse,$currentGoStim,,,,,,,,,0,0,0,0,3,3,15,0,,,,,,,,,2993.504058714956,stop,circleblack.png,left,0.25,,,,,,,,,,,,,,,,,,0.0012390464544296265,0.4897351451218128,0.7413214221596718,2996.0065546557307,test,1,,,,,,,2993.5207297429442,2994.0197159536183,2994.0197159536183,2994.0197159536183,2994.271054059267,2994.771030176431,2995.0208106637,2996.024093642831,None,0,,0.3,,,,,,,,,,,s011,001,2024-07-23_17h40.35.041,simplestop_skeleton,2022.2.2,59.7698709684602,
None,None,,,,,,,,,0,0,0,0,4,0,16,1,,,,,,,,,2996.0070072077215,go,squareblack.png,right,0.3,,,,,,,,,,,,,,,,,,0.0016490519046783447,0.4897402822971344,,2998.5091659985483,test,1,,,,,,,2996.024093642831,2996.522943712771,2996.522943712771,2996.5392562411726,2996.824134886265,2997.3233054950833,2997.523576527834,2998.5259765274823,right,1,0.36211706325411797,0.3,,,,,,,,,,,s011,001,2024-07-23_17h40.35.041,simplestop_skeleton,2022.2.2,59.7698709684602,
None,None,,,,,,,,,0,0,0,0,4,1,17,1,,,,,,,,,2998.5096032358706,stop,squareblack.png,right,0.3,,,,,,,,,,,,,,,,,,0.001167692244052887,0.4899407997727394,0.7901503629982471,3001.012199662626,test,1,,,,,,,2998.5259765274823,2999.025388583541,2999.025388583541,2999.025388583541,2999.3257709257305,2999.826358538121,3000.026343692094,3001.028785303235,right,1,0.3719889670610428,0.25,,,,,,,,,,,s011,001,2024-07-23_17h40.35.041,simplestop_skeleton,2022.2.2,59.7698709684602,
None,None,,,,,,,,,0,0,0,0,4,2,18,3,,,,,,,,,3001.012637898326,go,squareblack.png,right,0.25,,,,,,,,,,,,,,,,,,0.001173499971628189,0.4910593181848526,,3003.5148436315358,test,1,,,,,,,3001.028785303235,3001.5289099402726,3001.5289099402726,3001.5289099402726,3001.7802243828773,3002.29544974491,3002.529125407338,3003.5327505096793,right,1,0.3687332831323147,0.25,,,,,,,,,,,s011,001,2024-07-23_17h40.35.041,simplestop_skeleton,2022.2.2,59.7698709684602,
None,None,,,,,,,,,0,0,0,0,4,3,19,2,,,,,,,,,3003.5152887254953,stop,circleblack.png,left,0.25,,,,,,,,,,,,,,,,,,0.0019046738743782043,0.4894477054476738,0.7398586422204971,3006.017623834312,test,1,,,,,,,3003.5327505096793,3004.030934162438,3004.030934162438,3004.0474660247564,3004.2813616879284,3004.7815211489797,3005.031812313944,3006.034870646894,None,0,,0.3,,,,,,,,,,,s011,001,2024-07-23_17h40.35.041,simplestop_skeleton,2022.2.2,59.7698709684602,
None,None,,,,,,,,,0,0,0,0,5,0,20,2,,,,,,,,,3006.0180732943118,go,squareblack.png,right,0.3,,,,,,,,,,,,,,,,,,0.0015913210809230804,0.4906640909612179,,3008.520222309977,test,1,,,,,,,3006.034870646894,3006.5345237627625,3006.5345237627625,3006.5345237627625,3006.834042724222,3007.334372136742,3007.5346195958555,3008.5369882546365,right,1,0.47099193185567856,0.3,,,,,,,,,,,s011,001,2024-07-23_17h40.35.041,simplestop_skeleton,2022.2.2,59.7698709684602,
None,None,,,,,,,,,0,0,0,0,5,1,21,3,,,,,,,,,3008.5206812620163,go,squareblack.png,right,0.3,,,,,,,,,,,,,,,,,,0.0011577829718589783,0.48988448083400726,,3011.022993262857,test,1,,,,,,,3008.5369882546365,3009.036391630769,3009.036391630769,3009.036391630769,3009.3365720696747,3009.8371772281826,3010.0373655222356,3011.0396484695375,right,1,0.4514390677213669,0.3,,,,,,,,,,,s011,001,2024-07-23_17h40.35.041,simplestop_skeleton,2022.2.2,59.7698709684602,
None,None,,,,,,,,,0,0,0,0,5,2,22,2,,,,,,,,,3011.0234301947057,stop,squareblack.png,right,0.3,,,,,,,,,,,,,,,,,,0.0011609680950641632,0.48994264379143715,0.7901062034070492,3013.5275076143444,test,1,,,,,,,3011.0396484695375,3011.5392999053,3011.5392999053,3011.5392999053,3011.8396180793643,3012.3398915827274,3012.541538015008,3013.545765578747,right,1,0.417195450514555,0.25,,,,,,,,,,,s011,001,2024-07-23_17h40.35.041,simplestop_skeleton,2022.2.2,59.7698709684602,
$currentCorrectResponse,$currentGoStim,,,,,,,,,0,0,0,0,5,3,23,0,,,,,,,,,3013.527955725789,go,circleblack.png,left,0.25,,,,,,,,,,,,,,,,,,0.002686198800802231,0.4892858490347862,,3016.029761940241,test,1,,,,,,,3013.545765578747,3014.043217573315,3014.043217573315,3014.0600103475153,3014.2934627234936,3014.794412344694,3015.0430413410068,3016.048218552023,left,1,0.4645543359220028,0.25,,,,,,,,,,,s011,001,2024-07-23_17h40.35.041,simplestop_skeleton,2022.2.2,59.7698709684602,
None,None,,,,,,,,,0,0,0,0,6,0,24,2,,,,,,,,,3016.030221171677,go,circleblack.png,left,0.25,,,,,,,,,,,,,,,,,,0.0015715435147285461,0.4878496676683426,,3018.5315068624914,test,1,,,,,,,3016.048218552023,3016.5446218810976,3016.5446218810976,3016.561165113002,3016.794946499169,3017.295474112034,3017.5459120459855,3018.549503751099,left,1,0.4915405958890915,0.25,,,,,,,,,,,s011,001,2024-07-23_17h40.35.041,simplestop_skeleton,2022.2.2,59.7698709684602,
$currentCorrectResponse,$currentGoStim,,,,,,,,,0,0,0,0,6,1,25,0,,,,,,,,,3018.53196644783,stop,squareblack.png,right,0.25,,,,,,,,,,,,,,,,,,0.0016900785267353058,0.48903805390000343,0.739359188824892,3021.036194205284,test,1,,,,,,,3018.549503751099,3019.047343108803,3019.047343108803,3019.064056199044,3019.2975805327296,3019.7983471751213,3020.048770468682,3021.0576242282987,None,0,,0.3,,,,,,,,,,,s011,001,2024-07-23_17h40.35.041,simplestop_skeleton,2022.2.2,59.7698709684602,
None,None,,,,,,,,,0,0,0,0,6,2,26,1,,,,,,,,,3021.036661732942,stop,circleblack.png,left,0.3,,,,,,,,,,,,,,,,,,0.002665683627128601,0.48624106869101524,0.7867631055414677,3023.5387324877083,test,1,,,,,,,3021.0576242282987,3021.550042435527,3021.550042435527,3021.5668426044285,3021.8504814244807,3022.351154278964,3022.5511991493404,3023.559479430318,left,1,0.37503669783473015,0.25,,,,,,,,,,,s011,001,2024-07-23_17h40.35.041,simplestop_skeleton,2022.2.2,59.7698709684602,
None,None,,,,,,,,,0,0,0,0,6,3,27,3,,,,,,,,,3023.539187196642,go,circleblack.png,left,0.25,,,,,,,,,,,,,,,,,,0.0021227411925792694,0.4867503046989441,,3026.0416384264827,test,1,,,,,,,3023.559479430318,3024.0528913997114,3024.0528913997114,3024.069578565657,3024.3033910393715,3024.804150901735,3025.053968463093,3026.0629353933036,left,1,0.4919998124241829,0.25,,,,,,,,,,,s011,001,2024-07-23_17h40.35.041,simplestop_skeleton,2022.2.2,59.7698709684602,
None,None,,,,,,,,,0,0,0,0,7,0,28,3,,,,,,,,,3026.0422492176294,stop,circleblack.png,left,0.25,,,,,,,,,,,,,,,,,,0.002191361039876938,0.4862077385187149,0.7364637330174446,3028.5444819293916,test,1,,,,,,,3026.0629353933036,3026.555558141321,3026.555558141321,3026.5722391046584,3026.8058593049645,3027.3066644370556,3027.556647967547,3028.5657848753035,None,0,,0.3,,,,,,,,,,,s011,001,2024-07-23_17h40.35.041,simplestop_skeleton,2022.2.2,59.7698709684602,
None,None,,,,,,,,,0,0,0,0,7,1,29,1,,,,,,,,,3028.5449384748936,stop,squareblack.png,right,0.3,,,,,,,,,,,,,,,,,,0.0023984573781490326,0.48616933077573776,0.7863788940012455,3031.047261785716,test,1,,,,,,,3028.5657848753035,3029.058372102678,3029.058372102678,3029.075124539435,3029.3587556891143,3029.859407477081,3030.0596733279526,3031.0684506632388,None,0,,0.35,,,,,,,,,,,s011,001,2024-07-23_17h40.35.041,simplestop_skeleton,2022.2.2,59.7698709684602,
$currentCorrectResponse,$currentGoStim,,,,,,,,,0,0,0,0,7,2,30,0,,,,,,,,,3031.047724943608,go,circleblack.png,left,0.35,,,,,,,,,,,,,,,,,,0.0027166716754436493,0.4865138791501522,,3033.5498986057937,test,1,,,,,,,3031.0684506632388,3031.5612090863287,3031.5612090863287,3031.578037187457,3031.911515619606,3032.4120549708605,3032.5622344091535,3033.571135647595,left,1,0.5133284963667393,0.35,,,,,,,,,,,s011,001,2024-07-23_17h40.35.041,simplestop_skeleton,2022.2.2,59.7698709684602,
None,None,,,,,,,,,0,0,0,0,7,3,31,2,,,,,,,,,3033.5503954850137,go,squareblack.png,right,0.35,,,,,,,,,,,,,,,,,,0.0022824443876743317,0.4862470179796219,,3036.052563495934,test,1,,,,,,,3033.571135647595,3034.0638145916164,3034.0638145916164,3034.0805218294263,3034.414322130382,3034.915037807077,3035.0649333000183,3036.073626577854,right,1,0.48668109998106956,0.35,,,,,,,,,,,s011,001,2024-07-23_17h40.35.041,simplestop_skeleton,2022.2.2,59.7698709684602,
None,None,,,,,,,,,0,0,0,0,8,0,32,3,,,,,,,,,3036.0530339367688,go,squareblack.png,right,0.35,,,,,,,,,,,,,,,,,,0.0022581256926059723,0.4865417778491974,,3038.555382940918,test,1,,,,,,,3036.073626577854,3036.566583868116,3036.566583868116,3036.583476230502,3036.9170532748103,3037.4176453985274,3037.567774012685,3038.576034426689,right,1,0.4673541262745857,0.35,,,,,,,,,,,s011,001,2024-07-23_17h40.35.041,simplestop_skeleton,2022.2.2,59.7698709684602,
None,None,,,,,,,,,0,0,0,0,8,1,33,3,,,,,,,,,3038.5558889470994,go,squareblack.png,right,0.35,,,,,,,,,,,,,,,,,,0.0020487718284130096,0.4864420108497143,,3041.0581923499703,test,1,,,,,,,3038.576034426689,3039.0695504769683,3039.0695504769683,3039.0862070806324,3039.4198166765273,3039.920468606055,3040.0705548748374,3041.085203971714,right,1,0.47534307837486267,0.35,,,,,,,,,,,s011,001,2024-07-23_17h40.35.041,simplestop_skeleton,2022.2.2,59.7698709684602,
None,None,,,,,,,,,0,0,0,0,8,2,34,1,,,,,,,,,3041.058696139604,go,circleblack.png,left,0.35,,,,,,,,,,,,,,,,,,0.008301611989736557,0.48653919249773026,,3043.5609899759293,test,1,,,,,,,3041.085203971714,3041.5721153207123,3041.5721153207123,3041.5889161527157,3041.9226094782352,3042.4251663051546,3042.5732968449593,3043.582461938262,left,1,0.5090033560991287,0.35,,,,,,,,,,,s011,001,2024-07-23_17h40.35.041,simplestop_skeleton,2022.2.2,59.7698709684602,
$currentCorrectResponse,$currentGoStim,,,,,,,,,0,0,0,0,8,3,35,0,,,,,,,,,3043.561474237591,go,squareblack.png,right,0.35,,,,,,,,,,,,,,,,,,0.0025449655950069427,0.48642002791166306,,3046.063706252724,test,1,,,,,,,3043.582461938262,3044.0749674476683,3044.0749674476683,3044.091619629413,3044.4255442358553,3044.926132373512,3045.0760837309062,3046.084721595049,right,1,0.4140995889902115,0.35,,,,,,,,,,,s011,001,2024-07-23_17h40.35.041,simplestop_skeleton,2022.2.2,59.7698709684602,
$currentCorrectResponse,$currentGoStim,,,,,,,,,0,0,0,0,9,0,36,0,,,,,,,,,3046.064181022346,go,circleblack.png,left,0.35,,,,,,,,,,,,,,,,,,0.0024172216653823853,0.48653654381632805,,3048.5665636360645,test,1,,,,,,,3046.084721595049,3046.5777412988245,3046.5777412988245,3046.594529617578,3046.9280666299164,3047.428958415985,3047.5788207277656,3048.5881242752075,left,1,0.4839097373187542,0.35,,,,,,,,,,,s011,001,2024-07-23_17h40.35.041,simplestop_skeleton,2022.2.2,59.7698709684602,
None,None,,,,,,,,,0,0,0,0,9,1,37,3,,,,,,,,,3048.5670661106706,go,circleblack.png,left,0.35,,,,,,,,,,,,,,,,,,0.0014452487230300903,0.4848741367459297,,3051.069222640246,test,1,,,,,,,3048.5881242752075,3049.08048132807,3049.08048132807,3049.0970874279737,3049.43104827404,3049.931630603969,3050.081600934267,3051.0912325382233,left,1,0.3798710107803345,0.35,,,,,,,,,,,s011,001,2024-07-23_17h40.35.041,simplestop_skeleton,2022.2.2,59.7698709684602,
$currentCorrectResponse,$currentGoStim,,,,,,,,,0,0,0,0,9,2,38,0,,,,,,,,,3051.069712281227,stop,squareblack.png,right,0.35,,,,,,,,,,,,,,,,,,0.0025419294834136963,0.4858034662902355,0.836159847676754,3053.5720586702228,test,1,,,,,,,3051.0912325382233,3051.5831806734204,3051.5831806734204,3051.599895078689,3051.9336802847683,3052.4341973662376,3052.584311142564,3053.59380659461,right,1,0.43751560524106026,0.3,,,,,,,,,,,s011,001,2024-07-23_17h40.35.041,simplestop_skeleton,2022.2.2,59.7698709684602,
None,None,,,,,,,,,0,0,0,0,9,3,39,2,,,,,,,,,3053.572534803301,go,circleblack.png,left,0.3,,,,,,,,,,,,,,,,,,0.0026838183403015137,0.4859608933329582,,3056.0747444294393,test,1,,,,,,,3053.59380659461,3054.0860124640167,3054.0860124640167,3054.102680593729,3054.386267479509,3054.886916041374,3055.0870891474187,3056.0951351113617,left,1,0.4546220265328884,0.3,,,,,,,,,,,s011,001,2024-07-23_17h40.35.041,simplestop_skeleton,2022.2.2,59.7698709684602,
None,None,,,,,,,,,0,0,0,0,10,0,40,1,,,,,,,,,3056.075205732137,go,squareblack.png,right,0.3,,,,,,,,,,,,,,,,,,0.002430912107229233,0.4867931865155697,,3058.577511560172,test,1,,,,,,,3056.0951351113617,3056.5888599827886,3056.5888599827886,3056.605467170477,3056.89146162197,3057.391375631094,3057.589837692678,3058.5989709943533,right,1,0.42738131061196327,0.3,,,,,,,,,,,s011,001,2024-07-23_17h40.35.041,simplestop_skeleton,2022.2.2,59.7698709684602,
None,None,,,,,,,,,0,0,0,0,10,1,41,2,,,,,,,,,3058.577990759164,go,circleblack.png,left,0.3,,,,,,,,,,,,,,,,,,0.0025132931768894196,0.4862387254834175,,3061.0802289769053,test,1,,,,,,,3058.5989709943533,3059.0914458557963,3059.0914458557963,3059.10825137794,3059.3920988850296,3059.8925806097686,3060.0926731564105,3061.1021270379424,left,1,0.42981261759996414,0.3,,,,,,,,,,,s011,001,2024-07-23_17h40.35.041,simplestop_skeleton,2022.2.2,59.7698709684602,
None,None,,,,,,,,,0,0,0,0,10,2,42,2,,,,,,,,,3061.0806820616126,go,squareblack.png,right,0.3,,,,,,,,,,,,,,,,,,0.002580072730779648,0.4860812649130821,,3063.582878641784,test,1,,,,,,,3061.1021270379424,3061.594233673066,3061.594233673066,3061.610984425992,3061.8947624079883,3062.3953154608607,3062.595451630652,3063.6033955700696,right,1,0.36529821902513504,0.3,,,,,,,,,,,s011,001,2024-07-23_17h40.35.041,simplestop_skeleton,2022.2.2,59.7698709684602,
None,None,,,,,,,,,0,0,0,0,10,3,43,1,,,,,,,,,3063.583339769393,stop,squareblack.png,right,0.3,,,,,,,,,,,,,,,,,,0.0020379312336444855,0.4866938851773739,0.7869230546057224,3066.085791166872,test,1,,,,,,,3063.6033955700696,3064.0971091762185,3064.0971091762185,3064.113636303693,3064.3973834998906,3064.897930521518,3065.098049353808,3066.1079715900123,right,1,0.3742888979613781,0.25,,,,,,,,,,,s011,001,2024-07-23_17h40.35.041,simplestop_skeleton,2022.2.2,59.7698709684602,
None,None,,,,,,,,,0,0,0,0,11,0,44,1,,,,,,,,,3066.0862497240305,stop,circleblack.png,left,0.25,,,,,,,,,,,,,,,,,,0.002916347235441208,0.48595385253429413,0.736260436475277,3068.588465668261,test,1,,,,,,,3066.1079715900123,3066.599887922406,3066.599887922406,3066.6164823547006,3066.8501978591084,3067.350661162287,3067.6008412651718,3068.6074690893292,None,0,,0.3,,,,,,,,,,,s011,001,2024-07-23_17h40.35.041,simplestop_skeleton,2022.2.2,59.7698709684602,
$currentCorrectResponse,$currentGoStim,,,,,,,,,0,0,0,0,11,1,45,0,,,,,,,,,3068.5889602303505,go,squareblack.png,right,0.3,,,,,,,,,,,,,,,,,,0.0021837688982486725,0.4862409308552742,,3071.0892594903708,test,1,,,,,,,3068.6074690893292,3069.1026278808713,3069.1026278808713,3069.1193351000547,3069.4028402492404,3069.9034861437976,3070.1037198267877,3071.106679197401,right,1,0.5249009914696217,0.3,,,,,,,,,,,s011,001,2024-07-23_17h40.35.041,simplestop_skeleton,2022.2.2,59.7698709684602,
None,None,,,,,,,,,0,0,0,0,11,2,46,1,,,,,,,,,3071.0897151231766,stop,circleblack.png,left,0.3,,,,,,,,,,,,,,,,,,0.0016981549561023712,0.48956337198615074,0.7910660281777382,3073.594355020672,test,1,,,,,,,3071.106679197401,3071.605322148651,3071.605322148651,3071.621995937079,3071.9066388495266,3072.4062233269215,3072.606311045587,3073.6131640784442,left,1,0.412127822637558,0.25,,,,,,,,,,,s011,001,2024-07-23_17h40.35.041,simplestop_skeleton,2022.2.2,59.7698709684602,
None,None,,,,,,,,,0,0,0,0,11,3,47,2,,,,,,,,,3073.594829875976,go,squareblack.png,right,0.25,,,,,,,,,,,,,,,,,,0.0021731145679950714,0.48545264825224876,,3076.096773736179,test,1,,,,,,,3073.6131640784442,3074.1080800518394,3074.1080800518394,3074.1247826330364,3074.358397487551,3074.8589329719543,3075.1091468930244,3076.1174673885107,right,1,0.46047936007380486,0.25,,,,,,,,,,,s011,001,2024-07-23_17h40.35.041,simplestop_skeleton,2022.2.2,59.7698709684602,
,,,,,,,,,,0,0,0,0,,,,,,"[{'fileName': 'circleblack.png', 'correct_response': 'left', 'condition': 'go'}, {'fileName': 'squareblack.png', 'correct_response': 'right', 'condition': 'go'}, {'fileName': 'circleblack.png', 'correct_response': 'left', 'condition': 'stop'}, {'fileName': 'circleblack.png', 'correct_response': 'left', 'condition': 'stop'}, {'fileName': 'circleblack.png', 'correct_response': 'left', 'condition': 'go'}, {'fileName': 'circleblack.png', 'correct_response': 'left', 'condition': 'go'}, {'fileName': 'squareblack.png', 'correct_response': 'right', 'condition': 'go'}, {'fileName': 'squareblack.png', 'correct_response': 'right', 'condition': 'stop'}, {'fileName': 'squareblack.png', 'correct_response': 'right', 'condition': 'go'}, {'fileName': 'circleblack.png', 'correct_response': 'left', 'condition': 'go'}, {'fileName': 'squareblack.png', 'correct_response': 'right', 'condition': 'stop'}, {'fileName': 'squareblack.png', 'correct_response': 'right', 'condition': 'go'}, {'fileName': 'circleblack.png', 'correct_response': 'left', 'condition': 'go'}, {'fileName': 'circleblack.png', 'correct_response': 'left', 'condition': 'go'}, {'fileName': 'squareblack.png', 'correct_response': 'right', 'condition': 'go'}, {'fileName': 'circleblack.png', 'correct_response': 'left', 'condition': 'stop'}, {'fileName': 'squareblack.png', 'correct_response': 'right', 'condition': 'go'}, {'fileName': 'circleblack.png', 'correct_response': 'left', 'condition': 'stop'}, {'fileName': 'circleblack.png', 'correct_response': 'left', 'condition': 'go'}, {'fileName': 'circleblack.png', 'correct_response': 'left', 'condition': 'go'}, {'fileName': 'squareblack.png', 'correct_response': 'right', 'condition': 'go'}, {'fileName': 'squareblack.png', 'correct_response': 'right', 'condition': 'go'}, {'fileName': 'squareblack.png', 'correct_response': 'right', 'condition': 'stop'}, {'fileName': 'squareblack.png', 'correct_response': 'right', 'condition': 'stop'}, {'fileName': 'squareblack.png', 'correct_response': 'right', 'condition': 'stop'}, {'fileName': 'squareblack.png', 'correct_response': 'right', 'condition': 'go'}, {'fileName': 'squareblack.png', 'correct_response': 'right', 'condition': 'go'}, {'fileName': 'circleblack.png', 'correct_response': 'left', 'condition': 'go'}, {'fileName': 'circleblack.png', 'correct_response': 'left', 'condition': 'go'}, {'fileName': 'circleblack.png', 'correct_response': 'left', 'condition': 'stop'}, {'fileName': 'squareblack.png', 'correct_response': 'right', 'condition': 'stop'}, {'fileName': 'circleblack.png', 'correct_response': 'left', 'condition': 'stop'}, {'fileName': 'circleblack.png', 'correct_response': 'left', 'condition': 'go'}, {'fileName': 'circleblack.png', 'correct_response': 'left', 'condition': 'go'}, {'fileName': 'squareblack.png', 'correct_response': 'right', 'condition': 'go'}, {'fileName': 'squareblack.png', 'correct_response': 'right', 'condition': 'go'}, {'fileName': 'circleblack.png', 'correct_response': 'left', 'condition': 'go'}, {'fileName': 'squareblack.png', 'correct_response': 'right', 'condition': 'stop'}, {'fileName': 'squareblack.png', 'correct_response': 'right', 'condition': 'go'}, {'fileName': 'squareblack.png', 'correct_response': 'right', 'condition': 'go'}, {'fileName': 'circleblack.png', 'correct_response': 'left', 'condition': 'go'}, {'fileName': 'squareblack.png', 'correct_response': 'right', 'condition': 'go'}, {'fileName': 'circleblack.png', 'correct_response': 'left', 'condition': 'go'}, {'fileName': 'squareblack.png', 'correct_response': 'right', 'condition': 'go'}, {'fileName': 'circleblack.png', 'correct_response': 'left', 'condition': 'go'}, {'fileName': 'circleblack.png', 'correct_response': 'left', 'condition': 'stop'}, {'fileName': 'squareblack.png', 'correct_response': 'right', 'condition': 'stop'}, {'fileName': 'circleblack.png', 'correct_response': 'left', 'condition': 'stop'}]",,,,,,,,,,,,,,,,,,,,,,,,,,,,,,,,,,,,,,,,,,,,,,,,,,,,,3076.1174673885107,3076.1174673885107,return,8.297175042331219,,,,,,,s011,001,2024-07-23_17h40.35.041,simplestop_skeleton,2022.2.2,59.7698709684602,
None,None,,,,,,,,,1,0,1,0,0,0,0,2,,,,,,,,,3084.4390682280064,go,circleblack.png,left,0.25,,,,,,,,,,,,,,,,,,0.0019162148237228394,0.4895385690033436,,3086.941815637052,test,2,,,,,,,3084.457628592849,3084.9548699110746,3084.9548699110746,3084.971499443054,3085.205044619739,3085.7055346257985,3085.956080812961,3086.9613919258118,left,1,0.3336644731462002,0.25,,,,,,,,,,,s011,001,2024-07-23_17h40.35.041,simplestop_skeleton,2022.2.2,59.7698709684602,
None,None,,,,,,,,,1,0,1,0,0,1,1,3,,,,,,,,,3086.9423536360264,go,squareblack.png,right,0.25,,,,,,,,,,,,,,,,,,0.0018497109413146973,0.48905593529343605,,3089.443916540593,test,2,,,,,,,3086.9613919258118,3087.4577536322176,3087.4577536322176,3087.47416870296,3087.7079065181315,3088.207142993808,3088.4574639946222,3089.4626517929137,right,1,0.37239358574151993,0.25,,,,,,,,,,,s011,001,2024-07-23_17h40.35.041,simplestop_skeleton,2022.2.2,59.7698709684602,
$currentCorrectResponse,$currentGoStim,,,,,,,,,1,0,1,0,0,2,2,0,,,,,,,,,3089.4443757236004,stop,circleblack.png,left,0.25,,,,,,,,,,,,,,,,,,0.0020205900073051453,0.4880244955420494,0.7383854687213898,3091.947333123535,test,2,,,,,,,3089.4626517929137,3089.958897598088,3089.958897598088,3089.9756035469472,3090.2091475874186,3090.7097904123366,3090.9602367952466,3091.965865135193,left,1,0.3904380276799202,0.2,,,,,,,,,,,s011,001,2024-07-23_17h40.35.041,simplestop_skeleton,2022.2.2,59.7698709684602,
None,None,,,,,,,,,1,0,1,0,0,3,3,1,,,,,,,,,3091.9477942325175,stop,circleblack.png,left,0.2,,,,,,,,,,,,,,,,,,0.00223565474152565,0.4871733672916889,0.6873810067772865,3094.449756190181,test,2,,,,,,,3091.965865135193,3092.461732070893,3092.461732070893,3092.478364877403,3092.66185702011,3093.1625221408904,3093.462890755385,3094.4684973061085,None,0,,0.25,,,,,,,,,,,s011,001,2024-07-23_17h40.35.041,simplestop_skeleton,2022.2.2,59.7698709684602,
None,None,,,,,,,,,1,0,1,0,1,0,4,2,,,,,,,,,3094.450200870633,go,circleblack.png,left,0.25,,,,,,,,,,,,,,,,,,0.0020172446966171265,0.48742230609059334,,3096.9511459842324,test,2,,,,,,,3094.4684973061085,3094.9644037894905,3094.9644037894905,3094.9812090471387,3095.214719261974,3095.7170507460833,3095.9674582369626,3096.967972088605,left,1,0.4809938780963421,0.25,,,,,,,,,,,s011,001,2024-07-23_17h40.35.041,simplestop_skeleton,2022.2.2,59.7698709684602,
None,None,,,,,,,,,1,0,1,0,1,1,5,3,,,,,,,,,3096.9515965357423,go,circleblack.png,left,0.25,,,,,,,,,,,,,,,,,,0.0012385249137878418,0.48982498422265053,,3099.4571492001414,test,2,,,,,,,3096.967972088605,3097.467150967568,3097.467150967568,3097.467150967568,3097.717423081398,3098.218115836382,3098.4683495797217,3099.4773510470986,left,1,0.4902815520763397,0.25,,,,,,,,,,,s011,001,2024-07-23_17h40.35.041,simplestop_skeleton,2022.2.2,59.7698709684602,
$currentCorrectResponse,$currentGoStim,,,,,,,,,1,0,1,0,1,2,6,0,,,,,,,,,3099.4580665677786,go,squareblack.png,right,0.25,,,,,,,,,,,,,,,,,,0.0022790320217609406,0.48347343131899834,,3101.957516439259,test,2,,,,,,,3099.4773510470986,3099.969917591661,3099.969917591661,3099.9867080263793,3100.220229201019,3100.721120554954,3100.971836090088,3101.974670305848,right,1,0.5301712341606617,0.25,,,,,,,,,,,s011,001,2024-07-23_17h40.35.041,simplestop_skeleton,2022.2.2,59.7698709684602,
$currentCorrectResponse,$currentGoStim,,,,,,,,,1,0,1,0,1,3,7,0,,,,,,,,,3101.957950286567,stop,squareblack.png,right,0.25,,,,,,,,,,,,,,,,,,0.0012834444642066956,0.4903276674449444,0.7387789562344551,3104.4599676802754,test,2,,,,,,,3101.974670305848,3102.474063079804,3102.474063079804,3102.474063079804,3102.7229962833226,3103.223542135209,3103.4747594743967,3104.476713836193,right,1,0.3733369782567024,0.2,,,,,,,,,,,s011,001,2024-07-23_17h40.35.041,simplestop_skeleton,2022.2.2,59.7698709684602,
None,None,,,,,,,,,1,0,1,0,2,0,8,1,,,,,,,,,3104.460443805903,go,squareblack.png,right,0.2,,,,,,,,,,,,,,,,,,0.0011622793972492218,0.4891852177679539,,3106.9623647481203,test,2,,,,,,,3104.476713836193,3104.9754846282303,3104.9754846282303,3104.992061432451,3105.175688635558,3105.6761440485716,3105.9774751476943,3106.9797814264894,right,1,0.5130122415721416,0.2,,,,,,,,,,,s011,001,2024-07-23_17h40.35.041,simplestop_skeleton,2022.2.2,59.7698709684602,
None,None,,,,,,,,,1,0,1,0,2,1,9,2,,,,,,,,,3106.9628078974783,go,circleblack.png,left,0.2,,,,,,,,,,,,,,,,,,0.0019081346690654755,0.48964718356728554,,3109.465046543628,test,2,,,,,,,3106.9797814264894,3107.478226944804,3107.478226944804,3107.4949707761407,3107.67836843431,3108.1791715845466,3108.479500371963,3109.4824726320803,left,1,0.44026193767786026,0.2,,,,,,,,,,,s011,001,2024-07-23_17h40.35.041,simplestop_skeleton,2022.2.2,59.7698709684602,
None,None,,,,,,,,,1,0,1,0,2,2,10,3,,,,,,,,,3109.46549461782,stop,squareblack.png,right,0.2,,,,,,,,,,,,,,,,,,0.0015920624136924744,0.489786971360445,0.6899228058755398,3111.9676024764776,test,2,,,,,,,3109.4824726320803,3109.980993285775,3109.980993285775,3109.997745644301,3110.1811693012714,3110.68173347041,3110.98407163471,3111.9845937527716,None,0,,0.25,,,,,,,,,,,s011,001,2024-07-23_17h40.35.041,simplestop_skeleton,2022.2.2,59.7698709684602,
None,None,,,,,,,,,1,0,1,0,2,3,11,2,,,,,,,,,3111.968039236963,go,squareblack.png,right,0.25,,,,,,,,,,,,,,,,,,0.001155257225036621,0.4900527782738209,,3114.4705786183476,test,2,,,,,,,3111.9845937527716,3112.4837370552123,3112.4837370552123,3112.4837370552123,3112.7339985258877,3113.234549280256,3113.486132927239,3114.488139681518,right,1,0.4531039074063301,0.25,,,,,,,,,,,s011,001,2024-07-23_17h40.35.041,simplestop_skeleton,2022.2.2,59.7698709684602,
None,None,,,,,,,,,1,0,1,0,3,0,12,3,,,,,,,,,3114.4710113704205,go,circleblack.png,left,0.25,,,,,,,,,,,,,,,,,,0.0018733590841293335,0.4898017346858978,,3116.9732391536236,test,2,,,,,,,3114.488139681518,3114.986487329006,3114.986487329006,3115.00307931751,3115.2368241623044,3115.7373316064477,3115.9877135045826,3116.990158122033,left,1,0.4716567397117615,0.25,,,,,,,,,,,s011,001,2024-07-23_17h40.35.041,simplestop_skeleton,2022.2.2,59.7698709684602,
None,None,,,,,,,,,1,0,1,0,3,1,13,3,,,,,,,,,3116.9736697226763,go,circleblack.png,left,0.25,,,,,,,,,,,,,,,,,,0.0012517049908638,0.48955782130360603,,3119.4770680852234,test,2,,,,,,,3116.990158122033,3117.4892414025962,3117.4892414025962,3117.4892414025962,3117.739576473832,3118.240073237568,3118.4905552193522,3119.496816713363,left,1,0.527403686195612,0.25,,,,,,,,,,,s011,001,2024-07-23_17h40.35.041,simplestop_skeleton,2022.2.2,59.7698709684602,
None,None,,,,,,,,,1,0,1,0,3,2,14,2,,,,,,,,,3119.477534264326,go,squareblack.png,right,0.25,,,,,,,,,,,,,,,,,,0.002682894468307495,0.4892781972885132,,3121.9796815775335,test,2,,,,,,,3119.496816713363,3119.993508491665,3119.993508491665,3120.0101151056588,3120.2423403151333,3120.74281803146,3120.9932481199503,3121.997358430177,right,1,0.513899177312851,0.25,,,,,,,,,,,s011,001,2024-07-23_17h40.35.041,simplestop_skeleton,2022.2.2,59.7698709684602,
$currentCorrectResponse,$currentGoStim,,,,,,,,,1,0,1,0,3,3,15,0,,,,,,,,,3121.9801228120923,stop,circleblack.png,left,0.25,,,,,,,,,,,,,,,,,,0.001922503113746643,0.48872120678424835,0.738836295902729,3124.481692507863,test,2,,,,,,,3121.997358430177,3122.494965787977,3122.494965787977,3122.5117588825524,3122.745067935437,3123.245632637292,3123.497061789036,3124.4997531324625,None,0,,0.3,,,,,,,,,,,s011,001,2024-07-23_17h40.35.041,simplestop_skeleton,2022.2.2,59.7698709684602,
None,None,,,,,,,,,1,0,1,0,4,0,16,3,,,,,,,,,3124.482173472643,go,squareblack.png,right,0.3,,,,,,,,,,,,,,,,,,0.001715872436761856,0.4910459667444229,,3126.984240744263,test,2,,,,,,,3124.4997531324625,3124.999410107732,3124.999410107732,3124.999410107732,3125.297928098589,3125.798550002277,3125.9999557361007,3127.0017501227558,right,1,0.4070775657892227,0.3,,,,,,,,,,,s011,001,2024-07-23_17h40.35.041,simplestop_skeleton,2022.2.2,59.7698709684602,
$currentCorrectResponse,$currentGoStim,,,,,,,,,1,0,1,0,4,1,17,0,,,,,,,,,3126.984699949622,stop,circleblack.png,left,0.3,,,,,,,,,,,,,,,,,,0.0017010234296321869,0.4897475950419903,0.7900804989039898,3129.487042605877,test,2,,,,,,,3127.0017501227558,3127.5004466213286,3127.5004466213286,3127.5171523466706,3127.800693731755,3128.301185026765,3128.501322787255,3129.50381635502,left,1,0.48637425899505615,0.25,,,,,,,,,,,s011,001,2024-07-23_17h40.35.041,simplestop_skeleton,2022.2.2,59.7698709684602,
None,None,,,,,,,,,1,0,1,0,4,2,18,1,,,,,,,,,3129.487478259951,go,circleblack.png,left,0.25,,,,,,,,,,,,,,,,,,0.0012358017265796661,0.49100343883037567,,3131.989902820438,test,2,,,,,,,3129.50381635502,3130.0038829371333,3130.0038829371333,3130.0038829371333,3130.2553900405765,3130.770682424307,3131.004424083978,3132.021097484976,left,1,0.47300776094198227,0.25,,,,,,,,,,,s011,001,2024-07-23_17h40.35.041,simplestop_skeleton,2022.2.2,59.7698709684602,
None,None,,,,,,,,,1,0,1,0,4,3,19,3,,,,,,,,,3131.990403570235,go,circleblack.png,left,0.25,,,,,,,,,,,,,,,,,,0.001295343041419983,0.4895181506872177,,3134.4944287091494,test,2,,,,,,,3132.021097484976,3132.5064235962927,3132.5064235962927,3132.522809408605,3132.7575896531343,3133.2567156739533,3133.506948709488,3134.516977738589,left,1,0.4908486679196358,0.25,,,,,,,,,,,s011,001,2024-07-23_17h40.35.041,simplestop_skeleton,2022.2.2,59.7698709684602,
None,None,,,,,,,,,1,0,1,0,5,0,20,1,,,,,,,,,3134.4948943667114,go,squareblack.png,right,0.25,,,,,,,,,,,,,,,,,,0.007230527698993683,0.4873274639248848,,3136.9973980225623,test,2,,,,,,,3134.516977738589,3135.0085859522223,3135.0085859522223,3135.025211341679,3135.2587920986116,3135.7595601566136,3136.0096166692674,3137.018586654216,right,1,0.40464915707707405,0.25,,,,,,,,,,,s011,001,2024-07-23_17h40.35.041,simplestop_skeleton,2022.2.2,59.7698709684602,
None,None,,,,,,,,,1,0,1,0,5,1,21,1,,,,,,,,,3136.9978602938354,go,squareblack.png,right,0.25,,,,,,,,,,,,,,,,,,0.0022218264639377594,0.48608216643333435,,3139.5001076310873,test,2,,,,,,,3137.018586654216,3137.5113212019205,3137.5113212019205,3137.5280378237367,3137.761641032994,3138.262515295297,3138.5125176534057,3139.523298256099,right,1,0.39178335294127464,0.25,,,,,,,,,,,s011,001,2024-07-23_17h40.35.041,simplestop_skeleton,2022.2.2,59.7698709684602,
$currentCorrectResponse,$currentGoStim,,,,,,,,,1,0,1,0,5,2,22,0,,,,,,,,,3139.500597011298,stop,squareblack.png,right,0.25,,,,,,,,,,,,,,,,,,0.0014264844357967377,0.4835257939994335,0.7338216342031956,3142.0030299164355,test,2,,,,,,,3139.523298256099,3140.014102023095,3140.014102023095,3140.0308449678123,3140.2643519751728,3140.765131853521,3141.0153884366155,3142.023945938796,None,0,,0.3,,,,,,,,,,,s011,001,2024-07-23_17h40.35.041,simplestop_skeleton,2022.2.2,59.7698709684602,
$currentCorrectResponse,$currentGoStim,,,,,,,,,1,0,1,0,5,3,23,0,,,,,,,,,3142.003510605544,stop,squareblack.png,right,0.3,,,,,,,,,,,,,,,,,,0.0020166970789432526,0.4863949827849865,0.7865548655390739,3144.5055586248636,test,2,,,,,,,3142.023945938796,3142.5168784447014,3142.5168784447014,3142.5335873402655,3142.8172768242657,3143.3178905546665,3143.517936654389,3144.526081521064,None,0,,0.35,,,,,,,,,,,s011,001,2024-07-23_17h40.35.041,simplestop_skeleton,2022.2.2,59.7698709684602,
$currentCorrectResponse,$currentGoStim,,,,,,,,,1,0,1,0,6,0,24,0,,,,,,,,,3144.5060094185174,stop,squareblack.png,right,0.35,,,,,,,,,,,,,,,,,,0.002198893576860428,0.4866042658686638,0.8371068090200424,3147.0077908970416,test,2,,,,,,,3144.526081521064,3145.019684828818,3145.019684828818,3145.0363049060106,3145.370056118816,3145.8706778138876,3146.0209888368845,3147.02726983279,right,1,0.4747254028916359,0.3,,,,,,,,,,,s011,001,2024-07-23_17h40.35.041,simplestop_skeleton,2022.2.2,59.7698709684602,
None,None,,,,,,,,,1,0,1,0,6,1,25,3,,,,,,,,,3147.0082646347582,go,squareblack.png,right,0.3,,,,,,,,,,,,,,,,,,0.0019211545586585999,0.4863327890634537,,3149.510312240571,test,2,,,,,,,3147.02726983279,3147.52235429734,3147.52235429734,3147.5390166826546,3147.8227123878896,3148.3238524720073,3148.523635994643,3149.52905806154,right,1,0.5630022063851357,0.3,,,,,,,,,,,s011,001,2024-07-23_17h40.35.041,simplestop_skeleton,2022.2.2,59.7698709684602,
None,None,,,,,,,,,1,0,1,0,6,2,26,1,,,,,,,,,3149.5110227018595,go,squareblack.png,right,0.3,,,,,,,,,,,,,,,,,,0.0017805397510528564,0.48710285499691963,,3152.0118336193264,test,2,,,,,,,3149.52905806154,3150.025675114244,3150.025675114244,3150.042030002922,3150.325511597097,3150.8260858953,3151.0263536460698,3152.0316118635237,right,1,0.5348741710186005,0.3,,,,,,,,,,,s011,001,2024-07-23_17h40.35.041,simplestop_skeleton,2022.2.2,59.7698709684602,
None,None,,,,,,,,,1,0,1,0,6,3,27,2,,,,,,,,,3152.0122658759356,go,circleblack.png,left,0.3,,,,,,,,,,,,,,,,,,0.004936210811138153,0.4902227707207203,,3154.514520738274,test,2,,,,,,,3152.0316118635237,3152.527882784605,3152.527882784605,3152.544580373913,3152.828317783773,3153.328783739358,3153.5294145941734,3154.5314019061625,left,1,0.5161375738680363,0.3,,,,,,,,,,,s011,001,2024-07-23_17h40.35.041,simplestop_skeleton,2022.2.2,59.7698709684602,
None,None,,,,,,,,,1,0,1,0,7,0,28,1,,,,,,,,,3154.5149644352496,go,circleblack.png,left,0.3,,,,,,,,,,,,,,,,,,0.0012346245348453522,0.49003713577985764,,3157.017374113202,test,2,,,,,,,3154.5314019061625,3155.0307734385133,3155.0307734385133,3155.0307734385133,3155.330988433212,3155.8315352126956,3156.03190119192,3157.034324582666,left,1,0.42065639793872833,0.3,,,,,,,,,,,s011,001,2024-07-23_17h40.35.041,simplestop_skeleton,2022.2.2,59.7698709684602,
None,None,,,,,,,,,1,0,1,0,7,1,29,2,,,,,,,,,3157.0178977660835,stop,circleblack.png,left,0.3,,,,,,,,,,,,,,,,,,0.0012369975447654724,0.48973287269473076,0.7900544218719006,3159.5206708833575,test,2,,,,,,,3157.034324582666,3157.5333932451904,3157.5333932451904,3157.5333932451904,3157.833789795637,3158.335262425244,3158.5355738811195,3159.538773033768,None,0,,0.35,,,,,,,,,,,s011,001,2024-07-23_17h40.35.041,simplestop_skeleton,2022.2.2,59.7698709684602,
None,None,,,,,,,,,1,0,1,0,7,2,30,2,,,,,,,,,3159.5211424678564,stop,squareblack.png,right,0.35,,,,,,,,,,,,,,,,,,0.0017338357865810394,0.4888313449919224,0.8389612026512623,3162.0229109972715,test,2,,,,,,,3159.538773033768,3160.0363943241537,3160.0363943241537,3160.0531637892127,3160.3866315484047,3160.8872708901763,3161.0384805873036,3162.040494635701,None,0,,0.4,,,,,,,,,,,s011,001,2024-07-23_17h40.35.041,simplestop_skeleton,2022.2.2,59.7698709684602,
None,None,,,,,,,,,1,0,1,0,7,3,31,3,,,,,,,,,3162.023363418877,stop,circleblack.png,left,0.4,,,,,,,,,,,,,,,,,,0.0016815178096294403,0.4914346747100353,0.8899208940565586,3164.525912221521,test,2,,,,,,,3162.040494635701,3162.5407908037305,3162.5407908037305,3162.5407908037305,3162.939571995288,3163.440037585795,3163.540021046996,3164.543024946004,left,1,0.48131082206964493,0.35,,,,,,,,,,,s011,001,2024-07-23_17h40.35.041,simplestop_skeleton,2022.2.2,59.7698709684602,
None,None,,,,,,,,,1,0,1,0,8,0,32,1,,,,,,,,,3164.5263626351953,go,circleblack.png,left,0.35,,,,,,,,,,,,,,,,,,0.0012322552502155304,0.49001022428274155,,3167.028373543173,test,2,,,,,,,3164.543024946004,3165.042138118297,3165.042138118297,3165.042138118297,3165.3923914395273,3165.892722401768,3166.0427779890597,3167.045119717717,left,1,0.5306232534348965,0.35,,,,,,,,,,,s011,001,2024-07-23_17h40.35.041,simplestop_skeleton,2022.2.2,59.7698709684602,
None,None,,,,,,,,,1,0,1,0,8,1,33,1,,,,,,,,,3167.0288221761584,go,circleblack.png,left,0.35,,,,,,,,,,,,,,,,,,0.0012130513787269592,0.48978275433182716,,3169.5312816128135,test,2,,,,,,,3167.045119717717,3167.5444041341543,3167.5444041341543,3167.5444041341543,3167.895088698715,3168.3954006135464,3168.5455618053675,3169.548780132085,left,1,0.5580759085714817,0.35,,,,,,,,,,,s011,001,2024-07-23_17h40.35.041,simplestop_skeleton,2022.2.2,59.7698709684602,
$currentCorrectResponse,$currentGoStim,,,,,,,,,1,0,1,0,8,2,34,0,,,,,,,,,3169.531724639237,go,squareblack.png,right,0.35,,,,,,,,,,,,,,,,,,0.0016649998724460602,0.48951392248272896,,3172.0358250960708,test,2,,,,,,,3169.548780132085,3170.0472344383597,3170.0472344383597,3170.063950806856,3170.3985773436725,3170.8981747478247,3171.048285469413,3172.053593032062,right,1,0.5162727870047092,0.35,,,,,,,,,,,s011,001,2024-07-23_17h40.35.041,simplestop_skeleton,2022.2.2,59.7698709684602,
None,None,,,,,,,,,1,0,1,0,8,3,35,3,,,,,,,,,3172.036296647042,go,squareblack.png,right,0.35,,,,,,,,,,,,,,,,,,0.0018682070076465607,0.48722976073622704,,3174.538768481463,test,2,,,,,,,3172.053593032062,3172.549990583211,3172.549990583211,3172.5666265301406,3172.9014376737177,3173.4010667316616,3173.5510721579194,3174.560217026621,right,1,0.5549456812441349,0.35,,,,,,,,,,,s011,001,2024-07-23_17h40.35.041,simplestop_skeleton,2022.2.2,59.7698709684602,
None,None,,,,,,,,,1,0,1,0,9,0,36,3,,,,,,,,,3174.5392231605947,go,circleblack.png,left,0.35,,,,,,,,,,,,,,,,,,0.002590261399745941,0.4864760749042034,,3177.040532901883,test,2,,,,,,,3174.560217026621,3175.052677515894,3175.052677515894,3175.069339737296,3175.4030845351517,3175.903863314539,3176.053867600858,3177.0618109330535,left,1,0.45315952971577644,0.35,,,,,,,,,,,s011,001,2024-07-23_17h40.35.041,simplestop_skeleton,2022.2.2,59.7698709684602,
None,None,,,,,,,,,1,0,1,0,9,1,37,2,,,,,,,,,3177.0410336852074,stop,squareblack.png,right,0.35,,,,,,,,,,,,,,,,,,0.002585895359516144,0.4874608814716339,0.8379223011434078,3179.5434314869344,test,2,,,,,,,3177.0618109330535,3177.555554639548,3177.555554639548,3177.5722032636404,3177.905986428261,3178.4066508710384,3178.5567343197763,3179.561823427677,right,1,0.41807233542203903,0.3,,,,,,,,,,,s011,001,2024-07-23_17h40.35.041,simplestop_skeleton,2022.2.2,59.7698709684602,
None,None,,,,,,,,,1,0,1,0,9,2,38,2,,,,,,,,,3179.543869562447,go,squareblack.png,right,0.3,,,,,,,,,,,,,,,,,,0.001494675874710083,0.48773882910609245,,3182.044927753508,test,2,,,,,,,3179.561823427677,3180.058322943747,3180.058322943747,3180.0749243311584,3180.358774792403,3180.8601138330996,3181.06113691628,3182.0617149174213,right,1,0.46773432195186615,0.3,,,,,,,,,,,s011,001,2024-07-23_17h40.35.041,simplestop_skeleton,2022.2.2,59.7698709684602,
None,None,,,,,,,,,1,0,1,0,9,3,39,3,,,,,,,,,3182.0453756451607,go,squareblack.png,right,0.3,,,,,,,,,,,,,,,,,,0.00115174800157547,0.4900118187069893,,3184.5477062352,test,2,,,,,,,3182.0617149174213,3182.5611925274134,3182.5611925274134,3182.5611925274134,3182.861409790814,3183.362300220877,3183.563141282648,3184.565454658121,right,1,0.49416713789105415,0.3,,,,,,,,,,,s011,001,2024-07-23_17h40.35.041,simplestop_skeleton,2022.2.2,59.7698709684602,
$currentCorrectResponse,$currentGoStim,,,,,,,,,1,0,1,0,10,0,40,0,,,,,,,,,3184.548138961196,go,circleblack.png,left,0.3,,,,,,,,,,,,,,,,,,0.0017935782670974731,0.4908694550395012,,3187.05063835904,test,2,,,,,,,3184.565454658121,3185.065162938088,3185.065162938088,3185.065162938088,3185.366045895964,3185.881542123854,3186.064853977412,3187.067864127457,left,1,0.47945045679807663,0.3,,,,,,,,,,,s011,001,2024-07-23_17h40.35.041,simplestop_skeleton,2022.2.2,59.7698709684602,
None,None,,,,,,,,,1,0,1,0,10,1,41,2,,,,,,,,,3187.0511879362166,go,squareblack.png,right,0.3,,,,,,,,,,,,,,,,,,0.001632586121559143,0.48944174870848656,,3189.5531716011465,test,2,,,,,,,3187.067864127457,3187.5665556043386,3187.5665556043386,3187.585412092507,3187.868812829256,3188.3840686120093,3188.5675527118146,3189.5706784389913,right,1,0.508034635335207,0.3,,,,,,,,,,,s011,001,2024-07-23_17h40.35.041,simplestop_skeleton,2022.2.2,59.7698709684602,
None,None,,,,,,,,,1,0,1,0,10,2,42,2,,,,,,,,,3189.553637303412,go,circleblack.png,left,0.3,,,,,,,,,,,,,,,,,,0.0017615258693695068,0.48975855484604836,,3192.0583407580853,test,2,,,,,,,3189.5706784389913,3190.0693650580943,3190.0693650580943,3190.085929811001,3190.3710806779563,3190.8719304203987,3191.0704502388835,3192.0798340030015,left,1,0.4494452364742756,0.3,,,,,,,,,,,s011,001,2024-07-23_17h40.35.041,simplestop_skeleton,2022.2.2,59.7698709684602,
None,None,,,,,,,,,1,0,1,0,10,3,43,1,,,,,,,,,3192.0588250122964,go,squareblack.png,right,0.3,,,,,,,,,,,,,,,,,,0.0026604682207107544,0.4860307350754738,,3194.5610378086567,test,2,,,,,,,3192.0798340030015,3192.572024665773,3192.572024665773,3192.5887141413987,3192.8723884262145,3193.3731041438878,3193.5731747969985,3194.5824815891683,right,1,0.4231729470193386,0.3,,,,,,,,,,,s011,001,2024-07-23_17h40.35.041,simplestop_skeleton,2022.2.2,59.7698709684602,
$currentCorrectResponse,$currentGoStim,,,,,,,,,1,0,1,0,11,0,44,0,,,,,,,,,3194.5615327470005,go,circleblack.png,left,0.3,,,,,,,,,,,,,,,,,,0.002592049539089203,0.48623163625597954,,3197.0624332763255,test,2,,,,,,,3194.5824815891683,3195.0748456716537,3195.0748456716537,3195.09149812907,3195.3751512393355,3195.8758139386773,3196.0761067941785,3197.0805908739567,left,1,0.433969933539629,0.3,,,,,,,,,,,s011,001,2024-07-23_17h40.35.041,simplestop_skeleton,2022.2.2,59.7698709684602,
None,None,,,,,,,,,1,0,1,0,11,1,45,1,,,,,,,,,3197.062871966511,stop,circleblack.png,left,0.3,,,,,,,,,,,,,,,,,,0.0014321990311145782,0.48858192935585976,0.7888944298028946,3199.5645152702928,test,2,,,,,,,3197.0805908739567,3197.5776744522154,3197.5776744522154,3197.594368904829,3197.878014359623,3198.3793909698725,3198.5788490511477,3199.5834383256733,left,1,0.3377668336033821,0.25,,,,,,,,,,,s011,001,2024-07-23_17h40.35.041,simplestop_skeleton,2022.2.2,59.7698709684602,
None,None,,,,,,,,,1,0,1,0,11,2,46,1,,,,,,,,,3199.5649843513966,stop,squareblack.png,right,0.25,,,,,,,,,,,,,,,,,,0.0015767663717269897,0.4883289523422718,0.7386355698108673,3202.067192018032,test,2,,,,,,,3199.5834383256733,3200.0803225934505,3200.0803225934505,3200.0971362143755,3200.330629196018,3200.8313110135496,3201.082553073764,3202.084372509271,None,0,,0.3,,,,,,,,,,,s011,001,2024-07-23_17h40.35.041,simplestop_skeleton,2022.2.2,59.7698709684602,
$currentCorrectResponse,$currentGoStim,,,,,,,,,1,0,1,0,11,3,47,0,,,,,,,,,3202.067633099854,stop,circleblack.png,left,0.3,,,,,,,,,,,,,,,,,,0.0017232559621334076,0.49143528938293457,0.7899269387125969,3204.5698592811823,test,2,,,,,,,3202.084372509271,3202.5849351882935,3202.5849351882935,3202.5849351882935,3202.8834508918226,3203.3840007558465,3203.5841224193573,3204.5854559391737,None,0,,0.35,,,,,,,,,,,s011,001,2024-07-23_17h40.35.041,simplestop_skeleton,2022.2.2,59.7698709684602,
,,,,,,,,,,1,0,1,0,,,,,,,,,,,,,,,,,,,,,,,,,,,,,,,,,,,,,,,,,,,,,,,,,,,,,,,,,,,3204.5854559391737,3204.5854559391737,return,8.811368763446808,"[{'fileName': 'circleblack.png', 'correct_response': 'left', 'condition': 'go'}, {'fileName': 'circleblack.png', 'correct_response': 'left', 'condition': 'stop'}, {'fileName': 'circleblack.png', 'correct_response': 'left', 'condition': 'go'}, {'fileName': 'squareblack.png', 'correct_response': 'right', 'condition': 'stop'}, {'fileName': 'squareblack.png', 'correct_response': 'right', 'condition': 'go'}, {'fileName': 'squareblack.png', 'correct_response': 'right', 'condition': 'go'}, {'fileName': 'squareblack.png', 'correct_response': 'right', 'condition': 'go'}, {'fileName': 'circleblack.png', 'correct_response': 'left', 'condition': 'go'}, {'fileName': 'squareblack.png', 'correct_response': 'right', 'condition': 'go'}, {'fileName': 'circleblack.png', 'correct_response': 'left', 'condition': 'stop'}, {'fileName': 'circleblack.png', 'correct_response': 'left', 'condition': 'go'}, {'fileName': 'squareblack.png', 'correct_response': 'right', 'condition': 'stop'}, {'fileName': 'circleblack.png', 'correct_response': 'left', 'condition': 'go'}, {'fileName': 'circleblack.png', 'correct_response': 'left', 'condition': 'go'}, {'fileName': 'squareblack.png', 'correct_response': 'right', 'condition': 'go'}, {'fileName': 'circleblack.png', 'correct_response': 'left', 'condition': 'go'}, {'fileName': 'squareblack.png', 'correct_response': 'right', 'condition': 'go'}, {'fileName': 'squareblack.png', 'correct_response': 'right', 'condition': 'stop'}, {'fileName': 'circleblack.png', 'correct_response': 'left', 'condition': 'stop'}, {'fileName': 'squareblack.png', 'correct_response': 'right', 'condition': 'go'}, {'fileName': 'circleblack.png', 'correct_response': 'left', 'condition': 'go'}, {'fileName': 'squareblack.png', 'correct_response': 'right', 'condition': 'stop'}, {'fileName': 'circleblack.png', 'correct_response': 'left', 'condition': 'stop'}, {'fileName': 'squareblack.png', 'correct_response': 'right', 'condition': 'go'}, {'fileName': 'squareblack.png', 'correct_response': 'right', 'condition': 'stop'}, {'fileName': 'squareblack.png', 'correct_response': 'right', 'condition': 'go'}, {'fileName': 'squareblack.png', 'correct_response': 'right', 'condition': 'go'}, {'fileName': 'circleblack.png', 'correct_response': 'left', 'condition': 'go'}, {'fileName': 'squareblack.png', 'correct_response': 'right', 'condition': 'stop'}, {'fileName': 'circleblack.png', 'correct_response': 'left', 'condition': 'stop'}, {'fileName': 'circleblack.png', 'correct_response': 'left', 'condition': 'go'}, {'fileName': 'circleblack.png', 'correct_response': 'left', 'condition': 'stop'}, {'fileName': 'circleblack.png', 'correct_response': 'left', 'condition': 'go'}, {'fileName': 'squareblack.png', 'correct_response': 'right', 'condition': 'go'}, {'fileName': 'squareblack.png', 'correct_response': 'right', 'condition': 'go'}, {'fileName': 'circleblack.png', 'correct_response': 'left', 'condition': 'go'}, {'fileName': 'circleblack.png', 'correct_response': 'left', 'condition': 'go'}, {'fileName': 'squareblack.png', 'correct_response': 'right', 'condition': 'go'}, {'fileName': 'circleblack.png', 'correct_response': 'left', 'condition': 'go'}, {'fileName': 'circleblack.png', 'correct_response': 'left', 'condition': 'go'}, {'fileName': 'squareblack.png', 'correct_response': 'right', 'condition': 'stop'}, {'fileName': 'squareblack.png', 'correct_response': 'right', 'condition': 'go'}, {'fileName': 'squareblack.png', 'correct_response': 'right', 'condition': 'go'}, {'fileName': 'squareblack.png', 'correct_response': 'right', 'condition': 'stop'}, {'fileName': 'circleblack.png', 'correct_response': 'left', 'condition': 'go'}, {'fileName': 'squareblack.png', 'correct_response': 'right', 'condition': 'go'}, {'fileName': 'circleblack.png', 'correct_response': 'left', 'condition': 'stop'}, {'fileName': 'circleblack.png', 'correct_response': 'left', 'condition': 'stop'}]",,,,,,s011,001,2024-07-23_17h40.35.041,simplestop_skeleton,2022.2.2,59.7698709684602,
None,None,,,,,,,,,2,0,2,0,0,0,0,2,,,,,,,,,3213.4205430708826,go,circleblack.png,left,0.35,,,,,,,,,,,,,,,,,,0.0022011399269104004,0.4823438785970211,,3215.9175468049943,test,3,,,,,,,3213.440808147192,3213.9303039237857,3213.9303039237857,3213.9471036307514,3214.281095471233,3214.781460698694,3214.931676849723,3215.936691839248,left,1,0.3813805878162384,0.35,,,,,,,,,,,s011,001,2024-07-23_17h40.35.041,simplestop_skeleton,2022.2.2,59.7698709684602,
None,None,,,,,,,,,2,0,2,0,0,1,1,3,,,,,,,,,3215.9181063100696,stop,circleblack.png,left,0.35,,,,,,,,,,,,,,,,,,0.0014205984771251678,0.48899029195308685,0.839470025151968,3218.420065071434,test,3,,,,,,,3215.936691839248,3216.433115206659,3216.433115206659,3216.4496846348047,3216.783606007695,3217.284423671663,3217.434327185154,3218.439308833331,None,0,,0.4,,,,,,,,,,,s011,001,2024-07-23_17h40.35.041,simplestop_skeleton,2022.2.2,59.7698709684602,
$currentCorrectResponse,$currentGoStim,,,,,,,,,2,0,2,0,0,2,2,0,,,,,,,,,3218.4205002747476,go,circleblack.png,left,0.4,,,,,,,,,,,,,,,,,,0.001346394419670105,0.4894470050930977,,3220.921366751194,test,3,,,,,,,3218.439308833331,3218.936288498342,3218.936288498342,3218.9527604542673,3219.336407877505,3219.83639023453,3219.935879152268,3220.939365733415,left,1,0.5751571953296661,0.4,,,,,,,,,,,s011,001,2024-07-23_17h40.35.041,simplestop_skeleton,2022.2.2,59.7698709684602,
None,None,,,,,,,,,2,0,2,0,0,3,3,2,,,,,,,,,3220.9218145534396,stop,squareblack.png,right,0.4,,,,,,,,,,,,,,,,,,0.001927059143781662,0.48969491571187973,0.8897830881178379,3223.424156639725,test,3,,,,,,,3220.939365733415,3221.437463827431,3221.437463827431,3221.4541859701276,3221.8377098441124,3222.3384923674166,3222.438339125365,3223.440808299929,right,1,0.5338443927466869,0.35,,,,,,,,,,,s011,001,2024-07-23_17h40.35.041,simplestop_skeleton,2022.2.2,59.7698709684602,
None,None,,,,,,,,,2,0,2,0,1,0,4,1,,,,,,,,,3223.4246036708355,go,squareblack.png,right,0.35,,,,,,,,,,,,,,,,,,0.0011813417077064514,0.48968738690018654,,3225.926825147122,test,3,,,,,,,3223.440808299929,3223.9401650317013,3223.9401650317013,3223.9401650317013,3224.290517862886,3224.790952514857,3224.941555801779,3225.9440049901605,right,1,0.5079099833965302,0.35,,,,,,,,,,,s011,001,2024-07-23_17h40.35.041,simplestop_skeleton,2022.2.2,59.7698709684602,
None,None,,,,,,,,,2,0,2,0,1,1,5,2,,,,,,,,,3225.9274414032698,go,squareblack.png,right,0.35,,,,,,,,,,,,,,,,,,0.0012142695486545563,0.4904571548104286,,3228.429592460394,test,3,,,,,,,3225.9440049901605,3226.4436427243054,3226.4436427243054,3226.4436427243054,3226.7949065603316,3227.310377456248,3227.443879917264,3228.446905616671,right,1,0.577619057148695,0.35,,,,,,,,,,,s011,001,2024-07-23_17h40.35.041,simplestop_skeleton,2022.2.2,59.7698709684602,
None,None,,,,,,,,,2,0,2,0,1,2,6,2,,,,,,,,,3228.4300398789346,go,squareblack.png,right,0.35,,,,,,,,,,,,,,,,,,0.001158788800239563,0.4897674359381199,,3230.934586599469,test,3,,,,,,,3228.446905616671,3228.945670798421,3228.945670798421,3228.9621944203973,3229.2967587970197,3229.7966760210693,3229.9468061476946,3230.961137589067,right,1,0.3911621421575546,0.35,,,,,,,,,,,s011,001,2024-07-23_17h40.35.041,simplestop_skeleton,2022.2.2,59.7698709684602,
None,None,,,,,,,,,2,0,2,0,1,3,7,1,,,,,,,,,3230.935046952218,go,circleblack.png,left,0.35,,,,,,,,,,,,,,,,,,0.00775870680809021,0.4861895591020584,,3233.4362320639193,test,3,,,,,,,3230.961137589067,3231.448295135051,3231.448295135051,3231.4650637172163,3231.7987147569656,3232.2994313947856,3232.4496388100088,3233.454632099718,left,1,0.37111563608050346,0.35,,,,,,,,,,,s011,001,2024-07-23_17h40.35.041,simplestop_skeleton,2022.2.2,59.7698709684602,
None,None,,,,,,,,,2,0,2,0,2,0,8,3,,,,,,,,,3233.4366731382906,go,squareblack.png,right,0.35,,,,,,,,,,,,,,,,,,0.0018297694623470306,0.4879463501274586,,3235.937666449696,test,3,,,,,,,3233.454632099718,3233.9510387815535,3233.9510387815535,3233.967770371586,3234.301401589066,3234.803618852049,3234.9532458223403,3235.956068120897,right,1,0.4058380387723446,0.35,,,,,,,,,,,s011,001,2024-07-23_17h40.35.041,simplestop_skeleton,2022.2.2,59.7698709684602,
None,None,,,,,,,,,2,0,2,0,2,1,9,2,,,,,,,,,3235.9381133429706,stop,circleblack.png,left,0.35,,,,,,,,,,,,,,,,,,0.0019080489873886108,0.49142075330018997,0.8399997502565384,3238.4406535215676,test,3,,,,,,,3235.956068120897,3236.4556344784796,3236.4556344784796,3236.4556344784796,3236.804171215743,3237.3047485873103,3237.45704203099,3238.457566767931,left,1,0.38311485946178436,0.3,,,,,,,,,,,s011,001,2024-07-23_17h40.35.041,simplestop_skeleton,2022.2.2,59.7698709684602,
None,None,,,,,,,,,2,0,2,0,2,2,10,3,,,,,,,,,3238.4410846978426,go,circleblack.png,left,0.3,,,,,,,,,,,,,,,,,,0.0013454519212245941,0.49035026878118515,,3240.943641643971,test,3,,,,,,,3238.457566767931,3238.9577916562557,3238.9577916562557,3238.9577916562557,3239.2588527165353,3239.7740630991757,3239.958345491439,3240.960570447147,left,1,0.4621756710112095,0.3,,,,,,,,,,,s011,001,2024-07-23_17h40.35.041,simplestop_skeleton,2022.2.2,59.7698709684602,
$currentCorrectResponse,$currentGoStim,,,,,,,,,2,0,2,0,2,3,11,0,,,,,,,,,3240.944106530398,stop,squareblack.png,right,0.3,,,,,,,,,,,,,,,,,,0.0015872903168201447,0.48938098177313805,0.7897220477461815,3243.4484276361763,test,3,,,,,,,3240.960570447147,3241.4592617079616,3241.4592617079616,3241.4760085195303,3241.7597205005586,3242.262169647962,3242.460373926908,3243.470110822469,right,1,0.3762764446437359,0.25,,,,,,,,,,,s011,001,2024-07-23_17h40.35.041,simplestop_skeleton,2022.2.2,59.7698709684602,
None,None,,,,,,,,,2,0,2,0,3,0,12,3,,,,,,,,,3243.448891442269,go,circleblack.png,left,0.25,,,,,,,,,,,,,,,,,,0.002830885350704193,0.4861775077879429,,3245.9499372802675,test,3,,,,,,,3243.470110822469,3243.962019417435,3243.962019417435,3243.9788282588124,3244.2124882936478,3244.7130412608385,3244.963410757482,3245.9676946513355,left,1,0.4777454137802124,0.25,,,,,,,,,,,s011,001,2024-07-23_17h40.35.041,simplestop_skeleton,2022.2.2,59.7698709684602,
None,None,,,,,,,,,2,0,2,0,3,1,13,2,,,,,,,,,3245.950369324535,go,circleblack.png,left,0.25,,,,,,,,,,,,,,,,,,0.0014441348612308502,0.48980095610022545,,3248.4515436030924,test,3,,,,,,,3245.9676946513355,3246.464943088591,3246.464943088591,3246.4815273433924,3246.715059772134,3247.2158384621143,3247.4670591652393,3248.468850467354,left,1,0.4514845162630081,0.25,,,,,,,,,,,s011,001,2024-07-23_17h40.35.041,simplestop_skeleton,2022.2.2,59.7698709684602,
None,None,,,,,,,,,2,0,2,0,3,2,14,3,,,,,,,,,3248.4520887658,go,squareblack.png,right,0.25,,,,,,,,,,,,,,,,,,0.0016066841781139374,0.48964712396264076,,3250.954248674214,test,3,,,,,,,3248.468850467354,3248.967803172767,3248.967803172767,3248.9843646772206,3249.217892292887,3249.7185261398554,3249.968753248453,3250.9713769182563,right,1,0.5219005271792412,0.25,,,,,,,,,,,s011,001,2024-07-23_17h40.35.041,simplestop_skeleton,2022.2.2,59.7698709684602,
None,None,,,,,,,,,2,0,2,0,3,3,15,1,,,,,,,,,3250.954683057964,go,circleblack.png,left,0.25,,,,,,,,,,,,,,,,,,0.0017220117151737213,0.491313923150301,,3253.4570892080665,test,3,,,,,,,3250.9713769182563,3251.471786148846,3251.471786148846,3251.471786148846,3251.722560759634,3252.2378244102,3252.4714958667755,3253.4744912981987,left,1,0.48651600256562233,0.25,,,,,,,,,,,s011,001,2024-07-23_17h40.35.041,simplestop_skeleton,2022.2.2,59.7698709684602,
None,None,,,,,,,,,2,0,2,0,4,0,16,3,,,,,,,,,3253.4575395174325,go,squareblack.png,right,0.25,,,,,,,,,,,,,,,,,,0.001612052321434021,0.48952990397810936,,3255.9617944844067,test,3,,,,,,,3253.4744912981987,3253.973099589348,3253.973099589348,3253.989773698151,3254.2241646386683,3254.724079336971,3254.974194023758,3255.9824241399765,right,1,0.4536944851279259,0.25,,,,,,,,,,,s011,001,2024-07-23_17h40.35.041,simplestop_skeleton,2022.2.2,59.7698709684602,
None,None,,,,,,,,,2,0,2,0,4,1,17,2,,,,,,,,,3255.9622481949627,stop,squareblack.png,right,0.25,,,,,,,,,,,,,,,,,,0.0019976086914539337,0.48643170669674873,0.736741166561842,3258.46386481449,test,3,,,,,,,3255.9824241399765,3256.4758882820606,3256.4758882820606,3256.4925931952894,3256.726187981665,3257.2269241921604,3257.477198187262,3258.4830624200404,right,1,0.39522818848490715,0.2,,,,,,,,,,,s011,001,2024-07-23_17h40.35.041,simplestop_skeleton,2022.2.2,59.7698709684602,
None,None,,,,,,,,,2,0,2,0,4,2,18,1,,,,,,,,,3258.4643189311028,stop,circleblack.png,left,0.2,,,,,,,,,,,,,,,,,,0.0026572681963443756,0.4878208450973034,0.6879837140440941,3260.9654569998384,test,3,,,,,,,3258.4830624200404,3258.978587117046,3258.978587117046,3258.995287273079,3259.1788722127676,3259.679382931441,3259.9816460758448,3260.9826654940844,None,0,,0.25,,,,,,,,,,,s011,001,2024-07-23_17h40.35.041,simplestop_skeleton,2022.2.2,59.7698709684602,
$currentCorrectResponse,$currentGoStim,,,,,,,,,2,0,2,0,4,3,19,0,,,,,,,,,3260.9659657776356,go,squareblack.png,right,0.25,,,,,,,,,,,,,,,,,,0.0015714950859546661,0.4913896881043911,,3263.468101706356,test,3,,,,,,,3260.9826654940844,3261.4832475930452,3261.4832475930452,3261.4832475930452,3261.731790628284,3262.2322355918586,3262.4825091660023,3263.48547834903,right,1,0.4989461600780487,0.25,,,,,,,,,,,s011,001,2024-07-23_17h40.35.041,simplestop_skeleton,2022.2.2,59.7698709684602,
None,None,,,,,,,,,2,0,2,0,5,0,20,1,,,,,,,,,3263.4685601741076,go,circleblack.png,left,0.25,,,,,,,,,,,,,,,,,,0.0017495714128017426,0.4899243861436844,,3265.9708572402596,test,3,,,,,,,3263.48547834903,3263.9842275604606,3263.9842275604606,3264.0010170452297,3264.234590254724,3264.7349516414106,3264.985270578414,3265.9879637137055,left,1,0.47524941712617874,0.25,,,,,,,,,,,s011,001,2024-07-23_17h40.35.041,simplestop_skeleton,2022.2.2,59.7698709684602,
$currentCorrectResponse,$currentGoStim,,,,,,,,,2,0,2,0,5,1,21,0,,,,,,,,,3265.9712880440056,stop,squareblack.png,right,0.25,,,,,,,,,,,,,,,,,,0.0015914775431156158,0.4898139052093029,0.7401519194245338,3268.47611201182,test,3,,,,,,,3265.9879637137055,3266.486954972148,3266.486954972148,3266.486954972148,3266.737223479897,3267.2379282601178,3267.4880395829678,3268.4978081844747,None,0,,0.3,,,,,,,,,,,s011,001,2024-07-23_17h40.35.041,simplestop_skeleton,2022.2.2,59.7698709684602,
None,None,,,,,,,,,2,0,2,0,5,2,22,3,,,,,,,,,3268.4765798822045,stop,circleblack.png,left,0.3,,,,,,,,,,,,,,,,,,0.0026463940739631653,0.4858627989888191,0.7862825207412243,3270.977930508554,test,3,,,,,,,3268.4978081844747,3268.9897641539574,3268.9897641539574,3269.006342343986,3269.2900636978447,3269.7907523848116,3269.990874323994,3270.9964046664536,None,0,,0.35,,,,,,,,,,,s011,001,2024-07-23_17h40.35.041,simplestop_skeleton,2022.2.2,59.7698709684602,
None,None,,,,,,,,,2,0,2,0,5,3,23,1,,,,,,,,,3270.9783806838095,go,squareblack.png,right,0.35,,,,,,,,,,,,,,,,,,0.0023453086614608765,0.48736413940787315,,3273.4794240407646,test,3,,,,,,,3270.9964046664536,3271.492526873946,3271.492526873946,3271.509076036513,3271.842846430838,3272.3434518501163,3272.4937407933176,3273.495897870511,right,1,0.5286033153533936,0.35,,,,,,,,,,,s011,001,2024-07-23_17h40.35.041,simplestop_skeleton,2022.2.2,59.7698709684602,
None,None,,,,,,,,,2,0,2,0,6,0,24,1,,,,,,,,,3273.479870699346,stop,squareblack.png,right,0.35,,,,,,,,,,,,,,,,,,0.001199524849653244,0.48971061408519745,0.8398133777081966,3275.982180632651,test,3,,,,,,,3273.495897870511,3273.9953748099506,3273.9953748099506,3273.9953748099506,3274.3455983512104,3274.846231330186,3274.997401598841,3275.9986715726554,right,1,0.46310078725218773,0.3,,,,,,,,,,,s011,001,2024-07-23_17h40.35.041,simplestop_skeleton,2022.2.2,59.7698709684602,
None,None,,,,,,,,,2,0,2,0,6,1,25,3,,,,,,,,,3275.9826388135552,go,squareblack.png,right,0.3,,,,,,,,,,,,,,,,,,0.0011587999761104584,0.4902782775461674,,3278.48462581262,test,3,,,,,,,3275.9986715726554,3276.4993321336806,3276.4993321336806,3276.4993321336806,3276.8003544434905,3277.315507940948,3277.4990819245577,3278.5015582740307,right,1,0.5414683632552624,0.3,,,,,,,,,,,s011,001,2024-07-23_17h40.35.041,simplestop_skeleton,2022.2.2,59.7698709684602,
$currentCorrectResponse,$currentGoStim,,,,,,,,,2,0,2,0,6,2,26,0,,,,,,,,,3278.4850777350366,go,squareblack.png,right,0.3,,,,,,,,,,,,,,,,,,0.001209445297718048,0.48977822437882423,,3280.9896450564265,test,3,,,,,,,3278.5015582740307,3279.000738479197,3279.000738479197,3279.000738479197,3279.301909033209,3279.8019641786814,3280.0018354542553,3281.0179249234498,right,1,0.501686405390501,0.3,,,,,,,,,,,s011,001,2024-07-23_17h40.35.041,simplestop_skeleton,2022.2.2,59.7698709684602,
None,None,,,,,,,,,2,0,2,0,6,3,27,3,,,,,,,,,3280.9901182092726,go,circleblack.png,left,0.3,,,,,,,,,,,,,,,,,,0.008820552378892899,0.48570145666599274,,3283.490167338401,test,3,,,,,,,3281.0179249234498,3281.5036282986403,3281.5036282986403,3281.520105086267,3281.803885538131,3282.304601058364,3282.505605392158,3283.5074899196625,left,1,0.48775614798069,0.3,,,,,,,,,,,s011,001,2024-07-23_17h40.35.041,simplestop_skeleton,2022.2.2,59.7698709684602,
None,None,,,,,,,,,2,0,2,0,7,0,28,2,,,,,,,,,3283.4905973933637,stop,squareblack.png,right,0.3,,,,,,,,,,,,,,,,,,0.001667812466621399,0.491092462092638,0.79186025634408,3285.993428837508,test,3,,,,,,,3283.5074899196625,3284.007465608418,3284.007465608418,3284.007465608418,3284.30843892321,3284.823847554624,3285.007320255041,3286.011680521071,right,1,0.4434184469282627,0.25,,,,,,,,,,,s011,001,2024-07-23_17h40.35.041,simplestop_skeleton,2022.2.2,59.7698709684602,
$currentCorrectResponse,$currentGoStim,,,,,,,,,2,0,2,0,7,1,29,0,,,,,,,,,3285.993890929967,stop,circleblack.png,left,0.25,,,,,,,,,,,,,,,,,,0.0018424391746520996,0.4886475168168545,0.7389811351895332,3288.4958874583244,test,3,,,,,,,3286.011680521071,3286.5090265721083,3286.5090265721083,3286.5257012210786,3286.759412057698,3287.2600295990705,3287.510336853564,3288.5125878453255,None,0,,0.3,,,,,,,,,,,s011,001,2024-07-23_17h40.35.041,simplestop_skeleton,2022.2.2,59.7698709684602,
$currentCorrectResponse,$currentGoStim,,,,,,,,,2,0,2,0,7,2,30,0,,,,,,,,,3288.496315062046,go,circleblack.png,left,0.3,,,,,,,,,,,,,,,,,,0.001326199620962143,0.4898114278912544,,3290.9985845573246,test,3,,,,,,,3288.5125878453255,3289.012004520744,3289.012004520744,3289.012004520744,3289.3120318241417,3289.8129606060684,3290.013889309019,3291.016590408981,left,1,0.48677927628159523,0.3,,,,,,,,,,,s011,001,2024-07-23_17h40.35.041,simplestop_skeleton,2022.2.2,59.7698709684602,
$currentCorrectResponse,$currentGoStim,,,,,,,,,2,0,2,0,7,3,31,0,,,,,,,,,3290.9990542270243,stop,circleblack.png,left,0.3,,,,,,,,,,,,,,,,,,0.001280270516872406,0.48978473991155624,0.7910807318985462,3293.503030501306,test,3,,,,,,,3291.016590408981,3291.5155039913952,3291.5155039913952,3291.5155039913952,3291.8168245069683,3292.332103628665,3292.5156405232847,3293.5225132852793,left,1,0.4738999791443348,0.25,,,,,,,,,,,s011,001,2024-07-23_17h40.35.041,simplestop_skeleton,2022.2.2,59.7698709684602,
$currentCorrectResponse,$currentGoStim,,,,,,,,,2,0,2,0,8,0,32,0,,,,,,,,,3293.503463886678,go,circleblack.png,left,0.25,,,,,,,,,,,,,,,,,,0.0016652010381221771,0.4876738078892231,,3296.0039660334587,test,3,,,,,,,3293.5225132852793,3294.017453748733,3294.017453748733,3294.0339379645884,3294.2677206918597,3294.7692826278508,3295.0200960710645,3296.025906186551,left,1,0.5074115544557571,0.25,,,,,,,,,,,s011,001,2024-07-23_17h40.35.041,simplestop_skeleton,2022.2.2,59.7698709684602,
None,None,,,,,,,,,2,0,2,0,8,1,33,1,,,,,,,,,3296.004396069795,go,squareblack.png,right,0.25,,,,,,,,,,,,,,,,,,0.007137719541788101,0.4911455772817135,,3298.506821408868,test,3,,,,,,,3296.025906186551,3296.521090526134,3296.521090526134,3296.5380366407335,3296.7722087837756,3297.2877326011658,3297.521192803979,3298.5250976905227,right,1,0.4636956714093685,0.25,,,,,,,,,,,s011,001,2024-07-23_17h40.35.041,simplestop_skeleton,2022.2.2,59.7698709684602,
None,None,,,,,,,,,2,0,2,0,8,2,34,2,,,,,,,,,3298.507255103439,go,squareblack.png,right,0.25,,,,,,,,,,,,,,,,,,0.0011840462684631348,0.4884864129126072,,3301.0109688192606,test,3,,,,,,,3298.5250976905227,3299.022990372032,3299.022990372032,3299.039555657655,3299.2730682492256,3299.7739594727755,3300.0240879245102,3301.0322738848627,right,1,0.5208937712013721,0.25,,,,,,,,,,,s011,001,2024-07-23_17h40.35.041,simplestop_skeleton,2022.2.2,59.7698709684602,
None,None,,,,,,,,,2,0,2,0,8,3,35,2,,,,,,,,,3301.0115573853254,go,circleblack.png,left,0.25,,,,,,,,,,,,,,,,,,0.002544030547142029,0.4857032783329487,,3303.5123997218907,test,3,,,,,,,3301.0322738848627,3301.525799948722,3301.525799948722,3301.542452637106,3301.776115488261,3302.2764159962535,3302.527996715158,3303.5298428051174,left,1,0.49263883382081985,0.25,,,,,,,,,,,s011,001,2024-07-23_17h40.35.041,simplestop_skeleton,2022.2.2,59.7698709684602,
None,None,,,,,,,,,2,0,2,0,9,0,36,1,,,,,,,,,3303.5128445215523,go,circleblack.png,left,0.25,,,,,,,,,,,,,,,,,,0.0012274719774723053,0.4889850914478302,,3306.017000451684,test,3,,,,,,,3303.5298428051174,3304.0282608680427,3304.0282608680427,3304.04684650898,3304.2795873321593,3304.7793956696987,3305.0294446982443,3306.0380940511823,left,1,0.39822521433234215,0.25,,,,,,,,,,,s011,001,2024-07-23_17h40.35.041,simplestop_skeleton,2022.2.2,59.7698709684602,
None,None,,,,,,,,,2,0,2,0,9,1,37,2,,,,,,,,,3306.0174806937575,go,squareblack.png,right,0.25,,,,,,,,,,,,,,,,,,0.002640731632709503,0.48683078587055206,,3308.5177680663764,test,3,,,,,,,3306.0380940511823,3306.5310919210315,3306.5310919210315,3306.5478365793824,3306.7815162576735,3307.2851048745215,3307.5340962409973,3308.5351528562605,right,1,0.47651712596416473,0.25,,,,,,,,,,,s011,001,2024-07-23_17h40.35.041,simplestop_skeleton,2022.2.2,59.7698709684602,
None,None,,,,,,,,,2,0,2,0,9,2,38,3,,,,,,,,,3308.518221769482,go,circleblack.png,left,0.25,,,,,,,,,,,,,,,,,,0.0017657801508903503,0.49138615280389786,,3311.021637286991,test,3,,,,,,,3308.5351528562605,3309.0357707105577,3309.0357707105577,3309.0357707105577,3309.284502722323,3309.7845698185265,3310.034921564162,3311.0380771532655,left,1,0.40134360268712044,0.25,,,,,,,,,,,s011,001,2024-07-23_17h40.35.041,simplestop_skeleton,2022.2.2,59.7698709684602,
$currentCorrectResponse,$currentGoStim,,,,,,,,,2,0,2,0,9,3,39,0,,,,,,,,,3311.0220716372132,go,circleblack.png,left,0.25,,,,,,,,,,,,,,,,,,0.0012454316020011902,0.48871011659502983,,3313.5232844538987,test,3,,,,,,,3311.0380771532655,3311.5366219058633,3311.5366219058633,3311.553402852267,3311.786908864975,3312.288582533598,3312.5396605804563,3313.542235676199,left,1,0.4004159979522228,0.25,,,,,,,,,,,s011,001,2024-07-23_17h40.35.041,simplestop_skeleton,2022.2.2,59.7698709684602,
None,None,,,,,,,,,2,0,2,0,10,0,40,3,,,,,,,,,3313.5237304009497,stop,squareblack.png,right,0.25,,,,,,,,,,,,,,,,,,0.001801230013370514,0.49060817807912827,0.7407148592174053,3316.0262837558985,test,3,,,,,,,3313.542235676199,3314.041338864714,3314.041338864714,3314.041338864714,3314.2915572039783,3314.8069270551205,3315.040510222316,3316.043140463531,None,0,,0.3,,,,,,,,,,,s011,001,2024-07-23_17h40.35.041,simplestop_skeleton,2022.2.2,59.7698709684602,
None,None,,,,,,,,,2,0,2,0,10,1,41,2,,,,,,,,,3316.0267248526216,go,squareblack.png,right,0.3,,,,,,,,,,,,,,,,,,0.0011566020548343658,0.4899541549384594,,3318.5309537537396,test,3,,,,,,,3316.043140463531,3316.5423432029784,3316.5423432029784,3316.5423432029784,3316.843548953533,3317.343111101538,3317.5432333499193,3318.551680777222,right,1,0.4526548720896244,0.3,,,,,,,,,,,s011,001,2024-07-23_17h40.35.041,simplestop_skeleton,2022.2.2,59.7698709684602,
$currentCorrectResponse,$currentGoStim,,,,,,,,,2,0,2,0,10,2,42,0,,,,,,,,,3318.5314001366496,go,squareblack.png,right,0.3,,,,,,,,,,,,,,,,,,0.0018379352986812592,0.48629212006926537,,3321.0327307991683,test,3,,,,,,,3318.551680777222,3319.044928472489,3319.044928472489,3319.0616154149175,3319.3453053049743,3319.8459155596793,3320.0461312644184,3321.0507800877094,right,1,0.4763063080608845,0.3,,,,,,,,,,,s011,001,2024-07-23_17h40.35.041,simplestop_skeleton,2022.2.2,59.7698709684602,
None,None,,,,,,,,,2,0,2,0,10,3,43,1,,,,,,,,,3321.0331641733646,stop,squareblack.png,right,0.3,,,,,,,,,,,,,,,,,,0.0014158785343170166,0.4901440925896168,0.7884801775217056,3323.5345789678395,test,3,,,,,,,3321.0507800877094,3321.5495461709797,3321.5495461709797,3321.564608179033,3321.8480325452983,3322.3485508449376,3322.5501448102295,3323.557384237647,right,1,0.38396645709872246,0.25,,,,,,,,,,,s011,001,2024-07-23_17h40.35.041,simplestop_skeleton,2022.2.2,59.7698709684602,
None,None,,,,,,,,,2,0,2,0,11,0,44,1,,,,,,,,,3323.535026986152,go,circleblack.png,left,0.25,,,,,,,,,,,,,,,,,,0.007946271449327469,0.4904551990330219,,3326.0370627343655,test,3,,,,,,,3323.557384237647,3324.051384296268,3324.051384296268,3324.068324960768,3324.302575457841,3324.801616575569,3325.0514309480786,3326.0542079247534,left,1,0.4408048279583454,0.25,,,,,,,,,,,s011,001,2024-07-23_17h40.35.041,simplestop_skeleton,2022.2.2,59.7698709684602,
None,None,,,,,,,,,2,0,2,0,11,1,45,3,,,,,,,,,3326.037530004978,go,squareblack.png,right,0.25,,,,,,,,,,,,,,,,,,0.0016392692923545837,0.4897937998175621,,3328.541941229254,test,3,,,,,,,3326.0542079247534,3326.5531652718782,3326.5531652718782,3326.569877959788,3326.8035692945123,3327.304138030857,3327.554325297475,3328.56311346218,right,1,0.4672880470752716,0.25,,,,,,,,,,,s011,001,2024-07-23_17h40.35.041,simplestop_skeleton,2022.2.2,59.7698709684602,
$currentCorrectResponse,$currentGoStim,,,,,,,,,2,0,2,0,11,2,46,0,,,,,,,,,3328.5424206368625,stop,circleblack.png,left,0.25,,,,,,,,,,,,,,,,,,0.002548951655626297,0.48657574132084846,0.737119771540165,3331.044757645577,test,3,,,,,,,3328.56311346218,3329.056080941111,3329.056080941111,3329.072603750974,3329.306496396661,3329.8071593642235,3330.057168148458,3331.062424480915,None,0,,0.3,,,,,,,,,,,s011,001,2024-07-23_17h40.35.041,simplestop_skeleton,2022.2.2,59.7698709684602,
None,None,,,,,,,,,2,0,2,0,11,3,47,1,,,,,,,,,3331.0452125295997,stop,circleblack.png,left,0.3,,,,,,,,,,,,,,,,,,0.0019492805004119873,0.48906026035547256,0.7877111621201038,3333.545734182,test,3,,,,,,,3331.062424480915,3331.55887670815,3331.55887670815,3331.575562249869,3331.8590842932463,3332.359596967697,3332.561009861529,3333.5654814317822,None,0,,0.35,,,,,,,,,,,s011,001,2024-07-23_17h40.35.041,simplestop_skeleton,2022.2.2,59.7698709684602,
