corrGoResp,shape,practiceBlocks.thisRepN,practiceBlocks.thisTrialN,practiceBlocks.thisN,practiceBlocks.thisIndex,practiceTrials.thisRepN,practiceTrials.thisTrialN,practiceTrials.thisN,practiceTrials.thisIndex,stopBlocks.thisRepN,stopBlocks.thisTrialN,stopBlocks.thisN,stopBlocks.thisIndex,testTrials.thisRepN,testTrials.thisTrialN,testTrials.thisN,testTrials.thisIndex,stopPracTrialList,Test Block: 1,welcome.started,start_exp.started,start_exp.keys,start_exp.rt,instrStopText.started,start_prac.started,StartTrialTimeStamp,trialType,goStim,correctResponse,ssd,fixation.started,rules.started,goStim.started,goResp.started,fixation.stopped,stopSignal.started,stopSignal.stopped,goStim.stopped,goResp.stopped,rules.stopped,goResp.keys,goResp.corr,goResp.rt,text.started,rules_2.started,fixationOnset,goStimOnset,stopSignalOnset,EndTrialTimeStamp,Phase,Block,text.stopped,rules_2.stopped,text_5.started,key_resp_3.started,key_resp_3.keys,key_resp_3.rt,key_resp.started,testText.started,test_fixation.started,test_fixation.stopped,goStim_test.started,goResp_test.started,stopSignal_test.started,stopSignal_test.stopped,goStim_test.stopped,goResp_test.stopped,goResp_test.keys,goResp_test.corr,goResp_test.rt,EndingSSD,text_6.started,key_resp_4.started,key_resp_4.keys,key_resp_4.rt,Test Block: 2,Test Block: 3,ending_text.started,end_resp.started,end_resp.keys,end_resp.rt,participant,session,date,expName,psychopyVersion,frameRate,
,,,,,,,,,,,,,,,,,,"[{'fileName': 'squareblack.png', 'correct_response': 'right', 'condition': 'go'}, {'fileName': 'squareblack.png', 'correct_response': 'right', 'condition': 'go'}, {'fileName': 'squareblack.png', 'correct_response': 'right', 'condition': 'go'}, {'fileName': 'squareblack.png', 'correct_response': 'right', 'condition': 'stop'}, {'fileName': 'circleblack.png', 'correct_response': 'left', 'condition': 'go'}, {'fileName': 'circleblack.png', 'correct_response': 'left', 'condition': 'go'}, {'fileName': 'squareblack.png', 'correct_response': 'right', 'condition': 'go'}, {'fileName': 'circleblack.png', 'correct_response': 'left', 'condition': 'go'}, {'fileName': 'circleblack.png', 'correct_response': 'left', 'condition': 'stop'}, {'fileName': 'squareblack.png', 'correct_response': 'right', 'condition': 'stop'}, {'fileName': 'circleblack.png', 'correct_response': 'left', 'condition': 'go'}, {'fileName': 'circleblack.png', 'correct_response': 'left', 'condition': 'stop'}, {'fileName': 'circleblack.png', 'correct_response': 'left', 'condition': 'go'}, {'fileName': 'squareblack.png', 'correct_response': 'right', 'condition': 'go'}, {'fileName': 'squareblack.png', 'correct_response': 'right', 'condition': 'stop'}, {'fileName': 'squareblack.png', 'correct_response': 'right', 'condition': 'stop'}, {'fileName': 'circleblack.png', 'correct_response': 'left', 'condition': 'go'}, {'fileName': 'circleblack.png', 'correct_response': 'left', 'condition': 'go'}, {'fileName': 'squareblack.png', 'correct_response': 'right', 'condition': 'go'}, {'fileName': 'circleblack.png', 'correct_response': 'left', 'condition': 'go'}, {'fileName': 'squareblack.png', 'correct_response': 'right', 'condition': 'go'}, {'fileName': 'squareblack.png', 'correct_response': 'right', 'condition': 'go'}, {'fileName': 'circleblack.png', 'correct_response': 'left', 'condition': 'stop'}, {'fileName': 'circleblack.png', 'correct_response': 'left', 'condition': 'stop'}]","[{'fileName': 'squareblack.png', 'correct_response': 'right', 'condition': 'go'}, {'fileName': 'circleblack.png', 'correct_response': 'left', 'condition': 'stop'}, {'fileName': 'squareblack.png', 'correct_response': 'right', 'condition': 'go'}, {'fileName': 'circleblack.png', 'correct_response': 'left', 'condition': 'go'}, {'fileName': 'circleblack.png', 'correct_response': 'left', 'condition': 'go'}, {'fileName': 'circleblack.png', 'correct_response': 'left', 'condition': 'go'}, {'fileName': 'circleblack.png', 'correct_response': 'left', 'condition': 'go'}, {'fileName': 'squareblack.png', 'correct_response': 'right', 'condition': 'stop'}, {'fileName': 'squareblack.png', 'correct_response': 'right', 'condition': 'stop'}, {'fileName': 'squareblack.png', 'correct_response': 'right', 'condition': 'go'}, {'fileName': 'circleblack.png', 'correct_response': 'left', 'condition': 'stop'}, {'fileName': 'squareblack.png', 'correct_response': 'right', 'condition': 'go'}, {'fileName': 'squareblack.png', 'correct_response': 'right', 'condition': 'stop'}, {'fileName': 'squareblack.png', 'correct_response': 'right', 'condition': 'go'}, {'fileName': 'squareblack.png', 'correct_response': 'right', 'condition': 'go'}, {'fileName': 'circleblack.png', 'correct_response': 'left', 'condition': 'stop'}, {'fileName': 'circleblack.png', 'correct_response': 'left', 'condition': 'stop'}, {'fileName': 'squareblack.png', 'correct_response': 'right', 'condition': 'go'}, {'fileName': 'circleblack.png', 'correct_response': 'left', 'condition': 'go'}, {'fileName': 'squareblack.png', 'correct_response': 'right', 'condition': 'stop'}, {'fileName': 'circleblack.png', 'correct_response': 'left', 'condition': 'go'}, {'fileName': 'circleblack.png', 'correct_response': 'left', 'condition': 'go'}, {'fileName': 'squareblack.png', 'correct_response': 'right', 'condition': 'go'}, {'fileName': 'circleblack.png', 'correct_response': 'left', 'condition': 'go'}, {'fileName': 'circleblack.png', 'correct_response': 'left', 'condition': 'stop'}, {'fileName': 'squareblack.png', 'correct_response': 'right', 'condition': 'go'}, {'fileName': 'circleblack.png', 'correct_response': 'left', 'condition': 'go'}, {'fileName': 'circleblack.png', 'correct_response': 'left', 'condition': 'go'}, {'fileName': 'circleblack.png', 'correct_response': 'left', 'condition': 'go'}, {'fileName': 'circleblack.png', 'correct_response': 'left', 'condition': 'stop'}, {'fileName': 'squareblack.png', 'correct_response': 'right', 'condition': 'go'}, {'fileName': 'squareblack.png', 'correct_response': 'right', 'condition': 'stop'}, {'fileName': 'squareblack.png', 'correct_response': 'right', 'condition': 'go'}, {'fileName': 'squareblack.png', 'correct_response': 'right', 'condition': 'stop'}, {'fileName': 'squareblack.png', 'correct_response': 'right', 'condition': 'go'}, {'fileName': 'circleblack.png', 'correct_response': 'left', 'condition': 'go'}, {'fileName': 'squareblack.png', 'correct_response': 'right', 'condition': 'stop'}, {'fileName': 'circleblack.png', 'correct_response': 'left', 'condition': 'go'}, {'fileName': 'squareblack.png', 'correct_response': 'right', 'condition': 'stop'}, {'fileName': 'circleblack.png', 'correct_response': 'left', 'condition': 'go'}, {'fileName': 'circleblack.png', 'correct_response': 'left', 'condition': 'stop'}, {'fileName': 'circleblack.png', 'correct_response': 'left', 'condition': 'go'}, {'fileName': 'circleblack.png', 'correct_response': 'left', 'condition': 'go'}, {'fileName': 'squareblack.png', 'correct_response': 'right', 'condition': 'go'}, {'fileName': 'squareblack.png', 'correct_response': 'right', 'condition': 'go'}, {'fileName': 'squareblack.png', 'correct_response': 'right', 'condition': 'go'}, {'fileName': 'circleblack.png', 'correct_response': 'left', 'condition': 'stop'}, {'fileName': 'squareblack.png', 'correct_response': 'right', 'condition': 'go'}]",364.28484135121107,364.28484135121107,return,9.263955432921648,,,,,,,,,,,,,,,,,,,,,,,,,,,,,,,,,,,,,,,,,,,,,,,,,,,,,,,,,,,s006,001,2024-06-21_16h59.02.901,simplestop_skeleton,2022.2.2,59.95102219630147,
None,None,0,0,0,0,0,0,0,2,,,,,,,,,,,,,,,373.58378083631396,373.58378083631396,524.8296042121947,go,squareblack.png,right,0.35,524.8505762033165,524.8505762033165,525.3446473106742,525.3446473106742,525.3611669279635,525.6953413933516,526.1958095431328,526.3457442261279,527.3468667529523,527.3637249059975,right,1,0.7865588925778866,527.3637249059975,527.3637249059975,0.002441622316837311,0.48819880932569504,0.8388717696070671,527.8488368280232,practice,1,,,,,,,,,,,,,,,,,,,,,,,,,,,,,,,s006,001,2024-06-21_16h59.02.901,simplestop_skeleton,2022.2.2,59.95102219630147,
None,None,0,0,0,0,0,1,1,3,,,,,,,,,,,,,,,,,527.8493719436228,go,squareblack.png,right,0.35,527.8683721087873,527.8683721087873,528.3645654581487,528.3645654581487,528.3812829107046,528.7149417214096,529.216523040086,529.3652309961617,530.3671481721103,530.3834961988032,right,1,0.489978838711977,530.3834961988032,530.3834961988032,0.001322682946920395,0.48960067331790924,0.8398182392120361,530.8684393465519,practice,1,530.8877454251051,530.8877454251051,,,,,,,,,,,,,,,,,,,,,,,,,,,,,s006,001,2024-06-21_16h59.02.901,simplestop_skeleton,2022.2.2,59.95102219630147,
None,None,0,0,0,0,0,2,2,3,,,,,,,,,,,,,,,,,530.8688616976142,go,squareblack.png,right,0.35,530.8877454251051,530.8877454251051,531.3845559358597,531.3845559358597,531.401442527771,531.7354387529194,532.236046563834,532.3858136534691,533.3871940895915,533.3871940895915,right,1,0.38943590968847275,533.3871940895915,533.3871940895915,0.0012292899191379547,0.49037599191069603,0.8403953947126865,533.8717917464674,practice,1,,,,,,,,,,,,,,,,,,,,,,,,,,,,,,,s006,001,2024-06-21_16h59.02.901,simplestop_skeleton,2022.2.2,59.95102219630147,
None,None,0,0,0,0,0,3,3,3,,,,,,,,,,,,,,,,,533.8722229935229,stop,squareblack.png,right,0.35,533.891265694052,533.891265694052,534.3878759145737,534.3878759145737,534.4050360880792,534.7384636178613,535.2387880273163,535.3889655582607,536.3905429393053,536.3905429393053,right,1,0.4435974359512329,536.3905429393053,536.3905429393053,0.0012083575129508972,0.49024395272135735,0.8405184969305992,536.8750306405127,practice,1,536.9004688076675,536.9004688076675,,,,,,,,,,,,,,,,,,,,,,,,,,,,,s006,001,2024-06-21_16h59.02.901,simplestop_skeleton,2022.2.2,59.95102219630147,
None,None,0,0,0,0,1,0,4,1,,,,,,,,,,,,,,,,,536.8754551522434,go,circleblack.png,left,0.3,536.9004688076675,536.9004688076675,537.3917593583465,537.3917593583465,537.4100283645093,537.6916672438383,538.1924357675016,538.3923129960895,539.393741518259,539.4106648564339,left,1,0.4193476773798466,539.4106648564339,539.4106648564339,0.007961176335811615,0.4907541610300541,0.7904537878930569,539.895126260817,practice,1,539.9148314073682,539.9148314073682,,,,,,,,,,,,,,,,,,,,,,,,,,,,,s006,001,2024-06-21_16h59.02.901,simplestop_skeleton,2022.2.2,59.95102219630147,
None,None,0,0,0,0,1,1,5,3,,,,,,,,,,,,,,,,,539.8955521136522,go,circleblack.png,left,0.3,539.9148314073682,539.9148314073682,540.4112555235624,540.4112555235624,540.427912697196,540.7119631692767,541.2120881900191,541.4122990369797,542.4136648289859,542.4300580061972,left,1,0.450081430375576,542.4300580061972,542.4300580061972,0.0013193115592002869,0.4902291037142277,0.7907259054481983,542.9149132706225,practice,1,542.9347723014653,542.9347723014653,,,,,,,,,,,,,,,,,,,,,,,,,,,,,s006,001,2024-06-21_16h59.02.901,simplestop_skeleton,2022.2.2,59.95102219630147,
None,None,0,0,0,0,1,2,6,2,,,,,,,,,,,,,,,,,542.9154391996562,go,squareblack.png,right,0.3,542.9347723014653,542.9347723014653,543.4312733523548,543.4312733523548,543.4483392722905,543.7319019697607,544.2322501726449,544.4325062707067,545.4334416911006,545.4500405229628,right,1,0.5401242561638355,545.4500405229628,545.4500405229628,0.001742478460073471,0.49001098424196243,0.7903365567326546,545.9350951910019,practice,1,545.955093242228,545.955093242228,,,,,,,,,,,,,,,,,,,,,,,,,,,,,s006,001,2024-06-21_16h59.02.901,simplestop_skeleton,2022.2.2,59.95102219630147,
$currentCorrectResponse,$currentGoStim,0,0,0,0,1,3,7,0,,,,,,,,,,,,,,,,,545.9355200380087,go,circleblack.png,left,0.3,545.955093242228,545.955093242228,546.4513099640608,546.4513099640608,546.468021325767,546.7514840140939,547.252395298332,547.4530138112605,548.4537389092147,548.4700725190341,left,1,0.6194219775497913,548.4700725190341,548.4700725190341,0.0017895661294460297,0.48975543677806854,0.7904131598770618,548.9552459083498,practice,1,548.9746725298464,548.9746725298464,,,,,,,,,,,,,,,,,,,,,,,,,,,,,s006,001,2024-06-21_16h59.02.901,simplestop_skeleton,2022.2.2,59.95102219630147,
$currentCorrectResponse,$currentGoStim,0,0,0,0,2,0,8,0,,,,,,,,,,,,,,,,,548.9556723311543,stop,circleblack.png,left,0.3,548.9746725298464,548.9746725298464,549.4714282080531,549.4714282080531,549.4878423400223,549.7717535272241,550.2724745161831,550.4718858674169,551.4737126268446,551.4902024045587,left,1,0.43568751588463783,551.4902024045587,551.4902024045587,0.0012452863156795502,0.4899825416505337,0.7902372889220715,551.9749196395278,practice,1,551.9950010702014,551.9950010702014,,,,,,,,,,,,,,,,,,,,,,,,,,,,,s006,001,2024-06-21_16h59.02.901,simplestop_skeleton,2022.2.2,59.95102219630147,
None,None,0,0,0,0,2,1,9,3,,,,,,,,,,,,,,,,,551.975375212729,stop,squareblack.png,right,0.25,551.9950010702014,551.9950010702014,552.4915883801877,552.4915883801877,552.5079140514135,552.7416554614902,553.2420321851969,553.4923268705606,554.4937075972557,554.5101124569774,right,1,0.42573701962828636,554.5101124569774,554.5101124569774,0.0017297528684139252,0.49035317078232765,0.7405218258500099,554.9949155375361,practice,1,555.0148053653538,555.0148053653538,,,,,,,,,,,,,,,,,,,,,,,,,,,,,s006,001,2024-06-21_16h59.02.901,simplestop_skeleton,2022.2.2,59.95102219630147,
$currentCorrectResponse,$currentGoStim,0,0,0,0,2,2,10,0,,,,,,,,,,,,,,,,,554.9953489862382,go,circleblack.png,left,0.2,555.0148053653538,555.0148053653538,555.5117693394423,555.5117693394423,555.5278769694269,555.7117779515684,556.2121254466474,556.512287452817,557.5134220570326,557.5302251763642,left,1,0.5145980045199394,557.5302251763642,557.5302251763642,0.001749470829963684,0.4903130792081356,0.6904639862477779,558.0148075856268,practice,1,,,,,,,,,,,,,,,,,,,,,,,,,,,,,,,s006,001,2024-06-21_16h59.02.901,simplestop_skeleton,2022.2.2,59.95102219630147,
None,None,0,0,0,0,2,3,11,1,,,,,,,,,,,,,,,,,558.0152476876974,stop,circleblack.png,left,0.2,558.0342348329723,558.0342348329723,558.5314170345664,558.5314170345664,558.5479065738618,558.731415938586,559.2319898717105,559.5324578024447,560.5334369465709,560.5334369465709,left,1,0.4918743409216404,560.5334369465709,560.5334369465709,0.001245841383934021,0.49062564224004745,0.6905829049646854,561.0186135172844,practice,1,561.0380160436034,561.0380160436034,,,,,,,,,,,,,,,,,,,,,,,,,,,,,s006,001,2024-06-21_16h59.02.901,simplestop_skeleton,2022.2.2,59.95102219630147,
$currentCorrectResponse,$currentGoStim,0,0,0,0,3,0,12,0,,,,,,,,,,,,,,,,,561.0190369747579,go,circleblack.png,left,0.15,561.0380160436034,561.0380160436034,561.5348477326334,561.5348477326334,561.55163673684,561.6847140006721,562.1875660791993,562.5356257781386,563.5369134172797,563.5535500273108,left,1,0.5810688845813274,563.5535500273108,563.5535500273108,0.001295626163482666,0.4897444397211075,0.6400386244058609,564.0385570600629,practice,1,564.0582164824009,564.0582164824009,,,,,,,,,,,,,,,,,,,,,,,,,,,,,s006,001,2024-06-21_16h59.02.901,simplestop_skeleton,2022.2.2,59.95102219630147,
None,None,0,0,0,0,3,1,13,2,,,,,,,,,,,,,,,,,564.0389989092946,go,squareblack.png,right,0.15,564.0582164824009,564.0582164824009,564.554870840162,564.554870840162,564.5716011933982,564.704669687897,565.2055454999208,565.5560740716755,566.5568934381008,566.5733912587166,right,1,0.41943710297346115,566.5733912587166,566.5733912587166,0.0016488805413246155,0.48982037603855133,0.6404417380690575,567.0582359954715,practice,1,567.077737364918,567.077737364918,,,,,,,,,,,,,,,,,,,,,,,,,,,,,s006,001,2024-06-21_16h59.02.901,simplestop_skeleton,2022.2.2,59.95102219630147,
None,None,0,0,0,0,3,2,14,2,,,,,,,,,,,,,,,,,567.0586570613086,stop,squareblack.png,right,0.15,567.077737364918,567.077737364918,567.5747055709362,567.5747055709362,567.5913638323545,567.7247076556087,568.225284576416,568.5758235380054,569.5771753452718,569.5771753452718,None,0,,569.5771753452718,569.5771753452718,0.0012820810079574585,0.4901477135717869,0.6407001130282879,570.0614641979337,practice,1,570.0808504186571,570.0808504186571,,,,,,,,,,,,,,,,,,,,,,,,,,,,,s006,001,2024-06-21_16h59.02.901,simplestop_skeleton,2022.2.2,59.95102219630147,
None,None,0,0,0,0,3,3,15,1,,,,,,,,,,,,,,,,,570.0618872158229,stop,squareblack.png,right,0.2,570.0808504186571,570.0808504186571,570.5777782276273,570.5777782276273,570.5948060713708,570.778401453048,571.278598356992,571.5790676400065,572.5800015740097,572.5800015740097,None,0,,572.5800015740097,572.5800015740097,0.0012051835656166077,0.4901403561234474,0.6903927363455296,573.0647567287087,practice,1,573.0847790203989,573.0847790203989,,,,,,,,,,,,,,,,,,,,,,,,,,,,,s006,001,2024-06-21_16h59.02.901,simplestop_skeleton,2022.2.2,59.95102219630147,
None,None,0,0,0,0,4,0,16,1,,,,,,,,,,,,,,,,,573.0651859268546,go,circleblack.png,left,0.25,573.0847790203989,573.0847790203989,573.5809368304908,573.5809368304908,573.5978232547641,573.8314756415784,574.3320189267397,574.5817593336105,575.5832044705749,575.6001689471304,left,1,0.5301124751567841,575.6001689471304,575.6001689471304,0.0017699189484119415,0.4898926727473736,0.7403299324214458,576.0847634151578,practice,1,576.1043832600117,576.1043832600117,,,,,,,,,,,,,,,,,,,,,,,,,,,,,s006,001,2024-06-21_16h59.02.901,simplestop_skeleton,2022.2.2,59.95102219630147,
$currentCorrectResponse,$currentGoStim,0,0,0,0,4,1,17,0,,,,,,,,,,,,,,,,,576.0851850993931,go,circleblack.png,left,0.25,576.1043832600117,576.1043832600117,576.601335119456,576.601335119456,576.6178408972919,576.8515571467578,577.3522179238498,577.6024182103574,578.6038517467678,578.620279263705,left,1,0.49686769396066666,578.620279263705,578.620279263705,0.0012396648526191711,0.49032481014728546,0.7407167218625546,579.1049744859338,practice,1,579.1249553225935,579.1249553225935,,,,,,,,,,,,,,,,,,,,,,,,,,,,,s006,001,2024-06-21_16h59.02.901,simplestop_skeleton,2022.2.2,59.95102219630147,
$currentCorrectResponse,$currentGoStim,0,0,0,0,4,2,18,0,,,,,,,,,,,,,,,,,579.1054189987481,go,squareblack.png,right,0.25,579.1249553225935,579.1249553225935,579.6211396642029,579.6211396642029,579.6380373425782,579.8716142810881,580.3706078492105,580.6220279335976,581.6236124709249,581.6400407031178,right,1,0.45130186900496483,581.6400407031178,581.6400407031178,0.001650933176279068,0.49001432955265045,0.7403303794562817,582.1249353773892,practice,1,582.1447660252452,582.1447660252452,,,,,,,,,,,,,,,,,,,,,,,,,,,,,s006,001,2024-06-21_16h59.02.901,simplestop_skeleton,2022.2.2,59.95102219630147,
None,None,0,0,0,0,4,3,19,2,,,,,,,,,,,,,,,,,582.1253607422113,go,circleblack.png,left,0.25,582.1447660252452,582.1447660252452,582.6411281339824,582.6411281339824,582.6578834243119,582.8914299719036,583.3919294551015,583.642223238945,584.6434463895857,584.6600871160626,left,1,0.45628778636455536,584.6600871160626,584.6600871160626,0.0018838085234165192,0.4903801567852497,0.7404570803046227,585.1449549235404,practice,1,,,,,,,,,,,,,,,,,,,,,,,,,,,,,,,s006,001,2024-06-21_16h59.02.901,simplestop_skeleton,2022.2.2,59.95102219630147,
None,None,0,0,0,0,5,0,20,1,,,,,,,,,,,,,,,,,585.1453828141093,go,squareblack.png,right,0.25,585.1648644767702,585.1648644767702,585.6611830033362,585.6611830033362,585.6783018410206,585.91182827577,586.4121205992997,586.6616160608828,587.6633262261748,587.6798898205161,right,1,0.46337082609534264,587.6798898205161,587.6798898205161,0.0017470195889472961,0.49007660523056984,0.7403372563421726,588.1648513376713,practice,1,588.1845377907157,588.1845377907157,,,,,,,,,,,,,,,,,,,,,,,,,,,,,s006,001,2024-06-21_16h59.02.901,simplestop_skeleton,2022.2.2,59.95102219630147,
None,None,0,0,0,0,5,1,21,2,,,,,,,,,,,,,,,,,588.1652839072049,go,squareblack.png,right,0.25,588.1845377907157,588.1845377907157,588.6811320483685,588.6811320483685,588.697705000639,588.9314907602966,589.4319231770933,589.6820746846497,590.6832545548677,590.700240213424,right,1,0.4529081620275974,590.700240213424,590.700240213424,0.0012047812342643738,0.49031146615743637,0.7403634078800678,591.184649374336,practice,1,591.204617485404,591.204617485404,,,,,,,,,,,,,,,,,,,,,,,,,,,,,s006,001,2024-06-21_16h59.02.901,simplestop_skeleton,2022.2.2,59.95102219630147,
None,None,0,0,0,0,5,2,22,1,,,,,,,,,,,,,,,,,591.1850632913411,stop,circleblack.png,left,0.25,591.204617485404,591.204617485404,591.7013944610953,591.7013944610953,591.7176622748375,591.9514255784452,592.4519821219146,592.702300414443,593.7036352567375,593.7201416008174,None,0,,593.7201416008174,593.7201416008174,0.001855354756116867,0.49007904529571533,0.7403924502432346,594.204985063523,practice,1,594.2246811464429,594.2246811464429,,,,,,,,,,,,,,,,,,,,,,,,,,,,,s006,001,2024-06-21_16h59.02.901,simplestop_skeleton,2022.2.2,59.95102219630147,
None,None,0,0,0,0,5,3,23,3,,,,,,,,,,,,,,,,,594.2054102420807,stop,circleblack.png,left,0.3,594.2246811464429,594.2246811464429,594.7211304716766,594.7211304716766,594.7379271835089,595.0214703306556,595.521949827671,595.722820866853,596.7233842127025,596.740013487637,None,0,,596.740013487637,596.740013487637,0.0012567788362503052,0.4901825040578842,0.7902831882238388,597.2249183617532,practice,1,597.2426934316754,597.2426934316754,,,,,,,,,,,,,,,,,,,,,,,,,,,,,s006,001,2024-06-21_16h59.02.901,simplestop_skeleton,2022.2.2,59.95102219630147,
,,0,0,0,0,,,,,,,,,,,,,"[{'fileName': 'squareblack.png', 'correct_response': 'right', 'condition': 'go'}, {'fileName': 'squareblack.png', 'correct_response': 'right', 'condition': 'stop'}, {'fileName': 'circleblack.png', 'correct_response': 'left', 'condition': 'go'}, {'fileName': 'circleblack.png', 'correct_response': 'left', 'condition': 'stop'}, {'fileName': 'squareblack.png', 'correct_response': 'right', 'condition': 'go'}, {'fileName': 'squareblack.png', 'correct_response': 'right', 'condition': 'stop'}, {'fileName': 'circleblack.png', 'correct_response': 'left', 'condition': 'stop'}, {'fileName': 'squareblack.png', 'correct_response': 'right', 'condition': 'go'}, {'fileName': 'circleblack.png', 'correct_response': 'left', 'condition': 'go'}, {'fileName': 'circleblack.png', 'correct_response': 'left', 'condition': 'go'}, {'fileName': 'squareblack.png', 'correct_response': 'right', 'condition': 'go'}, {'fileName': 'circleblack.png', 'correct_response': 'left', 'condition': 'go'}, {'fileName': 'circleblack.png', 'correct_response': 'left', 'condition': 'go'}, {'fileName': 'squareblack.png', 'correct_response': 'right', 'condition': 'stop'}, {'fileName': 'squareblack.png', 'correct_response': 'right', 'condition': 'go'}, {'fileName': 'squareblack.png', 'correct_response': 'right', 'condition': 'stop'}, {'fileName': 'circleblack.png', 'correct_response': 'left', 'condition': 'stop'}, {'fileName': 'circleblack.png', 'correct_response': 'left', 'condition': 'go'}, {'fileName': 'circleblack.png', 'correct_response': 'left', 'condition': 'stop'}, {'fileName': 'circleblack.png', 'correct_response': 'left', 'condition': 'go'}, {'fileName': 'squareblack.png', 'correct_response': 'right', 'condition': 'go'}, {'fileName': 'circleblack.png', 'correct_response': 'left', 'condition': 'go'}, {'fileName': 'squareblack.png', 'correct_response': 'right', 'condition': 'go'}, {'fileName': 'squareblack.png', 'correct_response': 'right', 'condition': 'go'}]",,,,,,,,,,,,,,,,,,,,,,,,,,,,,,,,,,,,597.2426934316754,597.2426934316754,return,1.8693578355014324,,,,,,,,,,,,,,,,,,,,,,,,,s006,001,2024-06-21_16h59.02.901,simplestop_skeleton,2022.2.2,59.95102219630147,
None,None,,,,,,,,,0,0,0,0,0,0,0,1,,,,,,,,,631.7051601968706,go,squareblack.png,right,0.35,,,,,,,,,,,,,,,,0.0019524283707141876,0.4975834786891937,,634.2162014693022,test,1,,,,,,,599.1429834142327,599.1429834142327,631.7244077697396,632.2295331172645,632.2295331172645,632.2295331172645,632.5796065591276,633.0802171230316,633.230183377862,634.2356077171862,right,1,0.47301386669278145,0.35,,,,,,,,,,,s006,001,2024-06-21_16h59.02.901,simplestop_skeleton,2022.2.2,59.95102219630147,
None,None,,,,,,,,,0,0,0,0,0,1,1,3,,,,,,,,,634.2167569175363,stop,circleblack.png,left,0.35,,,,,,,,,,,,,,,,0.0019434206187725067,0.4892420470714569,0.8395949751138687,636.7189324572682,test,1,,,,,,,,,634.2356077171862,634.748781658709,634.7320264019072,634.7320264019072,635.082394849509,635.5828887373209,635.7329455129802,636.7387138679624,left,1,0.40745987743139267,0.3,,,,,,,,,,,s006,001,2024-06-21_16h59.02.901,simplestop_skeleton,2022.2.2,59.95102219630147,
$currentCorrectResponse,$currentGoStim,,,,,,,,,0,0,0,0,0,2,2,0,,,,,,,,,636.7193782255054,go,squareblack.png,right,0.3,,,,,,,,,,,,,,,,0.0018690600991249084,0.4896128252148628,,639.2216394543648,test,1,,,,,,,,,636.7387138679624,637.251650955528,637.2347403801978,637.2347403801978,637.5351234897971,638.035467941314,638.2359189689159,639.2412065826356,right,1,0.44161293655633926,0.3,,,,,,,,,,,s006,001,2024-06-21_16h59.02.901,simplestop_skeleton,2022.2.2,59.95102219630147,
None,None,,,,,,,,,0,0,0,0,0,3,3,1,,,,,,,,,639.2220834754407,go,circleblack.png,left,0.3,,,,,,,,,,,,,,,,0.001936294138431549,0.489548210054636,,641.7246451042593,test,1,,,,,,,,,639.2412065826356,639.7542436569929,639.7378287427127,639.7378287427127,640.0378509797156,640.5388701148331,640.7382797151804,641.7434303760529,left,1,0.5620589964091778,0.3,,,,,,,,,,,s006,001,2024-06-21_16h59.02.901,simplestop_skeleton,2022.2.2,59.95102219630147,
None,None,,,,,,,,,0,0,0,0,1,0,4,1,,,,,,,,,641.7251019440591,go,circleblack.png,left,0.3,,,,,,,,,,,,,,,,0.0014522448182106018,0.48928942531347275,,644.2271733880043,test,1,,,,,,,,,641.7434303760529,642.2569777593017,642.2402467355132,642.2402467355132,642.5405739210546,643.0412567146122,643.2417289167643,644.2459168434143,left,1,0.48438723757863045,0.3,,,,,,,,,,,s006,001,2024-06-21_16h59.02.901,simplestop_skeleton,2022.2.2,59.95102219630147,
$currentCorrectResponse,$currentGoStim,,,,,,,,,0,0,0,0,1,1,5,0,,,,,,,,,644.2276226766407,go,circleblack.png,left,0.3,,,,,,,,,,,,,,,,0.00137435644865036,0.4897560030221939,,646.72958804667,test,1,,,,,,,,,644.2459168434143,644.7598002851009,644.7432370334864,644.7432370334864,645.0433511212468,645.5426045246422,645.7435890957713,646.7483606524765,left,1,0.37087010964751244,0.3,,,,,,,,,,,s006,001,2024-06-21_16h59.02.901,simplestop_skeleton,2022.2.2,59.95102219630147,
None,None,,,,,,,,,0,0,0,0,1,2,6,3,,,,,,,,,646.7300928346813,go,circleblack.png,left,0.3,,,,,,,,,,,,,,,,0.0012429840862751007,0.48977386206388474,,649.2324845157564,test,1,,,,,,,,,646.7483606524765,647.2624301575124,647.2457412779331,647.2457412779331,647.5459329858422,648.0465318784118,648.2469820454717,649.2516457214952,left,1,0.39432794973254204,0.3,,,,,,,,,,,s006,001,2024-06-21_16h59.02.901,simplestop_skeleton,2022.2.2,59.95102219630147,
$currentCorrectResponse,$currentGoStim,,,,,,,,,0,0,0,0,1,3,7,0,,,,,,,,,649.2329322695732,stop,squareblack.png,right,0.3,,,,,,,,,,,,,,,,0.001716267317533493,0.48951712623238564,0.7901108376681805,651.7353396639228,test,1,,,,,,,,,649.2516457214952,649.7653288580477,649.748369704932,649.748369704932,650.0487190634012,650.5493218302727,650.7497244402766,651.7538756802678,right,1,0.4340047389268875,0.25,,,,,,,,,,,s006,001,2024-06-21_16h59.02.901,simplestop_skeleton,2022.2.2,59.95102219630147,
None,None,,,,,,,,,0,0,0,0,2,0,8,1,,,,,,,,,651.7357744202018,stop,squareblack.png,right,0.25,,,,,,,,,,,,,,,,0.0012536384165287018,0.4896756410598755,0.7399951815605164,654.23779867962,test,1,,,,,,,,,651.7538756802678,652.2680404223502,652.2511967048049,652.2511967048049,652.5014854744077,653.0020210705698,653.2524059377611,654.2565783411264,right,1,0.34396789222955704,0.2,,,,,,,,,,,s006,001,2024-06-21_16h59.02.901,simplestop_skeleton,2022.2.2,59.95102219630147,
None,None,,,,,,,,,0,0,0,0,2,1,9,2,,,,,,,,,654.2382345125079,go,squareblack.png,right,0.2,,,,,,,,,,,,,,,,0.0011727474629878998,0.4899601377546787,,656.7408887147903,test,1,,,,,,,,,654.2565783411264,654.7706065252423,654.7539197392762,654.7539197392762,654.9543575309217,655.4547832384706,655.7550166361034,656.7603677399457,right,1,0.6848118156194687,0.2,,,,,,,,,,,s006,001,2024-06-21_16h59.02.901,simplestop_skeleton,2022.2.2,59.95102219630147,
None,None,,,,,,,,,0,0,0,0,2,2,10,3,,,,,,,,,656.7413307838142,stop,circleblack.png,left,0.2,,,,,,,,,,,,,,,,0.0019847452640533447,0.48996512591838837,0.6901105865836143,659.2435042709112,test,1,,,,,,,,,656.7603677399457,657.2734194286168,657.2568939588964,657.2568939588964,657.457125030458,657.9577148556709,658.2580358572304,659.2624293155968,None,0,,0.25,,,,,,,,,,,s006,001,2024-06-21_16h59.02.901,simplestop_skeleton,2022.2.2,59.95102219630147,
None,None,,,,,,,,,0,0,0,0,2,3,11,2,,,,,,,,,659.2439445480704,go,squareblack.png,right,0.25,,,,,,,,,,,,,,,,0.0016078650951385498,0.4900122135877609,,661.7465416900814,test,1,,,,,,,,,659.2624293155968,659.7766184136271,659.759737379849,659.759737379849,660.0099884606898,660.5107792653143,660.7609168179333,661.7654326334596,right,1,0.48299261927604675,0.25,,,,,,,,,,,s006,001,2024-06-21_16h59.02.901,simplestop_skeleton,2022.2.2,59.95102219630147,
$currentCorrectResponse,$currentGoStim,,,,,,,,,0,0,0,0,3,0,12,0,,,,,,,,,661.7469936199486,stop,squareblack.png,right,0.25,,,,,,,,,,,,,,,,0.0013079307973384857,0.4897930957376957,0.7398139201104641,664.2492767497897,test,1,,,,,,,,,661.7654326334596,662.2792064137757,662.262266792357,662.262266792357,662.5128194577992,663.0130659900606,663.2638517171144,664.2682151794434,right,1,1.1507982984185219,0.2,,,,,,,,,,,s006,001,2024-06-21_16h59.02.901,simplestop_skeleton,2022.2.2,59.95102219630147,
$currentCorrectResponse,$currentGoStim,,,,,,,,,0,0,0,0,3,1,13,0,,,,,,,,,664.2497191801667,go,squareblack.png,right,0.2,,,,,,,,,,,,,,,,0.0014061667025089264,0.4896894209086895,,666.7519127354026,test,1,,,,,,,,,664.2682151794434,664.7817463316023,664.7651002630591,664.7651002630591,664.965135268867,665.4652675800025,665.7665898613632,666.7704098001122,right,1,0.5393678694963455,0.2,,,,,,,,,,,s006,001,2024-06-21_16h59.02.901,simplestop_skeleton,2022.2.2,59.95102219630147,
None,None,,,,,,,,,0,0,0,0,3,2,14,1,,,,,,,,,666.7523649223149,go,squareblack.png,right,0.2,,,,,,,,,,,,,,,,0.0011851899325847626,0.48991401866078377,,669.2545528486371,test,1,,,,,,,,,666.7704098001122,667.2844347320497,667.2679328620434,667.2679328620434,667.468013048172,667.9674568139017,668.2685269676149,669.2738742753863,right,1,0.37537768855690956,0.2,,,,,,,,,,,s006,001,2024-06-21_16h59.02.901,simplestop_skeleton,2022.2.2,59.95102219630147,
$currentCorrectResponse,$currentGoStim,,,,,,,,,0,0,0,0,3,3,15,0,,,,,,,,,669.2549947202206,stop,circleblack.png,left,0.2,,,,,,,,,,,,,,,,0.0019301287829875946,0.48978736996650696,0.690069992095232,671.7574201337993,test,1,,,,,,,,,669.2738742753863,669.7870975844562,669.7706751674414,669.7706751674414,669.9707121737301,670.471590038389,670.7715173661709,671.776163559407,None,0,,0.25,,,,,,,,,,,s006,001,2024-06-21_16h59.02.901,simplestop_skeleton,2022.2.2,59.95102219630147,
None,None,,,,,,,,,0,0,0,0,4,0,16,3,,,,,,,,,671.7578703463078,stop,circleblack.png,left,0.25,,,,,,,,,,,,,,,,0.0013501830399036407,0.49022577702999115,0.7400602735579014,674.2601160854101,test,1,,,,,,,,,671.776163559407,672.2899209819734,672.273498762399,672.273498762399,672.5236994996667,673.0243445970118,673.2744952626526,674.2793862335384,None,0,,0.3,,,,,,,,,,,s006,001,2024-06-21_16h59.02.901,simplestop_skeleton,2022.2.2,59.95102219630147,
None,None,,,,,,,,,0,0,0,0,4,1,17,1,,,,,,,,,674.2605571486056,go,squareblack.png,right,0.3,,,,,,,,,,,,,,,,0.0017189458012580872,0.4900344908237457,,676.762784332037,test,1,,,,,,,,,674.2793862335384,674.7929959855974,674.7761368565261,674.7761368565261,675.076430875808,675.5770226344466,675.7771249823272,676.7821053899825,right,1,0.5132901258766651,0.3,,,,,,,,,,,s006,001,2024-06-21_16h59.02.901,simplestop_skeleton,2022.2.2,59.95102219630147,
None,None,,,,,,,,,0,0,0,0,4,2,18,2,,,,,,,,,676.7632373087108,go,circleblack.png,left,0.3,,,,,,,,,,,,,,,,0.001691330224275589,0.48980023339390755,,679.2655690647662,test,1,,,,,,,,,676.7821053899825,677.2956787198782,677.2787673957646,677.2787673957646,677.5790610834956,678.0798246785998,678.2799417078495,679.2847105115652,left,1,0.493071012198925,0.3,,,,,,,,,,,s006,001,2024-06-21_16h59.02.901,simplestop_skeleton,2022.2.2,59.95102219630147,
None,None,,,,,,,,,0,0,0,0,4,3,19,3,,,,,,,,,679.26602781564,stop,squareblack.png,right,0.3,,,,,,,,,,,,,,,,0.001706186681985855,0.48981792852282524,0.7903323099017143,681.7686609514058,test,1,,,,,,,,,679.2847105115652,679.7982848808169,679.7816471345723,679.7816471345723,680.0819972231984,680.5823848135769,680.783000420779,681.788465756923,right,1,0.4636450633406639,0.25,,,,,,,,,,,s006,001,2024-06-21_16h59.02.901,simplestop_skeleton,2022.2.2,59.95102219630147,
None,None,,,,,,,,,0,0,0,0,5,0,20,1,,,,,,,,,681.7690964788198,go,circleblack.png,left,0.25,,,,,,,,,,,,,,,,0.00196804478764534,0.4896553121507168,,684.2712285742164,test,1,,,,,,,,,681.788465756923,682.3012546002865,682.2843479290605,682.2843479290605,682.5346250683069,683.0354311428964,683.2855236716568,684.2900169715285,left,1,0.5054397769272327,0.25,,,,,,,,,,,s006,001,2024-06-21_16h59.02.901,simplestop_skeleton,2022.2.2,59.95102219630147,
None,None,,,,,,,,,0,0,0,0,5,1,21,2,,,,,,,,,684.271677043289,go,circleblack.png,left,0.25,,,,,,,,,,,,,,,,0.0013768933713436127,0.4898342713713646,,686.7739136144519,test,1,,,,,,,,,684.2900169715285,684.8038772717118,684.7871206849813,684.7871206849813,685.0374949760735,685.5382590293884,685.7885457836092,686.7931640222669,left,1,0.6924737766385078,0.25,,,,,,,,,,,s006,001,2024-06-21_16h59.02.901,simplestop_skeleton,2022.2.2,59.95102219630147,
$currentCorrectResponse,$currentGoStim,,,,,,,,,0,0,0,0,5,2,22,0,,,,,,,,,686.7743665650487,go,squareblack.png,right,0.25,,,,,,,,,,,,,,,,0.001660611480474472,0.4897349439561367,,689.2765856869519,test,1,,,,,,,,,686.7931640222669,687.3066182434559,687.2898752875626,687.2898752875626,687.5401768386364,688.0426776111126,688.2908101528883,689.29596561566,right,1,0.6556684821844101,0.25,,,,,,,,,,,s006,001,2024-06-21_16h59.02.901,simplestop_skeleton,2022.2.2,59.95102219630147,
None,None,,,,,,,,,0,0,0,0,5,3,23,3,,,,,,,,,689.2770337611437,go,circleblack.png,left,0.25,,,,,,,,,,,,,,,,0.001690644770860672,0.48960229754447937,,691.7794385626912,test,1,,,,,,,,,689.29596561566,689.8092466033995,689.7928734533489,689.7928734533489,690.0428678803146,690.5435391440988,690.7938669137657,691.7984719090164,left,1,0.6213963590562344,0.25,,,,,,,,,,,s006,001,2024-06-21_16h59.02.901,simplestop_skeleton,2022.2.2,59.95102219630147,
None,None,,,,,,,,,0,0,0,0,6,0,24,3,,,,,,,,,691.7798783481121,stop,circleblack.png,left,0.25,,,,,,,,,,,,,,,,0.0013344697654247284,0.48975181579589844,0.739887498319149,694.2822139561176,test,1,,,,,,,,,691.7984719090164,692.3123678416014,692.2953450530767,692.2953450530767,692.5457380190492,693.044868517667,693.2964021936059,694.3014320470393,left,1,0.39608174562454224,0.2,,,,,,,,,,,s006,001,2024-06-21_16h59.02.901,simplestop_skeleton,2022.2.2,59.95102219630147,
$currentCorrectResponse,$currentGoStim,,,,,,,,,0,0,0,0,6,1,25,0,,,,,,,,,694.2826509922743,go,squareblack.png,right,0.2,,,,,,,,,,,,,,,,0.0016897283494472504,0.48964206501841545,,696.7848009057343,test,1,,,,,,,,,694.3014320470393,694.8148745968938,694.7982819862664,694.7982819862664,694.9986819177866,695.499125868082,695.799208175391,696.8042366653681,right,1,0.4726184271275997,0.2,,,,,,,,,,,s006,001,2024-06-21_16h59.02.901,simplestop_skeleton,2022.2.2,59.95102219630147,
None,None,,,,,,,,,0,0,0,0,6,2,26,1,,,,,,,,,696.78523825109,go,circleblack.png,left,0.2,,,,,,,,,,,,,,,,0.0018540769815444946,0.4898427911102772,,699.2875130772591,test,1,,,,,,,,,696.8042366653681,697.3177599348128,697.3007566183805,697.3007566183805,697.5010487064719,698.0018691979349,698.3020404949784,699.306695304811,left,1,0.6183269210159779,0.2,,,,,,,,,,,s006,001,2024-06-21_16h59.02.901,simplestop_skeleton,2022.2.2,59.95102219630147,
None,None,,,,,,,,,0,0,0,0,6,3,27,1,,,,,,,,,699.2879541106522,go,circleblack.png,left,0.2,,,,,,,,,,,,,,,,0.0013664737343788147,0.49002910032868385,,701.7904931493104,test,1,,,,,,,,,699.306695304811,699.8201413862407,699.8037805631757,699.8037805631757,700.0039235018194,700.5047607980669,700.8048920705914,701.8097163103521,left,1,0.5357093065977097,0.2,,,,,,,,,,,s006,001,2024-06-21_16h59.02.901,simplestop_skeleton,2022.2.2,59.95102219630147,
None,None,,,,,,,,,0,0,0,0,7,0,28,2,,,,,,,,,701.7910589277744,go,circleblack.png,left,0.2,,,,,,,,,,,,,,,,0.001378387212753296,0.4895263686776161,,704.2932101488113,test,1,,,,,,,,,701.8097163103521,702.3233637996018,702.3065746799111,702.3065746799111,702.5067398436368,703.0075294561684,703.307698264718,704.3122849352658,left,1,0.5989789739251137,0.2,,,,,,,,,,,s006,001,2024-06-21_16h59.02.901,simplestop_skeleton,2022.2.2,59.95102219630147,
None,None,,,,,,,,,0,0,0,0,7,1,29,3,,,,,,,,,704.2936604805291,stop,circleblack.png,left,0.2,,,,,,,,,,,,,,,,0.0013812445104122162,0.49009326845407486,0.6902804709970951,706.7960494123399,test,1,,,,,,,,,704.3122849352658,704.8259131573141,704.8093808479607,704.8093808479607,705.0098606310785,705.5101076141,705.8102736361325,706.815240085125,None,0,,0.25,,,,,,,,,,,s006,001,2024-06-21_16h59.02.901,simplestop_skeleton,2022.2.2,59.95102219630147,
None,None,,,,,,,,,0,0,0,0,7,2,30,1,,,,,,,,,706.7964944541454,go,squareblack.png,right,0.25,,,,,,,,,,,,,,,,0.0016666948795318604,0.48999476432800293,,709.2987719066441,test,1,,,,,,,,,706.815240085125,707.3291219733655,707.3120453730226,707.3120453730226,707.5624609999359,708.0631440728903,708.3134116344154,709.3176616504788,right,1,0.42775413393974304,0.25,,,,,,,,,,,s006,001,2024-06-21_16h59.02.901,simplestop_skeleton,2022.2.2,59.95102219630147,
None,None,,,,,,,,,0,0,0,0,7,3,31,3,,,,,,,,,709.2992228865623,stop,squareblack.png,right,0.25,,,,,,,,,,,,,,,,0.001310974359512329,0.4898754209280014,0.7399447374045849,711.8016633987427,test,1,,,,,,,,,709.3176616504788,709.8316108509898,709.8146115355194,709.8146115355194,710.0652140341699,710.5659116432071,710.8157761581242,711.820387262851,right,1,0.34507232904434204,0.2,,,,,,,,,,,s006,001,2024-06-21_16h59.02.901,simplestop_skeleton,2022.2.2,59.95102219630147,
$currentCorrectResponse,$currentGoStim,,,,,,,,,0,0,0,0,8,0,32,0,,,,,,,,,711.8021112680435,go,squareblack.png,right,0.2,,,,,,,,,,,,,,,,0.0013031885027885437,0.4894338957965374,,714.3045792616904,test,1,,,,,,,,,711.820387262851,712.3345940671861,712.317530721426,712.317530721426,712.5177961289883,713.0182653851807,713.3191616609693,714.3235800154507,right,1,0.37777339294552803,0.2,,,,,,,,,,,s006,001,2024-06-21_16h59.02.901,simplestop_skeleton,2022.2.2,59.95102219630147,
None,None,,,,,,,,,0,0,0,0,8,1,33,2,,,,,,,,,714.3050359115005,stop,squareblack.png,right,0.2,,,,,,,,,,,,,,,,0.001350250095129013,0.48920344561338425,0.6895447187125683,716.8071233071387,test,1,,,,,,,,,714.3235800154507,714.8371859639883,714.8206533901393,714.8206533901393,715.0205550268292,715.5213853493333,715.8217930495739,716.8262778036296,None,0,,0.25,,,,,,,,,,,s006,001,2024-06-21_16h59.02.901,simplestop_skeleton,2022.2.2,59.95102219630147,
None,None,,,,,,,,,0,0,0,0,8,2,34,1,,,,,,,,,716.807578381151,go,squareblack.png,right,0.25,,,,,,,,,,,,,,,,0.001328054815530777,0.4894537292420864,,719.3096934817731,test,1,,,,,,,,,716.8262778036296,717.3398492112756,717.3230280466378,717.3230280466378,717.5737200193107,718.0740611739457,718.3242949694395,719.329272724688,right,1,0.4887010343372822,0.25,,,,,,,,,,,s006,001,2024-06-21_16h59.02.901,simplestop_skeleton,2022.2.2,59.95102219630147,
None,None,,,,,,,,,0,0,0,0,8,3,35,2,,,,,,,,,719.3101396486163,go,circleblack.png,left,0.25,,,,,,,,,,,,,,,,0.0020446740090847015,0.4898322820663452,,721.8126267530024,test,1,,,,,,,,,719.329272724688,719.842624720186,719.8256651759148,719.8256651759148,720.0762436278164,720.5765276663005,720.8267845921218,721.8315307833254,right,0,0.3529771566390991,0.25,,,,,,,,,,,s006,001,2024-06-21_16h59.02.901,simplestop_skeleton,2022.2.2,59.95102219630147,
None,None,,,,,,,,,0,0,0,0,9,0,36,3,,,,,,,,,721.8130720555782,stop,squareblack.png,right,0.25,,,,,,,,,,,,,,,,0.0016172155737876892,0.489992406219244,0.7399285659193993,724.3153585530818,test,1,,,,,,,,,721.8315307833254,722.3452724330127,722.328922636807,722.328922636807,722.5781036019325,723.078287370503,723.329596389085,724.3350226543844,right,1,0.39866072311997414,0.2,,,,,,,,,,,s006,001,2024-06-21_16h59.02.901,simplestop_skeleton,2022.2.2,59.95102219630147,
$currentCorrectResponse,$currentGoStim,,,,,,,,,0,0,0,0,9,1,37,0,,,,,,,,,724.3158104754984,go,circleblack.png,left,0.2,,,,,,,,,,,,,,,,0.0019153021275997162,0.4899565428495407,,726.8183843009174,test,1,,,,,,,,,724.3350226543844,724.8479899466038,724.8314879313111,724.8314879313111,725.0318715944886,725.5340503044426,725.8328331671655,726.8377133235335,left,1,0.4375448301434517,0.2,,,,,,,,,,,s006,001,2024-06-21_16h59.02.901,simplestop_skeleton,2022.2.2,59.95102219630147,
None,None,,,,,,,,,0,0,0,0,9,2,38,2,,,,,,,,,726.8189140148461,stop,squareblack.png,right,0.2,,,,,,,,,,,,,,,,0.0017332546412944794,0.4894736260175705,0.6897307820618153,729.320984300226,test,1,,,,,,,,,726.8377133235335,727.3508152849972,727.3343293480575,727.3343293480575,727.5341669730842,728.0350458286703,728.335342746228,729.3409436307847,None,0,,0.25,,,,,,,,,,,s006,001,2024-06-21_16h59.02.901,simplestop_skeleton,2022.2.2,59.95102219630147,
None,None,,,,,,,,,0,0,0,0,9,3,39,2,,,,,,,,,729.3214371539652,go,circleblack.png,left,0.25,,,,,,,,,,,,,,,,0.0026581473648548126,0.48912541568279266,,731.8238103501499,test,1,,,,,,,,,729.3409436307847,729.8536518514156,729.8368190377951,729.8368190377951,730.0870931521058,730.5876166783273,730.8378749042749,731.8431444466114,left,1,0.44793177396059036,0.25,,,,,,,,,,,s006,001,2024-06-21_16h59.02.901,simplestop_skeleton,2022.2.2,59.95102219630147,
None,None,,,,,,,,,0,0,0,0,10,0,40,3,,,,,,,,,731.8242523670197,stop,circleblack.png,left,0.25,,,,,,,,,,,,,,,,0.0015287548303604126,0.4896315224468708,0.739768747240305,734.326464317739,test,1,,,,,,,,,731.8431444466114,732.3568397425115,732.3395691551268,732.3395691551268,732.5898973755538,733.0906035378575,733.340653449297,734.3455774150789,None,0,,0.3,,,,,,,,,,,s006,001,2024-06-21_16h59.02.901,simplestop_skeleton,2022.2.2,59.95102219630147,
None,None,,,,,,,,,0,0,0,0,10,1,41,2,,,,,,,,,734.3269180543721,go,circleblack.png,left,0.3,,,,,,,,,,,,,,,,0.0014417879283428192,0.4896511435508728,,736.829399690032,test,1,,,,,,,,,734.3455774150789,734.8590190559626,734.8422875143588,734.8422875143588,735.1428023055196,735.6434663310647,735.8437878489494,736.8484015390277,left,1,0.39608510956168175,0.3,,,,,,,,,,,s006,001,2024-06-21_16h59.02.901,simplestop_skeleton,2022.2.2,59.95102219630147,
None,None,,,,,,,,,0,0,0,0,10,2,42,2,,,,,,,,,736.8298518955708,go,circleblack.png,left,0.3,,,,,,,,,,,,,,,,0.0013912022113800049,0.4895303286612034,,739.3321937732399,test,1,,,,,,,,,736.8484015390277,737.3622872978449,737.3450784571469,737.3450784571469,737.6456156037748,738.1453031562269,738.3456328324974,739.3515091128647,left,1,0.4185231365263462,0.3,,,,,,,,,,,s006,001,2024-06-21_16h59.02.901,simplestop_skeleton,2022.2.2,59.95102219630147,
None,None,,,,,,,,,0,0,0,0,10,3,43,3,,,,,,,,,739.3326476067305,go,squareblack.png,right,0.3,,,,,,,,,,,,,,,,0.0017935894429683685,0.48945002630352974,,741.8350345492363,test,1,,,,,,,,,739.3515091128647,739.8647261746228,739.8478956632316,739.8478956632316,740.1484681479633,740.6487738005817,740.8490741550922,741.8538260161877,right,1,0.37466681376099586,0.3,,,,,,,,,,,s006,001,2024-06-21_16h59.02.901,simplestop_skeleton,2022.2.2,59.95102219630147,
$currentCorrectResponse,$currentGoStim,,,,,,,,,0,0,0,0,11,0,44,0,,,,,,,,,741.8355045989156,go,squareblack.png,right,0.3,,,,,,,,,,,,,,,,0.0013317428529262543,0.48955218866467476,,744.3373294398189,test,1,,,,,,,,,741.8538260161877,742.3672507703304,742.3506802096963,742.3506802096963,742.6510654911399,743.1516400948167,743.351776458323,744.3562162816525,right,1,0.5353625118732452,0.3,,,,,,,,,,,s006,001,2024-06-21_16h59.02.901,simplestop_skeleton,2022.2.2,59.95102219630147,
$currentCorrectResponse,$currentGoStim,,,,,,,,,0,0,0,0,11,1,45,0,,,,,,,,,744.3377755582333,go,squareblack.png,right,0.3,,,,,,,,,,,,,,,,0.0011944547295570374,0.4902753047645092,,746.8399819843471,test,1,,,,,,,,,744.3562162816525,744.8706828951836,744.8535392731428,744.8535392731428,745.1537712663412,745.6543103866279,745.854594077915,746.8599855303764,right,1,0.45496227592229843,0.3,,,,,,,,,,,s006,001,2024-06-21_16h59.02.901,simplestop_skeleton,2022.2.2,59.95102219630147,
None,None,,,,,,,,,0,0,0,0,11,2,46,2,,,,,,,,,746.8404240347445,stop,circleblack.png,left,0.3,,,,,,,,,,,,,,,,0.002271641045808792,0.4896249584853649,0.7898859828710556,749.3434042558074,test,1,,,,,,,,,746.8599855303764,747.3732516430318,747.3561696000397,747.3561696000397,747.6565523184836,748.1568906195462,748.3572760634124,749.3626760467887,left,1,0.32740822434425354,0.25,,,,,,,,,,,s006,001,2024-06-21_16h59.02.901,simplestop_skeleton,2022.2.2,59.95102219630147,
None,None,,,,,,,,,0,0,0,0,11,3,47,1,,,,,,,,,749.3438513167202,go,squareblack.png,right,0.25,,,,,,,,,,,,,,,,0.0017103925347328186,0.48952678963541985,,751.846027046442,test,1,,,,,,,,,749.3626760467887,749.8775765486062,749.8591102175415,749.8591102175415,750.1093092150986,750.6091118976474,750.860163655132,751.8672848045826,right,1,0.3063255101442337,0.25,,,,,,,,,,,s006,001,2024-06-21_16h59.02.901,simplestop_skeleton,2022.2.2,59.95102219630147,
,,,,,,,,,,0,0,0,0,,,,,,"[{'fileName': 'circleblack.png', 'correct_response': 'left', 'condition': 'go'}, {'fileName': 'circleblack.png', 'correct_response': 'left', 'condition': 'go'}, {'fileName': 'squareblack.png', 'correct_response': 'right', 'condition': 'go'}, {'fileName': 'circleblack.png', 'correct_response': 'left', 'condition': 'stop'}, {'fileName': 'circleblack.png', 'correct_response': 'left', 'condition': 'go'}, {'fileName': 'circleblack.png', 'correct_response': 'left', 'condition': 'stop'}, {'fileName': 'squareblack.png', 'correct_response': 'right', 'condition': 'go'}, {'fileName': 'squareblack.png', 'correct_response': 'right', 'condition': 'go'}, {'fileName': 'squareblack.png', 'correct_response': 'right', 'condition': 'stop'}, {'fileName': 'squareblack.png', 'correct_response': 'right', 'condition': 'stop'}, {'fileName': 'circleblack.png', 'correct_response': 'left', 'condition': 'go'}, {'fileName': 'squareblack.png', 'correct_response': 'right', 'condition': 'go'}, {'fileName': 'squareblack.png', 'correct_response': 'right', 'condition': 'go'}, {'fileName': 'circleblack.png', 'correct_response': 'left', 'condition': 'go'}, {'fileName': 'squareblack.png', 'correct_response': 'right', 'condition': 'go'}, {'fileName': 'squareblack.png', 'correct_response': 'right', 'condition': 'go'}, {'fileName': 'circleblack.png', 'correct_response': 'left', 'condition': 'go'}, {'fileName': 'circleblack.png', 'correct_response': 'left', 'condition': 'stop'}, {'fileName': 'circleblack.png', 'correct_response': 'left', 'condition': 'go'}, {'fileName': 'squareblack.png', 'correct_response': 'right', 'condition': 'stop'}, {'fileName': 'circleblack.png', 'correct_response': 'left', 'condition': 'stop'}, {'fileName': 'squareblack.png', 'correct_response': 'right', 'condition': 'stop'}, {'fileName': 'squareblack.png', 'correct_response': 'right', 'condition': 'go'}, {'fileName': 'circleblack.png', 'correct_response': 'left', 'condition': 'go'}, {'fileName': 'squareblack.png', 'correct_response': 'right', 'condition': 'go'}, {'fileName': 'squareblack.png', 'correct_response': 'right', 'condition': 'stop'}, {'fileName': 'squareblack.png', 'correct_response': 'right', 'condition': 'stop'}, {'fileName': 'squareblack.png', 'correct_response': 'right', 'condition': 'go'}, {'fileName': 'squareblack.png', 'correct_response': 'right', 'condition': 'go'}, {'fileName': 'squareblack.png', 'correct_response': 'right', 'condition': 'go'}, {'fileName': 'circleblack.png', 'correct_response': 'left', 'condition': 'go'}, {'fileName': 'circleblack.png', 'correct_response': 'left', 'condition': 'go'}, {'fileName': 'circleblack.png', 'correct_response': 'left', 'condition': 'go'}, {'fileName': 'circleblack.png', 'correct_response': 'left', 'condition': 'stop'}, {'fileName': 'circleblack.png', 'correct_response': 'left', 'condition': 'go'}, {'fileName': 'circleblack.png', 'correct_response': 'left', 'condition': 'stop'}, {'fileName': 'circleblack.png', 'correct_response': 'left', 'condition': 'go'}, {'fileName': 'circleblack.png', 'correct_response': 'left', 'condition': 'go'}, {'fileName': 'circleblack.png', 'correct_response': 'left', 'condition': 'stop'}, {'fileName': 'squareblack.png', 'correct_response': 'right', 'condition': 'go'}, {'fileName': 'circleblack.png', 'correct_response': 'left', 'condition': 'stop'}, {'fileName': 'squareblack.png', 'correct_response': 'right', 'condition': 'go'}, {'fileName': 'circleblack.png', 'correct_response': 'left', 'condition': 'go'}, {'fileName': 'squareblack.png', 'correct_response': 'right', 'condition': 'go'}, {'fileName': 'circleblack.png', 'correct_response': 'left', 'condition': 'go'}, {'fileName': 'squareblack.png', 'correct_response': 'right', 'condition': 'stop'}, {'fileName': 'squareblack.png', 'correct_response': 'right', 'condition': 'go'}, {'fileName': 'squareblack.png', 'correct_response': 'right', 'condition': 'stop'}]",,,,,,,,,,,,,,,,,,,,,,,,,,,,,,,,,,,,,,,,,,,,,,,,,,,,,751.8672848045826,751.8672848045826,return,25.5075098387897,,,,,,,s006,001,2024-06-21_16h59.02.901,simplestop_skeleton,2022.2.2,59.95102219630147,
None,None,,,,,,,,,1,0,1,0,0,0,0,1,,,,,,,,,777.3979127444327,go,circleblack.png,left,0.25,,,,,,,,,,,,,,,,0.0018581897020339966,0.49839986860752106,,779.9104563593864,test,2,,,,,,,,,777.4175273925066,777.9231642447412,777.9231642447412,777.9231642447412,778.1734810955822,778.6741185896099,778.9243038967252,779.929488543421,left,1,0.5263153724372387,0.25,,,,,,,,,,,s006,001,2024-06-21_16h59.02.901,simplestop_skeleton,2022.2.2,59.95102219630147,
None,None,,,,,,,,,1,0,1,0,0,1,1,3,,,,,,,,,779.9110000357032,go,circleblack.png,left,0.25,,,,,,,,,,,,,,,,0.0013613849878311157,0.4896388053894043,,782.4128011241555,test,2,,,,,,,,,779.929488543421,780.4429236128926,780.42611573264,780.42611573264,780.6764900274575,781.176522217691,781.427353516221,782.4324692077935,left,1,0.3681977391242981,0.25,,,,,,,,,,,s006,001,2024-06-21_16h59.02.901,simplestop_skeleton,2022.2.2,59.95102219630147,
None,None,,,,,,,,,1,0,1,0,0,2,2,3,,,,,,,,,782.4132398068905,go,squareblack.png,right,0.25,,,,,,,,,,,,,,,,0.0018205754458904266,0.489309124648571,,784.9154707938433,test,2,,,,,,,,,782.4324692077935,782.9455436766148,782.9288116171956,782.9288116171956,783.1790849938989,783.6790351197124,783.9298221282661,784.9348921105266,right,1,0.31791043281555176,0.25,,,,,,,,,,,s006,001,2024-06-21_16h59.02.901,simplestop_skeleton,2022.2.2,59.95102219630147,
None,None,,,,,,,,,1,0,1,0,0,3,3,1,,,,,,,,,784.9159021042287,stop,circleblack.png,left,0.25,,,,,,,,,,,,,,,,0.0019804686307907104,0.48975449427962303,0.7399737872183323,787.4183761700988,test,2,,,,,,,,,784.9348921105266,785.4484510459006,785.431472837925,785.431472837925,785.6817107461393,786.1837666518986,786.4322654493153,787.4373285844922,left,1,0.37231096997857094,0.2,,,,,,,,,,,s006,001,2024-06-21_16h59.02.901,simplestop_skeleton,2022.2.2,59.95102219630147,
None,None,,,,,,,,,1,0,1,0,1,0,4,1,,,,,,,,,787.4188135117292,go,circleblack.png,left,0.2,,,,,,,,,,,,,,,,0.0014531277120113373,0.48961665481328964,,789.9212454594672,test,2,,,,,,,,,787.4373285844922,787.9507926143706,787.9342484772205,787.9342484772205,788.1346492134035,788.6347736567259,788.9355762675405,789.9403073228896,left,1,0.2984069883823395,0.2,,,,,,,,,,,s006,001,2024-06-21_16h59.02.901,simplestop_skeleton,2022.2.2,59.95102219630147,
None,None,,,,,,,,,1,0,1,0,1,1,5,2,,,,,,,,,789.921677287668,stop,circleblack.png,left,0.2,,,,,,,,,,,,,,,,0.001411285251379013,0.4893936924636364,0.6895433031022549,792.4242342598736,test,2,,,,,,,,,789.9403073228896,790.453729018569,790.4373863600194,790.4373863600194,790.6372294686735,791.1379657126963,791.4385014735162,792.4434894137084,left,1,0.45102112367749214,0.15,,,,,,,,,,,s006,001,2024-06-21_16h59.02.901,simplestop_skeleton,2022.2.2,59.95102219630147,
$currentCorrectResponse,$currentGoStim,,,,,,,,,1,0,1,0,1,2,6,0,,,,,,,,,792.4246771410108,go,squareblack.png,right,0.15,,,,,,,,,,,,,,,,0.0019295178353786469,0.48929042741656303,,794.926535077393,test,2,,,,,,,,,792.4434894137084,792.9567253664136,792.939854528755,792.939854528755,793.0903181359172,793.5893814265728,793.9411461427808,794.9457189850509,right,1,0.317794568836689,0.15,,,,,,,,,,,s006,001,2024-06-21_16h59.02.901,simplestop_skeleton,2022.2.2,59.95102219630147,
None,None,,,,,,,,,1,0,1,0,1,3,7,1,,,,,,,,,794.9270526468754,go,squareblack.png,right,0.15,,,,,,,,,,,,,,,,0.001340128481388092,0.48973021656274796,,797.4296519495547,test,2,,,,,,,,,794.9457189850509,795.4592161625624,795.4427322745323,795.4427322745323,795.5927539616823,796.0934877060354,796.443800650537,797.4485722631216,right,1,0.4847482405602932,0.15,,,,,,,,,,,s006,001,2024-06-21_16h59.02.901,simplestop_skeleton,2022.2.2,59.95102219630147,
None,None,,,,,,,,,1,0,1,0,2,0,8,3,,,,,,,,,797.4300828017294,stop,squareblack.png,right,0.15,,,,,,,,,,,,,,,,0.001428905874490738,0.48960741236805916,0.6394817605614662,799.9322039559484,test,2,,,,,,,,,797.4485722631216,797.961875513196,797.9453022032976,797.9453022032976,798.0958291217685,798.5960414111614,798.9467047676444,799.9509755969048,None,0,,0.2,,,,,,,,,,,s006,001,2024-06-21_16h59.02.901,simplestop_skeleton,2022.2.2,59.95102219630147,
$currentCorrectResponse,$currentGoStim,,,,,,,,,1,0,1,0,2,1,9,0,,,,,,,,,799.9326447322965,stop,squareblack.png,right,0.2,,,,,,,,,,,,,,,,0.0013137906789779663,0.4895865321159363,0.6899670027196407,802.4349979646504,test,2,,,,,,,,,799.9509755969048,800.4646327346563,800.44803449139,800.44803449139,800.6483103260398,801.1489165611565,801.4489539340138,802.4544238187373,right,1,0.3150266669690609,0.15,,,,,,,,,,,s006,001,2024-06-21_16h59.02.901,simplestop_skeleton,2022.2.2,59.95102219630147,
None,None,,,,,,,,,1,0,1,0,2,2,10,2,,,,,,,,,802.4354491904378,go,circleblack.png,left,0.15,,,,,,,,,,,,,,,,0.0020899325609207153,0.4896969310939312,,804.9376772269607,test,2,,,,,,,,,802.4544238187373,802.9673471823335,802.9508243761957,802.9508243761957,803.1011606901884,803.6012093871832,803.9518006592989,804.957168918103,right,0,0.3492183946073055,0.15,,,,,,,,,,,s006,001,2024-06-21_16h59.02.901,simplestop_skeleton,2022.2.2,59.95102219630147,
$currentCorrectResponse,$currentGoStim,,,,,,,,,1,0,1,0,2,3,11,0,,,,,,,,,804.9381606765091,go,squareblack.png,right,0.15,,,,,,,,,,,,,,,,0.0017532408237457275,0.48939981684088707,,807.4404745362699,test,2,,,,,,,,,804.957168918103,805.4703095369041,805.4534438513219,805.4534438513219,805.6039467602968,806.104248970747,806.4546876959503,807.4593012593687,right,1,0.39531154930591583,0.15,,,,,,,,,,,s006,001,2024-06-21_16h59.02.901,simplestop_skeleton,2022.2.2,59.95102219630147,
$currentCorrectResponse,$currentGoStim,,,,,,,,,1,0,1,0,3,0,12,0,,,,,,,,,807.4409199543297,go,squareblack.png,right,0.15,,,,,,,,,,,,,,,,0.0012946277856826782,0.48973530530929565,,809.943552274257,test,2,,,,,,,,,807.4593012593687,807.9731234051287,807.9563843645155,807.9563843645155,808.1066305749118,808.6058359704912,808.9574761353433,809.9628321453929,right,1,0.32914721220731735,0.15,,,,,,,,,,,s006,001,2024-06-21_16h59.02.901,simplestop_skeleton,2022.2.2,59.95102219630147,
$currentCorrectResponse,$currentGoStim,,,,,,,,,1,0,1,0,3,1,13,0,,,,,,,,,809.9440012276173,go,circleblack.png,left,0.15,,,,,,,,,,,,,,,,0.0020227693021297455,0.48960021510720253,,812.4457097016275,test,2,,,,,,,,,809.9628321453929,810.4757415354252,810.4592157416046,810.4592157416046,810.6092651598155,811.1085389405489,811.4601470567286,812.4650513231754,left,1,0.3001851961016655,0.15,,,,,,,,,,,s006,001,2024-06-21_16h59.02.901,simplestop_skeleton,2022.2.2,59.95102219630147,
None,None,,,,,,,,,1,0,1,0,3,2,14,1,,,,,,,,,812.4461439996958,go,squareblack.png,right,0.15,,,,,,,,,,,,,,,,0.0016613341867923737,0.48974742740392685,,814.9484949707985,test,2,,,,,,,,,812.4650513231754,812.978417225182,812.9618008881807,812.9618008881807,813.112203028053,813.6125560551882,813.9628367498517,814.9672988802195,right,1,0.37130704894661903,0.15,,,,,,,,,,,s006,001,2024-06-21_16h59.02.901,simplestop_skeleton,2022.2.2,59.95102219630147,
None,None,,,,,,,,,1,0,1,0,3,3,15,2,,,,,,,,,814.9490088783205,go,squareblack.png,right,0.15,,,,,,,,,,,,,,,,0.0011701211333274841,0.48959387838840485,,817.4518387205899,test,2,,,,,,,,,814.9672988802195,815.4811776764691,815.4646831788123,815.4646831788123,815.6146593801677,816.116614241153,816.4658109731972,817.4712865166366,right,1,0.30926500633358955,0.15,,,,,,,,,,,s006,001,2024-06-21_16h59.02.901,simplestop_skeleton,2022.2.2,59.95102219630147,
$currentCorrectResponse,$currentGoStim,,,,,,,,,1,0,1,0,4,0,16,0,,,,,,,,,817.4522859938443,go,circleblack.png,left,0.15,,,,,,,,,,,,,,,,0.0026086121797561646,0.48935604467988014,,819.9540605023503,test,2,,,,,,,,,817.4712865166366,817.9841916263103,817.9676960371435,817.9676960371435,818.1175927743316,818.6180960126221,818.9685320705175,819.9729401506484,left,1,0.3645026236772537,0.15,,,,,,,,,,,s006,001,2024-06-21_16h59.02.901,simplestop_skeleton,2022.2.2,59.95102219630147,
None,None,,,,,,,,,1,0,1,0,4,1,17,3,,,,,,,,,819.9544979780912,stop,circleblack.png,left,0.15,,,,,,,,,,,,,,,,0.001496594399213791,0.49000514671206474,0.6401403956115246,822.4570482075214,test,2,,,,,,,,,819.9729401506484,820.486821770668,820.470303915441,820.470303915441,820.6205760873854,821.1377235129476,821.4712623544037,822.4757393486798,left,1,0.29029450565576553,0.1,,,,,,,,,,,s006,001,2024-06-21_16h59.02.901,simplestop_skeleton,2022.2.2,59.95102219630147,
$currentCorrectResponse,$currentGoStim,,,,,,,,,1,0,1,0,4,2,18,0,,,,,,,,,822.45749367401,go,circleblack.png,left,0.1,,,,,,,,,,,,,,,,0.0013960972428321838,0.48958150669932365,,824.9597383402288,test,2,,,,,,,,,822.4757393486798,822.9895492196083,822.9727974310517,822.9727974310517,823.0730344541371,823.5736217871308,823.9740117564797,824.978904325515,left,1,0.3383220173418522,0.1,,,,,,,,,,,s006,001,2024-06-21_16h59.02.901,simplestop_skeleton,2022.2.2,59.95102219630147,
None,None,,,,,,,,,1,0,1,0,4,3,19,2,,,,,,,,,824.960184071213,stop,squareblack.png,right,0.1,,,,,,,,,,,,,,,,0.0016844198107719421,0.4894965663552284,0.589776623994112,827.4626984931529,test,2,,,,,,,,,824.978904325515,825.4922384954989,825.4757242500782,825.4757242500782,825.5756222009659,826.0762600153685,826.4767362363636,827.4819751009345,None,0,,0.15,,,,,,,,,,,s006,001,2024-06-21_16h59.02.901,simplestop_skeleton,2022.2.2,59.95102219630147,
None,None,,,,,,,,,1,0,1,0,5,0,20,2,,,,,,,,,827.4631403498352,stop,circleblack.png,left,0.15,,,,,,,,,,,,,,,,0.0018626488745212555,0.4900099188089371,0.6400730982422829,829.9654811248183,test,2,,,,,,,,,827.4819751009345,827.9951967746019,827.9789309948683,827.9789309948683,828.1286097019911,828.6293686144054,828.9798620380461,829.9847031272948,None,0,,0.2,,,,,,,,,,,s006,001,2024-06-21_16h59.02.901,simplestop_skeleton,2022.2.2,59.95102219630147,
None,None,,,,,,,,,1,0,1,0,5,1,21,2,,,,,,,,,829.9659948684275,stop,squareblack.png,right,0.2,,,,,,,,,,,,,,,,0.0017375387251377106,0.48928942903876305,0.6895726732909679,832.4679168909788,test,2,,,,,,,,,829.9847031272948,830.4979756996036,830.4815702885389,830.4815702885389,830.6814782992005,831.1819231770933,831.482378218323,832.4870268106461,None,0,,0.25,,,,,,,,,,,s006,001,2024-06-21_16h59.02.901,simplestop_skeleton,2022.2.2,59.95102219630147,
None,None,,,,,,,,,1,0,1,0,5,2,22,3,,,,,,,,,832.4683493487537,go,squareblack.png,right,0.25,,,,,,,,,,,,,,,,0.0012953095138072968,0.4895135350525379,,834.97057633847,test,2,,,,,,,,,832.4870268106461,833.0005365461111,832.9837121926248,832.9837121926248,833.2342541702092,833.7346232533455,833.98501650244,834.9897973164916,right,1,0.49426639825105667,0.25,,,,,,,,,,,s006,001,2024-06-21_16h59.02.901,simplestop_skeleton,2022.2.2,59.95102219630147,
$currentCorrectResponse,$currentGoStim,,,,,,,,,1,0,1,0,5,3,23,0,,,,,,,,,834.9710109420121,go,circleblack.png,left,0.25,,,,,,,,,,,,,,,,0.0017611794173717499,0.48957080766558647,,837.4737172238529,test,2,,,,,,,,,834.9897973164916,835.5034166388214,835.4864378832281,835.4864378832281,835.7368580847979,836.2373823039234,836.4882936254144,837.4934884943068,left,1,0.534315250813961,0.25,,,,,,,,,,,s006,001,2024-06-21_16h59.02.901,simplestop_skeleton,2022.2.2,59.95102219630147,
None,None,,,,,,,,,1,0,1,0,6,0,24,1,,,,,,,,,837.4741846434772,go,squareblack.png,right,0.25,,,,,,,,,,,,,,,,0.0022601336240768433,0.48926959186792374,,839.9762363135815,test,2,,,,,,,,,837.4934884943068,838.0061475597322,837.989595092833,837.989595092833,838.2398708313704,838.7401567585766,838.9906633719802,839.9948664233088,right,1,0.34440427646040916,0.25,,,,,,,,,,,s006,001,2024-06-21_16h59.02.901,simplestop_skeleton,2022.2.2,59.95102219630147,
None,None,,,,,,,,,1,0,1,0,6,1,25,3,,,,,,,,,839.9766752310097,stop,squareblack.png,right,0.25,,,,,,,,,,,,,,,,0.0012387819588184357,0.49018774554133415,0.7401825301349163,842.4788312017918,test,2,,,,,,,,,839.9948664233088,840.5090298466384,840.4924187585711,840.4924187585711,840.7426132261753,841.2430647648871,841.4931766688824,842.4977173954248,None,0,,0.3,,,,,,,,,,,s006,001,2024-06-21_16h59.02.901,simplestop_skeleton,2022.2.2,59.95102219630147,
None,None,,,,,,,,,1,0,1,0,6,2,26,1,,,,,,,,,842.4792734794319,stop,squareblack.png,right,0.3,,,,,,,,,,,,,,,,0.0011986754834651947,0.49010591581463814,0.7900570929050446,844.9817896038294,test,2,,,,,,,,,842.4977173954248,843.0117138773203,842.9951374977827,842.9951374977827,843.2952458448708,843.7953010611236,843.9955052956939,845.0006127096713,right,1,0.3560671731829643,0.25,,,,,,,,,,,s006,001,2024-06-21_16h59.02.901,simplestop_skeleton,2022.2.2,59.95102219630147,
None,None,,,,,,,,,1,0,1,0,6,3,27,1,,,,,,,,,844.9822222478688,go,squareblack.png,right,0.25,,,,,,,,,,,,,,,,0.001345209777355194,0.4895806536078453,,847.4848765097558,test,2,,,,,,,,,845.0006127096713,845.5145887322724,845.4979423135519,845.4979423135519,845.7481730394065,846.2485762163997,846.4984646365047,847.504482768476,right,1,0.4487636387348175,0.25,,,,,,,,,,,s006,001,2024-06-21_16h59.02.901,simplestop_skeleton,2022.2.2,59.95102219630147,
None,None,,,,,,,,,1,0,1,0,7,0,28,3,,,,,,,,,847.4853274710476,go,squareblack.png,right,0.25,,,,,,,,,,,,,,,,0.0015450753271579742,0.48914358764886856,,849.9875755086541,test,2,,,,,,,,,847.504482768476,848.0172625482082,848.000689893961,848.000689893961,848.250983774662,848.750021211803,849.0014041662216,850.0064502358437,right,1,0.4252195619046688,0.25,,,,,,,,,,,s006,001,2024-06-21_16h59.02.901,simplestop_skeleton,2022.2.2,59.95102219630147,
None,None,,,,,,,,,1,0,1,0,7,1,29,2,,,,,,,,,849.9880089275539,go,squareblack.png,right,0.25,,,,,,,,,,,,,,,,0.0013179183006286621,0.48951033502817154,,852.4903601966798,test,2,,,,,,,,,850.0064502358437,850.520222183317,850.5033309422433,850.5033309422433,850.7538327090442,851.2553378269076,851.5039359107614,852.5096590854228,right,1,0.3827918469905853,0.25,,,,,,,,,,,s006,001,2024-06-21_16h59.02.901,simplestop_skeleton,2022.2.2,59.95102219630147,
None,None,,,,,,,,,1,0,1,0,7,2,30,2,,,,,,,,,852.4908014312387,go,circleblack.png,left,0.25,,,,,,,,,,,,,,,,0.0019627846777439117,0.48963864147663116,,854.9930947497487,test,2,,,,,,,,,852.5096590854228,853.0231520943344,853.0060100480914,853.0060100480914,853.2564242966473,853.7557227984071,854.0069031119347,855.0121152363718,left,1,0.41559065505862236,0.25,,,,,,,,,,,s006,001,2024-06-21_16h59.02.901,simplestop_skeleton,2022.2.2,59.95102219630147,
None,None,,,,,,,,,1,0,1,0,7,3,31,2,,,,,,,,,854.9935375005007,go,circleblack.png,left,0.25,,,,,,,,,,,,,,,,0.001440543681383133,0.4896562620997429,,857.4957521259785,test,2,,,,,,,,,855.0121152363718,855.5257119722664,855.5094614624977,855.5094614624977,855.7592424452305,856.2595106139779,856.5099241659045,857.5148372538388,left,1,0.3498707190155983,0.25,,,,,,,,,,,s006,001,2024-06-21_16h59.02.901,simplestop_skeleton,2022.2.2,59.95102219630147,
None,None,,,,,,,,,1,0,1,0,8,0,32,1,,,,,,,,,857.4961875043809,go,circleblack.png,left,0.25,,,,,,,,,,,,,,,,0.0014048852026462555,0.4892742857336998,,859.9983493089676,test,2,,,,,,,,,857.5148372538388,858.0283929035068,858.0115578100085,858.0115578100085,858.2617743946612,858.7625628337264,859.0122631303966,860.017499063164,left,1,0.5769639797508717,0.25,,,,,,,,,,,s006,001,2024-06-21_16h59.02.901,simplestop_skeleton,2022.2.2,59.95102219630147,
None,None,,,,,,,,,1,0,1,0,8,1,33,3,,,,,,,,,859.9987810142338,stop,circleblack.png,left,0.25,,,,,,,,,,,,,,,,0.0013462230563163757,0.49003148823976517,0.7400137446820736,862.5008296146989,test,2,,,,,,,,,860.017499063164,860.5309504792094,860.5143279656768,860.5143279656768,860.7645945996046,861.265173330903,861.515381205827,862.5194207914174,None,0,,0.3,,,,,,,,,,,s006,001,2024-06-21_16h59.02.901,simplestop_skeleton,2022.2.2,59.95102219630147,
None,None,,,,,,,,,1,0,1,0,8,2,34,1,,,,,,,,,862.5012694187462,go,circleblack.png,left,0.3,,,,,,,,,,,,,,,,0.0012545697391033173,0.49005066975951195,,865.0037428922951,test,2,,,,,,,,,862.5194207914174,863.0336835198104,863.0172406323254,863.0172406323254,863.3175721429288,863.818016000092,864.0182570852339,865.0226407833397,left,1,0.6093469001352787,0.3,,,,,,,,,,,s006,001,2024-06-21_16h59.02.901,simplestop_skeleton,2022.2.2,59.95102219630147,
$currentCorrectResponse,$currentGoStim,,,,,,,,,1,0,1,0,8,3,35,0,,,,,,,,,865.0041875913739,stop,circleblack.png,left,0.3,,,,,,,,,,,,,,,,0.0012952350080013275,0.4899611510336399,0.790645245462656,867.5066276714206,test,2,,,,,,,,,865.0226407833397,865.536584097892,865.5199286788702,865.5199286788702,865.8222506009042,866.3377328589559,866.5207761004567,867.5257857739925,None,0,,0.35,,,,,,,,,,,s006,001,2024-06-21_16h59.02.901,simplestop_skeleton,2022.2.2,59.95102219630147,
None,None,,,,,,,,,1,0,1,0,9,0,36,1,,,,,,,,,867.5070710293949,go,circleblack.png,left,0.35,,,,,,,,,,,,,,,,0.0013849139213562012,0.489413782954216,,870.0093293786049,test,2,,,,,,,,,867.5257857739925,868.0394783616066,868.0227072499692,868.0227072499692,868.3729089275002,868.8731840215623,869.0231471769512,870.0285000577569,left,1,0.43931642919778824,0.35,,,,,,,,,,,s006,001,2024-06-21_16h59.02.901,simplestop_skeleton,2022.2.2,59.95102219630147,
None,None,,,,,,,,,1,0,1,0,9,1,37,2,,,,,,,,,870.0097726769745,go,circleblack.png,left,0.35,,,,,,,,,,,,,,,,0.0013869963586330414,0.4896034151315689,,872.5125195384026,test,2,,,,,,,,,870.0285000577569,870.5419205725193,870.5254046879709,870.5254046879709,870.8756412416697,871.3759938776493,871.5259162560105,872.5314124338329,left,1,0.45608894526958466,0.35,,,,,,,,,,,s006,001,2024-06-21_16h59.02.901,simplestop_skeleton,2022.2.2,59.95102219630147,
$currentCorrectResponse,$currentGoStim,,,,,,,,,1,0,1,0,9,2,38,0,,,,,,,,,872.5129540301859,stop,circleblack.png,left,0.35,,,,,,,,,,,,,,,,0.001435212790966034,0.4894731044769287,0.839875053614378,875.0153446868062,test,2,,,,,,,,,872.5314124338329,873.0447717607021,873.0283012874424,873.0283012874424,873.3786108791828,873.8795610368252,874.0292372480035,875.0344515703619,None,0,,0.4,,,,,,,,,,,s006,001,2024-06-21_16h59.02.901,simplestop_skeleton,2022.2.2,59.95102219630147,
None,None,,,,,,,,,1,0,1,0,9,3,39,3,,,,,,,,,875.0157915838063,go,squareblack.png,right,0.4,,,,,,,,,,,,,,,,0.0017421655356884003,0.4895073436200619,,877.5177232436836,test,2,,,,,,,,,875.0344515703619,875.5478063076735,875.5309458747506,875.5309458747506,875.931532625109,876.431428629905,876.5315856039524,877.5372310988605,right,1,0.36853617802262306,0.4,,,,,,,,,,,s006,001,2024-06-21_16h59.02.901,simplestop_skeleton,2022.2.2,59.95102219630147,
$currentCorrectResponse,$currentGoStim,,,,,,,,,1,0,1,0,10,0,40,0,,,,,,,,,877.5181677825749,stop,circleblack.png,left,0.4,,,,,,,,,,,,,,,,0.001871999353170395,0.489598885178566,0.8900671973824501,880.0204206854105,test,2,,,,,,,,,877.5372310988605,878.0505019538105,878.0339705906808,878.0339705906808,878.434102781117,878.933296252042,879.0342840924859,880.0397775955498,left,1,0.5599355474114418,0.35,,,,,,,,,,,s006,001,2024-06-21_16h59.02.901,simplestop_skeleton,2022.2.2,59.95102219630147,
None,None,,,,,,,,,1,0,1,0,10,1,41,1,,,,,,,,,880.0208517350256,go,squareblack.png,right,0.35,,,,,,,,,,,,,,,,0.0017064772546291351,0.48978834599256516,,882.5231983102858,test,2,,,,,,,,,880.0397775955498,880.5532335601747,880.5364662371576,880.5364662371576,880.887077961117,881.3862853981555,881.5371339991689,882.5426172725856,right,1,0.5013396553695202,0.35,,,,,,,,,,,s006,001,2024-06-21_16h59.02.901,simplestop_skeleton,2022.2.2,59.95102219630147,
$currentCorrectResponse,$currentGoStim,,,,,,,,,1,0,1,0,10,2,42,0,,,,,,,,,882.5236276611686,go,circleblack.png,left,0.35,,,,,,,,,,,,,,,,0.0018574148416519165,0.48997531458735466,,885.0263665281236,test,2,,,,,,,,,882.5426172725856,883.0559075921774,883.0394073054194,883.0394073054194,883.3896054290235,883.8903777375817,884.0406014174223,885.0455662496388,left,1,0.6165042296051979,0.35,,,,,,,,,,,s006,001,2024-06-21_16h59.02.901,simplestop_skeleton,2022.2.2,59.95102219630147,
None,None,,,,,,,,,1,0,1,0,10,3,43,2,,,,,,,,,885.0268058367074,go,squareblack.png,right,0.35,,,,,,,,,,,,,,,,0.001757841557264328,0.4893120788037777,,887.5287824235857,test,2,,,,,,,,,885.0455662496388,885.5583971515298,885.5420969463885,885.5420969463885,885.8924517892301,886.3915117271245,886.5422518104315,887.5483852848411,right,1,0.5411160439252853,0.35,,,,,,,,,,,s006,001,2024-06-21_16h59.02.901,simplestop_skeleton,2022.2.2,59.95102219630147,
None,None,,,,,,,,,1,0,1,0,11,0,44,3,,,,,,,,,887.529224012047,go,circleblack.png,left,0.35,,,,,,,,,,,,,,,,0.0019593462347984314,0.49001676589250565,,890.0318686962128,test,2,,,,,,,,,887.5483852848411,888.0615364313126,888.0448006503284,888.0448006503284,888.3951862975955,888.8955566883087,889.045828294009,890.0511742085218,left,1,0.6256909221410751,0.35,,,,,,,,,,,s006,001,2024-06-21_16h59.02.901,simplestop_skeleton,2022.2.2,59.95102219630147,
None,None,,,,,,,,,1,0,1,0,11,1,45,3,,,,,,,,,890.0323165841401,stop,squareblack.png,right,0.35,,,,,,,,,,,,,,,,0.002391040325164795,0.48899153620004654,0.8395631574094296,892.5342064909637,test,2,,,,,,,,,890.0511742085218,890.5643854364753,890.5476524159312,890.5476524159312,890.8979940526187,891.3987443521619,891.5489172525704,892.553153667599,None,0,,0.4,,,,,,,,,,,s006,001,2024-06-21_16h59.02.901,simplestop_skeleton,2022.2.2,59.95102219630147,
None,None,,,,,,,,,1,0,1,0,11,2,46,3,,,,,,,,,892.5346433483064,go,squareblack.png,right,0.4,,,,,,,,,,,,,,,,0.0012599937617778778,0.4900127872824669,,895.0375644005835,test,2,,,,,,,,,892.553153667599,893.0670305304229,893.0502245798707,893.0502245798707,893.4506034962833,893.9515089951456,894.0513649992645,895.0565672181547,right,1,0.6970630399882793,0.4,,,,,,,,,,,s006,001,2024-06-21_16h59.02.901,simplestop_skeleton,2022.2.2,59.95102219630147,
None,None,,,,,,,,,1,0,1,0,11,3,47,2,,,,,,,,,895.0380106344819,stop,squareblack.png,right,0.4,,,,,,,,,,,,,,,,0.0014323964715003967,0.48906660825014114,0.8896166644990444,897.5402217432857,test,2,,,,,,,,,895.0565672181547,895.5697726458311,895.5529165379703,895.5529165379703,895.9535770751536,896.4539774991572,896.5542211867869,897.5555908419192,None,0,,0.45,,,,,,,,,,,s006,001,2024-06-21_16h59.02.901,simplestop_skeleton,2022.2.2,59.95102219630147,
,,,,,,,,,,1,0,1,0,,,,,,,,,,,,,,,,,,,,,,,,,,,,,,,,,,,,,,,,,,,,,,,,,,,,,,,,,,,897.5555908419192,897.5555908419192,return,5.050770733505487,"[{'fileName': 'squareblack.png', 'correct_response': 'right', 'condition': 'go'}, {'fileName': 'squareblack.png', 'correct_response': 'right', 'condition': 'stop'}, {'fileName': 'squareblack.png', 'correct_response': 'right', 'condition': 'stop'}, {'fileName': 'circleblack.png', 'correct_response': 'left', 'condition': 'stop'}, {'fileName': 'squareblack.png', 'correct_response': 'right', 'condition': 'go'}, {'fileName': 'circleblack.png', 'correct_response': 'left', 'condition': 'go'}, {'fileName': 'squareblack.png', 'correct_response': 'right', 'condition': 'go'}, {'fileName': 'squareblack.png', 'correct_response': 'right', 'condition': 'go'}, {'fileName': 'circleblack.png', 'correct_response': 'left', 'condition': 'stop'}, {'fileName': 'circleblack.png', 'correct_response': 'left', 'condition': 'go'}, {'fileName': 'circleblack.png', 'correct_response': 'left', 'condition': 'go'}, {'fileName': 'circleblack.png', 'correct_response': 'left', 'condition': 'go'}, {'fileName': 'circleblack.png', 'correct_response': 'left', 'condition': 'stop'}, {'fileName': 'squareblack.png', 'correct_response': 'right', 'condition': 'go'}, {'fileName': 'circleblack.png', 'correct_response': 'left', 'condition': 'stop'}, {'fileName': 'squareblack.png', 'correct_response': 'right', 'condition': 'go'}, {'fileName': 'squareblack.png', 'correct_response': 'right', 'condition': 'stop'}, {'fileName': 'circleblack.png', 'correct_response': 'left', 'condition': 'go'}, {'fileName': 'circleblack.png', 'correct_response': 'left', 'condition': 'go'}, {'fileName': 'squareblack.png', 'correct_response': 'right', 'condition': 'go'}, {'fileName': 'squareblack.png', 'correct_response': 'right', 'condition': 'go'}, {'fileName': 'squareblack.png', 'correct_response': 'right', 'condition': 'stop'}, {'fileName': 'circleblack.png', 'correct_response': 'left', 'condition': 'go'}, {'fileName': 'circleblack.png', 'correct_response': 'left', 'condition': 'go'}, {'fileName': 'squareblack.png', 'correct_response': 'right', 'condition': 'go'}, {'fileName': 'circleblack.png', 'correct_response': 'left', 'condition': 'go'}, {'fileName': 'circleblack.png', 'correct_response': 'left', 'condition': 'go'}, {'fileName': 'circleblack.png', 'correct_response': 'left', 'condition': 'go'}, {'fileName': 'squareblack.png', 'correct_response': 'right', 'condition': 'go'}, {'fileName': 'circleblack.png', 'correct_response': 'left', 'condition': 'stop'}, {'fileName': 'circleblack.png', 'correct_response': 'left', 'condition': 'go'}, {'fileName': 'squareblack.png', 'correct_response': 'right', 'condition': 'go'}, {'fileName': 'squareblack.png', 'correct_response': 'right', 'condition': 'stop'}, {'fileName': 'squareblack.png', 'correct_response': 'right', 'condition': 'go'}, {'fileName': 'circleblack.png', 'correct_response': 'left', 'condition': 'stop'}, {'fileName': 'squareblack.png', 'correct_response': 'right', 'condition': 'stop'}, {'fileName': 'squareblack.png', 'correct_response': 'right', 'condition': 'go'}, {'fileName': 'circleblack.png', 'correct_response': 'left', 'condition': 'stop'}, {'fileName': 'squareblack.png', 'correct_response': 'right', 'condition': 'stop'}, {'fileName': 'circleblack.png', 'correct_response': 'left', 'condition': 'go'}, {'fileName': 'squareblack.png', 'correct_response': 'right', 'condition': 'go'}, {'fileName': 'circleblack.png', 'correct_response': 'left', 'condition': 'stop'}, {'fileName': 'circleblack.png', 'correct_response': 'left', 'condition': 'go'}, {'fileName': 'circleblack.png', 'correct_response': 'left', 'condition': 'go'}, {'fileName': 'circleblack.png', 'correct_response': 'left', 'condition': 'go'}, {'fileName': 'squareblack.png', 'correct_response': 'right', 'condition': 'go'}, {'fileName': 'squareblack.png', 'correct_response': 'right', 'condition': 'stop'}, {'fileName': 'squareblack.png', 'correct_response': 'right', 'condition': 'go'}]",,,,,,s006,001,2024-06-21_16h59.02.901,simplestop_skeleton,2022.2.2,59.95102219630147,
None,None,,,,,,,,,2,0,2,0,0,0,0,2,,,,,,,,,902.6210510656238,go,squareblack.png,right,0.45,,,,,,,,,,,,,,,,0.001291126012802124,0.49727948382496834,,905.1316685006022,test,3,,,,,,,,,902.6407646350563,903.1450557000935,903.1450557000935,903.1450557000935,903.5952984318137,904.095751490444,904.1458123736084,905.1508859470487,right,1,0.42316698655486107,0.45,,,,,,,,,,,s006,001,2024-06-21_16h59.02.901,simplestop_skeleton,2022.2.2,59.95102219630147,
$currentCorrectResponse,$currentGoStim,,,,,,,,,2,0,2,0,0,1,1,0,,,,,,,,,905.132212549448,stop,squareblack.png,right,0.45,,,,,,,,,,,,,,,,0.0014311745762825012,0.4893850050866604,0.9402277506887913,907.6343802325428,test,3,,,,,,,,,905.1508859470487,905.6645072549582,905.647462811321,905.647462811321,906.0983178988099,906.5979224182665,906.6482459753752,907.6535107754171,right,1,0.4262276813387871,0.4,,,,,,,,,,,s006,001,2024-06-21_16h59.02.901,simplestop_skeleton,2022.2.2,59.95102219630147,
None,None,,,,,,,,,2,0,2,0,0,2,2,3,,,,,,,,,907.6348310001194,stop,squareblack.png,right,0.4,,,,,,,,,,,,,,,,0.001342426985502243,0.4895320236682892,0.8898403495550156,910.1368986926973,test,3,,,,,,,,,907.6535107754171,908.166839633137,908.150252673775,908.150252673775,908.5507826320827,909.0503829196095,909.1507548056543,910.1565448604524,right,1,0.4049750678241253,0.35,,,,,,,,,,,s006,001,2024-06-21_16h59.02.901,simplestop_skeleton,2022.2.2,59.95102219630147,
$currentCorrectResponse,$currentGoStim,,,,,,,,,2,0,2,0,0,3,3,0,,,,,,,,,910.1373423673213,stop,circleblack.png,left,0.35,,,,,,,,,,,,,,,,0.001950833946466446,0.48961130529642105,0.8401617258787155,912.6400856785476,test,3,,,,,,,,,910.1565448604524,910.6696717068553,910.6531752236187,910.6531752236187,911.0031907074153,911.5032508224249,911.6533429734409,912.6594714559615,left,1,0.4291605018079281,0.3,,,,,,,,,,,s006,001,2024-06-21_16h59.02.901,simplestop_skeleton,2022.2.2,59.95102219630147,
None,None,,,,,,,,,2,0,2,0,1,0,4,2,,,,,,,,,912.6405289024115,go,squareblack.png,right,0.3,,,,,,,,,,,,,,,,0.001768551766872406,0.48915277794003487,,915.1423788480461,test,3,,,,,,,,,912.6594714559615,913.1724805869162,913.1558280810714,913.1558280810714,913.4559882767498,913.9565993398428,914.1563699096441,915.1615959145129,right,1,0.5145431086421013,0.3,,,,,,,,,,,s006,001,2024-06-21_16h59.02.901,simplestop_skeleton,2022.2.2,59.95102219630147,
None,None,,,,,,,,,2,0,2,0,1,1,5,3,,,,,,,,,915.1428216211498,go,circleblack.png,left,0.3,,,,,,,,,,,,,,,,0.0018549785017967224,0.48983433470129967,,917.6451487727463,test,3,,,,,,,,,915.1615959145129,915.6751440167427,915.6589028574526,915.6589028574526,915.9588367342949,916.4593387544155,916.6594431512058,917.6641171202064,left,1,0.5683343447744846,0.3,,,,,,,,,,,s006,001,2024-06-21_16h59.02.901,simplestop_skeleton,2022.2.2,59.95102219630147,
None,None,,,,,,,,,2,0,2,0,1,2,6,2,,,,,,,,,917.6455863676965,go,squareblack.png,right,0.3,,,,,,,,,,,,,,,,0.0017821118235588074,0.48979174345731735,,920.1478904373944,test,3,,,,,,,,,917.6641171202064,918.1780082322657,918.1612004265189,918.1612004265189,918.4616021998227,918.9618345052004,919.1621171981096,920.1667504645884,right,1,0.41872868314385414,0.3,,,,,,,,,,,s006,001,2024-06-21_16h59.02.901,simplestop_skeleton,2022.2.2,59.95102219630147,
None,None,,,,,,,,,2,0,2,0,1,3,7,2,,,,,,,,,920.1483364030719,go,squareblack.png,right,0.3,,,,,,,,,,,,,,,,0.0011905878782272339,0.4897764101624489,,922.6508691944182,test,3,,,,,,,,,920.1667504645884,920.680756278336,920.6638311445713,920.6638311445713,920.9644231386483,921.4648056253791,921.6651759520173,922.6704490110278,right,1,0.6238746345043182,0.3,,,,,,,,,,,s006,001,2024-06-21_16h59.02.901,simplestop_skeleton,2022.2.2,59.95102219630147,
None,None,,,,,,,,,2,0,2,0,2,0,8,3,,,,,,,,,922.6513116806746,stop,circleblack.png,left,0.3,,,,,,,,,,,,,,,,0.0020748116075992584,0.48955848440527916,0.7900695689022541,925.1534229703248,test,3,,,,,,,,,922.6704490110278,923.1838494129479,923.16674894467,923.16674894467,923.4675073064864,923.9679299332201,924.1678820960224,925.1725026927888,None,0,,0.35,,,,,,,,,,,s006,001,2024-06-21_16h59.02.901,simplestop_skeleton,2022.2.2,59.95102219630147,
None,None,,,,,,,,,2,0,2,0,2,1,9,3,,,,,,,,,925.1538705863059,go,circleblack.png,left,0.35,,,,,,,,,,,,,,,,0.0013541653752326965,0.48991693928837776,,927.6562940590084,test,3,,,,,,,,,925.1725026927888,925.6864255331457,925.6696747168899,925.6696747168899,926.0200483202934,926.5207398273051,926.6706489026546,927.6756460703909,left,1,0.6347103491425514,0.35,,,,,,,,,,,s006,001,2024-06-21_16h59.02.901,simplestop_skeleton,2022.2.2,59.95102219630147,
None,None,,,,,,,,,2,0,2,0,2,2,10,1,,,,,,,,,927.6568079963326,go,circleblack.png,left,0.35,,,,,,,,,,,,,,,,0.0013909265398979187,0.48944633081555367,,930.1583059318364,test,3,,,,,,,,,927.6756460703909,928.1890877336264,928.172307278961,928.172307278961,928.5230349004269,929.0237498134375,929.1721761412919,930.1754068657756,left,1,0.6677148714661598,0.35,,,,,,,,,,,s006,001,2024-06-21_16h59.02.901,simplestop_skeleton,2022.2.2,59.95102219630147,
None,None,,,,,,,,,2,0,2,0,2,3,11,1,,,,,,,,,930.1587528586388,go,circleblack.png,left,0.35,,,,,,,,,,,,,,,,0.0012677088379859924,0.4903614893555641,,932.6617926359177,test,3,,,,,,,,,930.1754068657756,930.6753613874316,930.6753613874316,930.6753613874316,931.0292475223541,931.5418572463095,931.6754218116403,932.6806545108557,left,1,0.5457212068140507,0.35,,,,,,,,,,,s006,001,2024-06-21_16h59.02.901,simplestop_skeleton,2022.2.2,59.95102219630147,
$currentCorrectResponse,$currentGoStim,,,,,,,,,2,0,2,0,3,0,12,0,,,,,,,,,932.6622466221452,stop,circleblack.png,left,0.35,,,,,,,,,,,,,,,,0.0014206171035766602,0.4895513877272606,0.839853186160326,935.1647294312716,test,3,,,,,,,,,932.6806545108557,933.1947166509926,933.1780631430447,933.1780631430447,933.5283047743142,934.0290085598826,934.1791747398674,935.1841722205281,None,0,,0.4,,,,,,,,,,,s006,001,2024-06-21_16h59.02.901,simplestop_skeleton,2022.2.2,59.95102219630147,
None,None,,,,,,,,,2,0,2,0,3,1,13,2,,,,,,,,,935.165179759264,go,squareblack.png,right,0.4,,,,,,,,,,,,,,,,0.0018540695309638977,0.4895029850304127,,937.6673807054758,test,3,,,,,,,,,935.1841722205281,935.6971532590687,935.6804477758706,935.6804477758706,936.0810023136437,936.5810788720846,936.6809813715518,937.6867634765804,right,1,0.49545416235923767,0.4,,,,,,,,,,,s006,001,2024-06-21_16h59.02.901,simplestop_skeleton,2022.2.2,59.95102219630147,
$currentCorrectResponse,$currentGoStim,,,,,,,,,2,0,2,0,3,2,14,0,,,,,,,,,937.6678321994841,stop,circleblack.png,left,0.4,,,,,,,,,,,,,,,,0.0016759857535362244,0.48983652144670486,0.8901474066078663,940.1700346432626,test,3,,,,,,,,,937.6867634765804,938.1999596506357,938.1835789419711,938.1835789419711,938.5840910151601,939.0844739638269,939.1845738850534,940.1891906671226,None,0,,0.45,,,,,,,,,,,s006,001,2024-06-21_16h59.02.901,simplestop_skeleton,2022.2.2,59.95102219630147,
None,None,,,,,,,,,2,0,2,0,3,3,15,3,,,,,,,,,940.1704818457365,go,squareblack.png,right,0.45,,,,,,,,,,,,,,,,0.001612648367881775,0.489776324480772,,942.6728969663382,test,3,,,,,,,,,940.1891906671226,940.7027799449861,940.6863535232842,940.6863535232842,941.1366243883967,941.6373637989163,941.6871157325804,942.6920055858791,right,1,0.6952127479016781,0.45,,,,,,,,,,,s006,001,2024-06-21_16h59.02.901,simplestop_skeleton,2022.2.2,59.95102219630147,
$currentCorrectResponse,$currentGoStim,,,,,,,,,2,0,2,0,4,0,16,0,,,,,,,,,942.6733348630369,stop,squareblack.png,right,0.45,,,,,,,,,,,,,,,,0.0013493634760379791,0.48979803174734116,0.9400232136249542,945.1757883653045,test,3,,,,,,,,,942.6920055858791,943.2055910639465,943.1891077831388,943.1891077831388,943.6396608799696,944.1386959962547,944.1894556954503,945.1954905465245,right,1,0.6065343022346497,0.4,,,,,,,,,,,s006,001,2024-06-21_16h59.02.901,simplestop_skeleton,2022.2.2,59.95102219630147,
None,None,,,,,,,,,2,0,2,0,4,1,17,3,,,,,,,,,945.1762255057693,go,circleblack.png,left,0.4,,,,,,,,,,,,,,,,0.0020021945238113403,0.4894746318459511,,947.6782473437488,test,3,,,,,,,,,945.1954905465245,945.7082905769348,945.6916395388544,945.6916395388544,946.0921943709254,946.5925437808037,946.6924975775182,947.6971976645291,left,1,0.7139076255261898,0.4,,,,,,,,,,,s006,001,2024-06-21_16h59.02.901,simplestop_skeleton,2022.2.2,59.95102219630147,
None,None,,,,,,,,,2,0,2,0,4,2,18,1,,,,,,,,,947.6786911375821,go,circleblack.png,left,0.4,,,,,,,,,,,,,,,,0.0014423839747905731,0.4899422451853752,,950.1810359098017,test,3,,,,,,,,,947.6971976645291,948.2109723724425,948.1942173652351,948.1942173652351,948.594912994653,949.0954310633242,949.1953749321401,950.2006070911884,left,1,0.7818795293569565,0.4,,,,,,,,,,,s006,001,2024-06-21_16h59.02.901,simplestop_skeleton,2022.2.2,59.95102219630147,
$currentCorrectResponse,$currentGoStim,,,,,,,,,2,0,2,0,4,3,19,0,,,,,,,,,950.1814895570278,go,squareblack.png,right,0.4,,,,,,,,,,,,,,,,0.0018073022365570068,0.48940251395106316,,952.6844092570245,test,3,,,,,,,,,950.2006070911884,950.7137079238892,950.6970163360238,950.6970163360238,951.0974224284291,951.5982736870646,951.6969546377659,952.7030805982649,right,1,0.6853860095143318,0.4,,,,,,,,,,,s006,001,2024-06-21_16h59.02.901,simplestop_skeleton,2022.2.2,59.95102219630147,
None,None,,,,,,,,,2,0,2,0,5,0,20,1,,,,,,,,,952.6848532035947,go,squareblack.png,right,0.4,,,,,,,,,,,,,,,,0.0013632997870445251,0.48959554359316826,,955.1867353320122,test,3,,,,,,,,,952.7030805982649,953.2170347347856,953.1999051123857,953.1999051123857,953.6005971431732,954.1007499098778,954.1999007351696,955.2056595757604,right,1,0.6702666617929935,0.4,,,,,,,,,,,s006,001,2024-06-21_16h59.02.901,simplestop_skeleton,2022.2.2,59.95102219630147,
None,None,,,,,,,,,2,0,2,0,5,1,21,3,,,,,,,,,955.187187526375,stop,squareblack.png,right,0.4,,,,,,,,,,,,,,,,0.001298505812883377,0.4896863251924515,0.8901901580393314,957.6894915662706,test,3,,,,,,,,,955.2056595757604,955.7193399481475,955.702755253762,955.702755253762,956.1034702323377,956.6035417877138,956.7036879770458,957.7091876193881,None,0,,0.45,,,,,,,,,,,s006,001,2024-06-21_16h59.02.901,simplestop_skeleton,2022.2.2,59.95102219630147,
None,None,,,,,,,,,2,0,2,0,5,2,22,2,,,,,,,,,957.6899242773652,go,circleblack.png,left,0.45,,,,,,,,,,,,,,,,0.001968882977962494,0.48962463438510895,,960.1922299675643,test,3,,,,,,,,,957.7091876193881,958.2220157980919,958.2052970007062,958.2052970007062,958.655867587775,959.1565310172737,959.2053486593068,960.2114635333419,left,1,0.679030068218708,0.45,,,,,,,,,,,s006,001,2024-06-21_16h59.02.901,simplestop_skeleton,2022.2.2,59.95102219630147,
None,None,,,,,,,,,2,0,2,0,5,3,23,2,,,,,,,,,960.1927396245301,go,circleblack.png,left,0.45,,,,,,,,,,,,,,,,0.0013940706849098206,0.4895108789205551,,962.6948116384447,test,3,,,,,,,,,960.2114635333419,960.7247424013913,960.7082370109856,960.7082370109856,961.158590529114,961.6592169329524,961.7089626416564,962.7142697609961,left,1,0.7018995322287083,0.45,,,,,,,,,,,s006,001,2024-06-21_16h59.02.901,simplestop_skeleton,2022.2.2,59.95102219630147,
None,None,,,,,,,,,2,0,2,0,6,0,24,2,,,,,,,,,962.6952427104115,go,squareblack.png,right,0.45,,,,,,,,,,,,,,,,0.0017696842551231384,0.4896697700023651,,965.1974929943681,test,3,,,,,,,,,962.7142697609961,963.2275696694851,963.2108281366527,963.2108281366527,963.6611856818199,964.1619577556849,964.2118653468788,965.2169337272644,right,1,0.7350183539092541,0.45,,,,,,,,,,,s006,001,2024-06-21_16h59.02.901,simplestop_skeleton,2022.2.2,59.95102219630147,
$currentCorrectResponse,$currentGoStim,,,,,,,,,2,0,2,0,6,1,25,0,,,,,,,,,965.1979312188923,go,circleblack.png,left,0.45,,,,,,,,,,,,,,,,0.0018725767731666565,0.48977459967136383,,967.7003530077636,test,3,,,,,,,,,965.2169337272644,965.7305372692645,965.7138240374625,965.7138240374625,966.1640775427222,966.6648211702704,966.7146734185517,967.719314225018,left,1,0.7513650208711624,0.45,,,,,,,,,,,s006,001,2024-06-21_16h59.02.901,simplestop_skeleton,2022.2.2,59.95102219630147,
None,None,,,,,,,,,2,0,2,0,6,2,26,1,,,,,,,,,967.7007898911834,go,circleblack.png,left,0.45,,,,,,,,,,,,,,,,0.0012472383677959442,0.48982805386185646,,970.2029420696199,test,3,,,,,,,,,967.719314225018,968.2329767681658,968.2162776663899,968.2162776663899,968.666755978018,969.1674539037049,969.2176767364144,970.2216514311731,left,1,0.8732735253870487,0.45,,,,,,,,,,,s006,001,2024-06-21_16h59.02.901,simplestop_skeleton,2022.2.2,59.95102219630147,
None,None,,,,,,,,,2,0,2,0,6,3,27,2,,,,,,,,,970.2033800333738,go,circleblack.png,left,0.45,,,,,,,,,,,,,,,,0.00125885009765625,0.4897907041013241,,972.7058693692088,test,3,,,,,,,,,970.2216514311731,970.7357701025903,970.7190021537244,970.7190021537244,971.1697059199214,971.6688505634665,971.7194282226264,972.7249638214707,left,1,0.6179786920547485,0.45,,,,,,,,,,,s006,001,2024-06-21_16h59.02.901,simplestop_skeleton,2022.2.2,59.95102219630147,
$currentCorrectResponse,$currentGoStim,,,,,,,,,2,0,2,0,7,0,28,0,,,,,,,,,972.7063024416566,go,squareblack.png,right,0.45,,,,,,,,,,,,,,,,0.001709137111902237,0.4897226244211197,,975.2085675895214,test,3,,,,,,,,,972.7249638214707,973.2385184429586,973.2219690345228,973.2219690345228,973.6724890209734,974.1725309640169,974.2224987372756,975.2280219644308,right,1,0.56457444652915,0.45,,,,,,,,,,,s006,001,2024-06-21_16h59.02.901,simplestop_skeleton,2022.2.2,59.95102219630147,
$currentCorrectResponse,$currentGoStim,,,,,,,,,2,0,2,0,7,1,29,0,,,,,,,,,975.2090003564954,stop,circleblack.png,left,0.45,,,,,,,,,,,,,,,,0.0019249022006988525,0.48978372290730476,0.9402448758482933,977.7115392386913,test,3,,,,,,,,,975.2280219644308,975.7412903793156,975.7247380837798,975.7247380837798,976.1753676943481,976.6755980327725,976.7253057770431,977.7304705232382,left,1,0.48927753046154976,0.4,,,,,,,,,,,s006,001,2024-06-21_16h59.02.901,simplestop_skeleton,2022.2.2,59.95102219630147,
None,None,,,,,,,,,2,0,2,0,7,2,30,2,,,,,,,,,977.7119825035334,go,circleblack.png,left,0.4,,,,,,,,,,,,,,,,0.001526813954114914,0.4900991842150688,,980.2143656760454,test,3,,,,,,,,,977.7304705232382,978.2441847585142,978.2276230193675,978.2276230193675,978.6281825639307,979.1286548934877,979.2294331043959,980.2333194576204,left,1,0.6864157505333424,0.4,,,,,,,,,,,s006,001,2024-06-21_16h59.02.901,simplestop_skeleton,2022.2.2,59.95102219630147,
None,None,,,,,,,,,2,0,2,0,7,3,31,3,,,,,,,,,980.2148141153157,go,squareblack.png,right,0.4,,,,,,,,,,,,,,,,0.0016875751316547394,0.4897632673382759,,982.7168853133917,test,3,,,,,,,,,980.2333194576204,980.7469919323921,980.7306004241109,980.7306004241109,981.1309479773045,981.6300881803036,981.7301880642772,982.7355366013944,right,1,0.5446954630315304,0.4,,,,,,,,,,,s006,001,2024-06-21_16h59.02.901,simplestop_skeleton,2022.2.2,59.95102219630147,
$currentCorrectResponse,$currentGoStim,,,,,,,,,2,0,2,0,8,0,32,0,,,,,,,,,982.7173302024603,stop,squareblack.png,right,0.4,,,,,,,,,,,,,,,,0.0011891275644302368,0.4895688071846962,0.8900795876979828,985.2195531725883,test,3,,,,,,,,,982.7355366013944,983.2495854012668,983.232878845185,983.232878845185,983.6336830295622,984.1342427246273,984.2340103276074,985.2387830652297,None,0,,0.45,,,,,,,,,,,s006,001,2024-06-21_16h59.02.901,simplestop_skeleton,2022.2.2,59.95102219630147,
None,None,,,,,,,,,2,0,2,0,8,1,33,3,,,,,,,,,985.2199927419424,go,squareblack.png,right,0.45,,,,,,,,,,,,,,,,0.0012424848973751068,0.4896302707493305,,987.7223815284669,test,3,,,,,,,,,985.2387830652297,985.75246893242,985.7357414402068,985.7357414402068,986.1861917302012,986.6866380907595,986.7371670156717,987.7417376711965,right,1,0.8404532931745052,0.45,,,,,,,,,,,s006,001,2024-06-21_16h59.02.901,simplestop_skeleton,2022.2.2,59.95102219630147,
None,None,,,,,,,,,2,0,2,0,8,2,34,3,,,,,,,,,987.7228162772954,stop,circleblack.png,left,0.45,,,,,,,,,,,,,,,,0.0018614418804645538,0.4896748475730419,0.9402620755136013,990.2252607680857,test,3,,,,,,,,,987.7417376711965,988.255092330277,988.238392367959,988.238392367959,988.6889990344644,989.1894631013274,989.2396099604666,990.2446764297783,None,0,,0.5,,,,,,,,,,,s006,001,2024-06-21_16h59.02.901,simplestop_skeleton,2022.2.2,59.95102219630147,
$currentCorrectResponse,$currentGoStim,,,,,,,,,2,0,2,0,8,3,35,0,,,,,,,,,990.2256988026202,stop,squareblack.png,right,0.5,,,,,,,,,,,,,,,,0.001721307635307312,0.48975322023034096,0.9901555180549622,992.7285785526037,test,3,,,,,,,,,990.2446764297783,990.7578096501529,990.7414114810526,990.7414114810526,991.2417210154235,991.7420118711889,991.7420118711889,992.7475765682757,right,1,0.5177818611264229,0.45,,,,,,,,,,,s006,001,2024-06-21_16h59.02.901,simplestop_skeleton,2022.2.2,59.95102219630147,
None,None,,,,,,,,,2,0,2,0,9,0,36,1,,,,,,,,,992.7290205210447,go,squareblack.png,right,0.45,,,,,,,,,,,,,,,,0.0013570450246334076,0.489523496478796,,995.231541890651,test,3,,,,,,,,,992.7475765682757,993.2606961242855,993.244147233665,993.244147233665,993.6948029585183,994.1948822066188,994.2445701770484,995.2509775869548,right,1,0.48956551402807236,0.45,,,,,,,,,,,s006,001,2024-06-21_16h59.02.901,simplestop_skeleton,2022.2.2,59.95102219630147,
None,None,,,,,,,,,2,0,2,0,9,1,37,1,,,,,,,,,995.2320707067847,stop,circleblack.png,left,0.45,,,,,,,,,,,,,,,,0.0024773404002189636,0.4891671761870384,0.9394488446414471,997.7335195690393,test,3,,,,,,,,,995.2509775869548,995.7638191208243,995.74682931602,995.74682931602,996.1973304077983,996.6978280320764,996.7479203790426,997.7524453513324,None,0,,0.5,,,,,,,,,,,s006,001,2024-06-21_16h59.02.901,simplestop_skeleton,2022.2.2,59.95102219630147,
None,None,,,,,,,,,2,0,2,0,9,2,38,2,,,,,,,,,997.7339578308165,stop,squareblack.png,right,0.5,,,,,,,,,,,,,,,,0.0016247406601905823,0.489673413336277,0.9905024729669094,1000.2365647144616,test,3,,,,,,,,,997.7524453513324,998.2663877718151,998.2496359869838,998.2496359869838,998.7500747740269,999.249397225678,999.249397225678,1000.2557946704328,right,1,0.672125518321991,0.45,,,,,,,,,,,s006,001,2024-06-21_16h59.02.901,simplestop_skeleton,2022.2.2,59.95102219630147,
None,None,,,,,,,,,2,0,2,0,9,3,39,1,,,,,,,,,1000.237008843571,go,circleblack.png,left,0.45,,,,,,,,,,,,,,,,0.0019183121621608734,0.48970985040068626,,1002.7389150485396,test,3,,,,,,,,,1000.2557946704328,1000.768858153373,1000.7525341957808,1000.7525341957808,1001.2027502097189,1001.7034760303795,1001.7553996741772,1002.7584777697921,left,1,0.8163587152957916,0.45,,,,,,,,,,,s006,001,2024-06-21_16h59.02.901,simplestop_skeleton,2022.2.2,59.95102219630147,
None,None,,,,,,,,,2,0,2,0,10,0,40,1,,,,,,,,,1002.7393495664,go,squareblack.png,right,0.45,,,,,,,,,,,,,,,,0.0016007982194423676,0.48957136273384094,,1005.2418253719807,test,3,,,,,,,,,1002.7584777697921,1003.2717668749392,1003.2552076615393,1003.2552076615393,1003.7055591158569,1004.2061102427542,1004.2563122101128,1005.2611514516175,right,1,0.7186480797827244,0.45,,,,,,,,,,,s006,001,2024-06-21_16h59.02.901,simplestop_skeleton,2022.2.2,59.95102219630147,
None,None,,,,,,,,,2,0,2,0,10,1,41,2,,,,,,,,,1005.2422604188323,stop,circleblack.png,left,0.45,,,,,,,,,,,,,,,,0.0018207207322120667,0.489618755877018,0.9402319937944412,1007.7445987276733,test,3,,,,,,,,,1005.2611514516175,1005.7745530828834,1005.7575914785266,1005.7575914785266,1006.2082517929375,1006.7092164121568,1006.758940950036,1007.7633942179382,None,0,,0.5,,,,,,,,,,,s006,001,2024-06-21_16h59.02.901,simplestop_skeleton,2022.2.2,59.95102219630147,
None,None,,,,,,,,,2,0,2,0,10,2,42,3,,,,,,,,,1007.7450443506241,go,circleblack.png,left,0.5,,,,,,,,,,,,,,,,0.001440383493900299,0.48957154899835587,,1010.2474574819207,test,3,,,,,,,,,1007.7633942179382,1008.2776805609465,1008.261044498533,1008.261044498533,1008.7616022005677,1009.26140832901,1009.26140832901,1010.2662404291332,left,1,0.47867192700505257,0.5,,,,,,,,,,,s006,001,2024-06-21_16h59.02.901,simplestop_skeleton,2022.2.2,59.95102219630147,
None,None,,,,,,,,,2,0,2,0,10,3,43,1,,,,,,,,,1010.2478965036571,go,circleblack.png,left,0.5,,,,,,,,,,,,,,,,0.0013929791748523712,0.48983631655573845,,1012.7502520270646,test,3,,,,,,,,,1010.2662404291332,1010.7801045328379,1010.7634996138513,1010.7634996138513,1011.2639952711761,1011.763895444572,1011.763895444572,1012.7690070569515,left,1,0.40531299263238907,0.5,,,,,,,,,,,s006,001,2024-06-21_16h59.02.901,simplestop_skeleton,2022.2.2,59.95102219630147,
None,None,,,,,,,,,2,0,2,0,11,0,44,1,,,,,,,,,1012.7506879493594,go,circleblack.png,left,0.5,,,,,,,,,,,,,,,,0.0014616400003433228,0.48965487629175186,,1015.2527443952858,test,3,,,,,,,,,1012.7690070569515,1013.282973587513,1013.2661879658699,1013.2661879658699,1013.7671496905386,1014.2668615952134,1014.2668615952134,1015.2720609903336,left,1,0.3902326822280884,0.5,,,,,,,,,,,s006,001,2024-06-21_16h59.02.901,simplestop_skeleton,2022.2.2,59.95102219630147,
None,None,,,,,,,,,2,0,2,0,11,1,45,1,,,,,,,,,1015.253177985549,go,squareblack.png,right,0.5,,,,,,,,,,,,,,,,0.001770664006471634,0.49039217829704285,,1017.755827113986,test,3,,,,,,,,,1015.2720609903336,1015.7879114858806,1015.7692768760026,1015.7692768760026,1016.2697208896279,1016.7699743211269,1016.7699743211269,1017.7748010531068,right,1,0.3909204490482807,0.5,,,,,,,,,,,s006,001,2024-06-21_16h59.02.901,simplestop_skeleton,2022.2.2,59.95102219630147,
None,None,,,,,,,,,2,0,2,0,11,2,46,3,,,,,,,,,1017.7562725916505,stop,squareblack.png,right,0.5,,,,,,,,,,,,,,,,0.001344587653875351,0.48944367840886116,0.9900456555187702,1020.258430108428,test,3,,,,,,,,,1017.7748010531068,1018.2887620478868,1018.2720156610012,1018.2720156610012,1018.7726467736065,1019.2726523242891,1019.2726523242891,1020.2774104140699,right,1,0.34583716839551926,0.45,,,,,,,,,,,s006,001,2024-06-21_16h59.02.901,simplestop_skeleton,2022.2.2,59.95102219630147,
$currentCorrectResponse,$currentGoStim,,,,,,,,,2,0,2,0,11,3,47,0,,,,,,,,,1020.2588769830763,go,squareblack.png,right,0.45,,,,,,,,,,,,,,,,0.0012952759861946106,0.48977141454815865,,1022.7605269551277,test,3,,,,,,,,,1020.2774104140699,1020.7911332584918,1020.7746145166457,1020.7746145166457,1021.2249936535954,1021.7257921472192,1021.7758431024849,1022.7765177078545,right,1,0.37770842015743256,0.45,,,,,,,,,,,s006,001,2024-06-21_16h59.02.901,simplestop_skeleton,2022.2.2,59.95102219630147,
