corrGoResp,shape,practiceBlocks.thisRepN,practiceBlocks.thisTrialN,practiceBlocks.thisN,practiceBlocks.thisIndex,practiceTrials.thisRepN,practiceTrials.thisTrialN,practiceTrials.thisN,practiceTrials.thisIndex,stopBlocks.thisRepN,stopBlocks.thisTrialN,stopBlocks.thisN,stopBlocks.thisIndex,testTrials.thisRepN,testTrials.thisTrialN,testTrials.thisN,testTrials.thisIndex,stopPracTrialList,Test Block: 1,welcome.started,start_exp.started,start_exp.keys,start_exp.rt,instrStopText.started,start_prac.started,StartTrialTimeStamp,trialType,goStim,correctResponse,ssd,fixation.started,rules.started,goStim.started,goResp.started,fixation.stopped,stopSignal.started,stopSignal.stopped,goStim.stopped,goResp.stopped,rules.stopped,goResp.keys,goResp.corr,goResp.rt,text.started,rules_2.started,text.stopped,rules_2.stopped,fixationOnset,goStimOnset,stopSignalOnset,EndTrialTimeStamp,Phase,Block,text_5.started,key_resp_3.started,key_resp_3.keys,key_resp_3.rt,key_resp.started,testText.started,test_fixation.started,test_fixation.stopped,goStim_test.started,goResp_test.started,stopSignal_test.started,stopSignal_test.stopped,goStim_test.stopped,goResp_test.stopped,goResp_test.keys,goResp_test.corr,goResp_test.rt,EndingSSD,text_6.started,key_resp_4.started,key_resp_4.keys,key_resp_4.rt,Test Block: 2,Test Block: 3,ending_text.started,end_resp.started,end_resp.keys,end_resp.rt,participant,session,date,expName,psychopyVersion,frameRate,
,,,,,,,,,,,,,,,,,,"[{'fileName': 'circleblack.png', 'correct_response': 'left', 'condition': 'stop'}, {'fileName': 'squareblack.png', 'correct_response': 'right', 'condition': 'stop'}, {'fileName': 'circleblack.png', 'correct_response': 'left', 'condition': 'go'}, {'fileName': 'circleblack.png', 'correct_response': 'left', 'condition': 'stop'}, {'fileName': 'squareblack.png', 'correct_response': 'right', 'condition': 'go'}, {'fileName': 'circleblack.png', 'correct_response': 'left', 'condition': 'go'}, {'fileName': 'squareblack.png', 'correct_response': 'right', 'condition': 'stop'}, {'fileName': 'circleblack.png', 'correct_response': 'left', 'condition': 'go'}, {'fileName': 'circleblack.png', 'correct_response': 'left', 'condition': 'go'}, {'fileName': 'squareblack.png', 'correct_response': 'right', 'condition': 'go'}, {'fileName': 'squareblack.png', 'correct_response': 'right', 'condition': 'go'}, {'fileName': 'squareblack.png', 'correct_response': 'right', 'condition': 'go'}, {'fileName': 'circleblack.png', 'correct_response': 'left', 'condition': 'stop'}, {'fileName': 'circleblack.png', 'correct_response': 'left', 'condition': 'go'}, {'fileName': 'squareblack.png', 'correct_response': 'right', 'condition': 'stop'}, {'fileName': 'squareblack.png', 'correct_response': 'right', 'condition': 'go'}, {'fileName': 'squareblack.png', 'correct_response': 'right', 'condition': 'stop'}, {'fileName': 'circleblack.png', 'correct_response': 'left', 'condition': 'go'}, {'fileName': 'circleblack.png', 'correct_response': 'left', 'condition': 'go'}, {'fileName': 'squareblack.png', 'correct_response': 'right', 'condition': 'go'}, {'fileName': 'squareblack.png', 'correct_response': 'right', 'condition': 'go'}, {'fileName': 'squareblack.png', 'correct_response': 'right', 'condition': 'go'}, {'fileName': 'circleblack.png', 'correct_response': 'left', 'condition': 'stop'}, {'fileName': 'circleblack.png', 'correct_response': 'left', 'condition': 'go'}]","[{'fileName': 'squareblack.png', 'correct_response': 'right', 'condition': 'go'}, {'fileName': 'squareblack.png', 'correct_response': 'right', 'condition': 'stop'}, {'fileName': 'circleblack.png', 'correct_response': 'left', 'condition': 'stop'}, {'fileName': 'squareblack.png', 'correct_response': 'right', 'condition': 'stop'}, {'fileName': 'squareblack.png', 'correct_response': 'right', 'condition': 'go'}, {'fileName': 'circleblack.png', 'correct_response': 'left', 'condition': 'go'}, {'fileName': 'circleblack.png', 'correct_response': 'left', 'condition': 'go'}, {'fileName': 'circleblack.png', 'correct_response': 'left', 'condition': 'go'}, {'fileName': 'squareblack.png', 'correct_response': 'right', 'condition': 'go'}, {'fileName': 'circleblack.png', 'correct_response': 'left', 'condition': 'go'}, {'fileName': 'circleblack.png', 'correct_response': 'left', 'condition': 'stop'}, {'fileName': 'squareblack.png', 'correct_response': 'right', 'condition': 'go'}, {'fileName': 'squareblack.png', 'correct_response': 'right', 'condition': 'stop'}, {'fileName': 'squareblack.png', 'correct_response': 'right', 'condition': 'go'}, {'fileName': 'squareblack.png', 'correct_response': 'right', 'condition': 'go'}, {'fileName': 'circleblack.png', 'correct_response': 'left', 'condition': 'go'}, {'fileName': 'circleblack.png', 'correct_response': 'left', 'condition': 'go'}, {'fileName': 'circleblack.png', 'correct_response': 'left', 'condition': 'stop'}, {'fileName': 'circleblack.png', 'correct_response': 'left', 'condition': 'stop'}, {'fileName': 'circleblack.png', 'correct_response': 'left', 'condition': 'go'}, {'fileName': 'circleblack.png', 'correct_response': 'left', 'condition': 'go'}, {'fileName': 'squareblack.png', 'correct_response': 'right', 'condition': 'go'}, {'fileName': 'squareblack.png', 'correct_response': 'right', 'condition': 'go'}, {'fileName': 'squareblack.png', 'correct_response': 'right', 'condition': 'stop'}, {'fileName': 'squareblack.png', 'correct_response': 'right', 'condition': 'go'}, {'fileName': 'circleblack.png', 'correct_response': 'left', 'condition': 'stop'}, {'fileName': 'squareblack.png', 'correct_response': 'right', 'condition': 'go'}, {'fileName': 'circleblack.png', 'correct_response': 'left', 'condition': 'go'}, {'fileName': 'circleblack.png', 'correct_response': 'left', 'condition': 'go'}, {'fileName': 'squareblack.png', 'correct_response': 'right', 'condition': 'stop'}, {'fileName': 'circleblack.png', 'correct_response': 'left', 'condition': 'stop'}, {'fileName': 'circleblack.png', 'correct_response': 'left', 'condition': 'go'}, {'fileName': 'squareblack.png', 'correct_response': 'right', 'condition': 'go'}, {'fileName': 'squareblack.png', 'correct_response': 'right', 'condition': 'stop'}, {'fileName': 'squareblack.png', 'correct_response': 'right', 'condition': 'go'}, {'fileName': 'circleblack.png', 'correct_response': 'left', 'condition': 'go'}, {'fileName': 'squareblack.png', 'correct_response': 'right', 'condition': 'go'}, {'fileName': 'squareblack.png', 'correct_response': 'right', 'condition': 'stop'}, {'fileName': 'circleblack.png', 'correct_response': 'left', 'condition': 'go'}, {'fileName': 'circleblack.png', 'correct_response': 'left', 'condition': 'go'}, {'fileName': 'circleblack.png', 'correct_response': 'left', 'condition': 'go'}, {'fileName': 'squareblack.png', 'correct_response': 'right', 'condition': 'go'}, {'fileName': 'squareblack.png', 'correct_response': 'right', 'condition': 'go'}, {'fileName': 'circleblack.png', 'correct_response': 'left', 'condition': 'go'}, {'fileName': 'circleblack.png', 'correct_response': 'left', 'condition': 'stop'}, {'fileName': 'squareblack.png', 'correct_response': 'right', 'condition': 'stop'}, {'fileName': 'squareblack.png', 'correct_response': 'right', 'condition': 'go'}, {'fileName': 'circleblack.png', 'correct_response': 'left', 'condition': 'stop'}]",966.7062585614622,966.7062585614622,return,2.684544675052166,,,,,,,,,,,,,,,,,,,,,,,,,,,,,,,,,,,,,,,,,,,,,,,,,,,,,,,,,,,s12,001,2024-07-18_17h26.15.698,simplestop_skeleton,2022.2.2,59.998545830923405,
None,None,0,0,0,0,0,0,0,2,,,,,,,,,,,,,,,969.4371180608869,969.4371180608869,1022.1633801758289,stop,circleblack.png,left,0.35,1022.1845235414803,1022.1845235414803,1022.6827430017292,1022.6827430017292,1022.6991480253637,1023.0329161919653,1023.5336239412427,1023.6839258037508,1024.6858369521797,1024.6858369521797,left,1,1.1121246851980686,1024.6858369521797,1024.6858369521797,1025.1944977268577,1025.1944977268577,0.003212757408618927,0.4928395077586174,0.8433367982506752,1025.1696845330298,practice,1,,,,,,,,,,,,,,,,,,,,,,,,,,,,,s12,001,2024-07-18_17h26.15.698,simplestop_skeleton,2022.2.2,59.998545830923405,
None,None,0,0,0,0,0,1,1,1,,,,,,,,,,,,,,,,,1025.1702463515103,stop,squareblack.png,right,0.3,1025.1944977268577,1025.1944977268577,1025.6855534613132,1025.6855534613132,1025.7018059380352,1025.98616752401,1026.4866485632956,1026.6868889778852,1027.688030153513,1027.7047293819487,right,1,0.42491457611322403,1027.7047293819487,1027.7047293819487,1028.2098333202302,1028.2098333202302,0.007387638092041016,0.4911054037511349,0.7898796834051609,1028.1893955096602,practice,1,,,,,,,,,,,,,,,,,,,,,,,,,,,,,s12,001,2024-07-18_17h26.15.698,simplestop_skeleton,2022.2.2,59.998545830923405,
None,None,0,0,0,0,0,2,2,1,,,,,,,,,,,,,,,,,1028.1898415721953,go,circleblack.png,left,0.25,1028.2098333202302,1028.2098333202302,1028.7057327367365,1028.7057327367365,1028.7226695604622,1028.956131298095,1029.45656356588,1029.705520208925,1030.707878869027,1030.7249740026891,left,1,0.6483650915324688,1030.7249740026891,1030.7249740026891,,,0.0017647892236709595,0.489767923951149,0.7402264848351479,1031.2093679904938,practice,1,,,,,,,,,,,,,,,,,,,,,,,,,,,,,s12,001,2024-07-18_17h26.15.698,simplestop_skeleton,2022.2.2,59.998545830923405,
None,None,0,0,0,0,0,3,3,2,,,,,,,,,,,,,,,,,1031.2098565511405,stop,circleblack.png,left,0.25,1031.2289335094392,1031.2289335094392,1031.7259359322488,1031.7259359322488,1031.7424864433706,1031.9760385975242,1032.476628858596,1032.7269522845745,1033.7281951121986,1033.7281951121986,None,0,,1033.7281951121986,1033.7281951121986,,,0.001310046762228012,0.49045272916555405,0.7407456524670124,1034.2126448228955,practice,1,,,,,,,,,,,,,,,,,,,,,,,,,,,,,s12,001,2024-07-18_17h26.15.698,simplestop_skeleton,2022.2.2,59.998545830923405,
None,None,0,0,0,0,1,0,4,3,,,,,,,,,,,,,,,,,1034.2130736969411,go,squareblack.png,right,0.3,1034.232363846153,1034.232363846153,1034.7292857766151,1034.7292857766151,1034.7457274757326,1035.029613263905,1035.5300131477416,1035.7302615903318,1036.731233868748,1036.731233868748,right,1,0.8525998257100582,1036.731233868748,1036.731233868748,1037.236166689545,1037.236166689545,0.0016526617109775543,0.49050239101052284,0.7908485531806946,1037.2163880988955,practice,1,,,,,,,,,,,,,,,,,,,,,,,,,,,,,s12,001,2024-07-18_17h26.15.698,simplestop_skeleton,2022.2.2,59.998545830923405,
$currentCorrectResponse,$currentGoStim,0,0,0,0,1,1,5,0,,,,,,,,,,,,,,,,,1037.2168073356152,go,circleblack.png,left,0.3,1037.236166689545,1037.236166689545,1037.7324206642807,1037.7324206642807,1037.7494206354022,1038.0328031033278,1038.5333003625274,1038.7324559502304,1039.7349550500512,1039.7513591088355,left,1,0.6790773719549179,1039.7513591088355,1039.7513591088355,1040.2559591270983,1040.2559591270983,0.0017088614404201508,0.49009285122156143,0.7901330664753914,1040.2360872775316,practice,1,,,,,,,,,,,,,,,,,,,,,,,,,,,,,s12,001,2024-07-18_17h26.15.698,simplestop_skeleton,2022.2.2,59.998545830923405,
None,None,0,0,0,0,1,2,6,2,,,,,,,,,,,,,,,,,1040.2365094982088,stop,squareblack.png,right,0.3,1040.2559591270983,1040.2559591270983,1040.7523893862963,1040.7523893862963,1040.7691016606987,1041.0528687015176,1041.5520719215274,1041.7529666684568,1042.7546957433224,1042.7546957433224,right,1,0.38246266916394234,1042.7546957433224,1042.7546957433224,1043.2597978375852,1043.2597978375852,0.0017528347671031952,0.4900667183101177,0.7905077487230301,1043.2396519184113,practice,1,,,,,,,,,,,,,,,,,,,,,,,,,,,,,s12,001,2024-07-18_17h26.15.698,simplestop_skeleton,2022.2.2,59.998545830923405,
None,None,0,0,0,0,1,3,7,1,,,,,,,,,,,,,,,,,1043.2400908507407,go,circleblack.png,left,0.25,1043.2597978375852,1043.2597978375852,1043.755923923105,1043.755923923105,1043.772471100092,1044.0062787123024,1044.5065751448274,1044.7571054659784,1045.7582301869988,1045.7745289728045,left,1,0.9786591939628124,1045.7745289728045,1045.7745289728045,,,0.0017805621027946472,0.4897998385131359,0.7401504628360271,1046.2596063688397,practice,1,,,,,,,,,,,,,,,,,,,,,,,,,,,,,s12,001,2024-07-18_17h26.15.698,simplestop_skeleton,2022.2.2,59.998545830923405,
None,None,0,0,0,0,2,0,8,3,,,,,,,,,,,,,,,,,1046.2601381987333,go,circleblack.png,left,0.25,1046.2794692255557,1046.2794692255557,1046.7758372463286,1046.7758372463286,1046.7926267646253,1047.026159543544,1047.5265205390751,1047.776868417859,1048.778204727918,1048.7945664077997,left,1,1.0475584603846073,1048.7945664077997,1048.7945664077997,1049.2994633167982,1049.2994633167982,0.0014267712831497192,0.48993081972002983,0.7398366965353489,1049.2794866003096,practice,1,,,,,,,,,,,,,,,,,,,,,,,,,,,,,s12,001,2024-07-18_17h26.15.698,simplestop_skeleton,2022.2.2,59.998545830923405,
$currentCorrectResponse,$currentGoStim,0,0,0,0,2,1,9,0,,,,,,,,,,,,,,,,,1049.2798989340663,go,squareblack.png,right,0.25,1049.2994633167982,1049.2994633167982,1049.7958852164447,1049.7958852164447,1049.812626875937,1050.0461654253304,1050.5465541183949,1050.7968986406922,1051.7979974746704,1051.8148863129318,right,1,0.856843326240778,1051.8148863129318,1051.8148863129318,1052.3192603066564,1052.3192603066564,0.0016849003732204437,0.49013911187648773,0.7402445115149021,1052.2994465380907,practice,1,,,,,,,,,,,,,,,,,,,,,,,,,,,,,s12,001,2024-07-18_17h26.15.698,simplestop_skeleton,2022.2.2,59.998545830923405,
None,None,0,0,0,0,2,2,10,2,,,,,,,,,,,,,,,,,1052.2998625002801,go,squareblack.png,right,0.25,1052.3192603066564,1052.3192603066564,1052.8156419433653,1052.8156419433653,1052.832826450467,1053.0662904791534,1053.5666462555528,1053.8172082826495,1054.817908450961,1054.8347282484174,right,1,0.8784359358251095,1054.8347282484174,1054.8347282484174,1055.338794477284,1055.338794477284,0.0012214742600917816,0.4903189279139042,0.7404994480311871,1055.319496218115,practice,1,,,,,,,,,,,,,,,,,,,,,,,,,,,,,s12,001,2024-07-18_17h26.15.698,simplestop_skeleton,2022.2.2,59.998545830923405,
None,None,0,0,0,0,2,3,11,3,,,,,,,,,,,,,,,,,1055.3199841454625,go,squareblack.png,right,0.25,1055.338794477284,1055.338794477284,1055.8358000330627,1055.8358000330627,1055.8523404747248,1056.0860827490687,1056.5865875817835,1056.8363020643592,1057.837845865637,1057.837845865637,right,1,0.5759426802396774,1057.837845865637,1057.837845865637,1058.343133635819,1058.343133635819,0.0011857524514198303,0.4901842102408409,0.7404490783810616,1058.3226411119103,practice,1,,,,,,,,,,,,,,,,,,,,,,,,,,,,,s12,001,2024-07-18_17h26.15.698,simplestop_skeleton,2022.2.2,59.998545830923405,
None,None,0,0,0,0,3,0,12,1,,,,,,,,,,,,,,,,,1058.3230644464493,stop,circleblack.png,left,0.25,1058.343133635819,1058.343133635819,1058.8390574418008,1058.8390574418008,1058.855619251728,1059.089119464159,1059.5899312533438,1059.83996546641,1060.8412215672433,1060.8578520268202,None,0,,1060.8578520268202,1060.8578520268202,,,0.001968245953321457,0.4899226985871792,0.740453340113163,1061.3428399525583,practice,1,,,,,,,,,,,,,,,,,,,,,,,,,,,,,s12,001,2024-07-18_17h26.15.698,simplestop_skeleton,2022.2.2,59.998545830923405,
None,None,0,0,0,0,3,1,13,2,,,,,,,,,,,,,,,,,1061.3432787582278,go,circleblack.png,left,0.3,1061.3624605312943,1061.3624605312943,1061.8595383167267,1061.8595383167267,1061.8758244998753,1062.159448131919,1062.6599066667259,1062.8590691238642,1063.8612399324775,1063.8612399324775,left,1,0.7108133807778358,1063.8612399324775,1063.8612399324775,1064.36616339162,1064.36616339162,0.0012524574995040894,0.4901876300573349,0.790648814290762,1064.3463068678975,practice,1,,,,,,,,,,,,,,,,,,,,,,,,,,,,,s12,001,2024-07-18_17h26.15.698,simplestop_skeleton,2022.2.2,59.998545830923405,
None,None,0,0,0,0,3,2,14,3,,,,,,,,,,,,,,,,,1064.3467290140688,stop,squareblack.png,right,0.3,1064.36616339162,1064.36616339162,1064.8627744279802,1064.8627744279802,1064.8793345987797,1065.1627690903842,1065.6633341275156,1065.8636812195182,1066.8645782507956,1066.8812532275915,None,0,,1066.8812532275915,1066.8812532275915,,,0.0016883648931980133,0.48959724232554436,0.7900572456419468,1067.366090822965,practice,1,,,,,,,,,,,,,,,,,,,,,,,,,,,,,s12,001,2024-07-18_17h26.15.698,simplestop_skeleton,2022.2.2,59.998545830923405,
$currentCorrectResponse,$currentGoStim,0,0,0,0,3,3,15,0,,,,,,,,,,,,,,,,,1067.3665385656059,go,squareblack.png,right,0.35,1067.385293457657,1067.385293457657,1067.882657110691,1067.882657110691,1067.899046368897,1068.2329072505236,1068.733259435743,1068.8821594677866,1069.8846764713526,1069.8846764713526,right,1,0.6885430179536343,1069.8846764713526,1069.8846764713526,1070.3889991156757,1070.3889991156757,0.0011773891746997833,0.49021200835704803,0.8403789810836315,1070.3696193993092,practice,1,,,,,,,,,,,,,,,,,,,,,,,,,,,,,s12,001,2024-07-18_17h26.15.698,simplestop_skeleton,2022.2.2,59.998545830923405,
None,None,0,0,0,0,4,0,16,1,,,,,,,,,,,,,,,,,1070.3700330071151,stop,squareblack.png,right,0.35,1070.3889991156757,1070.3889991156757,1070.8855724036694,1070.8855724036694,1070.9026511982083,1071.2360085435212,1071.7365091629326,1071.8865553215146,1072.8878182433546,1072.904837489128,None,0,,1072.904837489128,1072.904837489128,,,0.0012608766555786133,0.49006839841604233,0.8403297625482082,1073.3893007785082,practice,1,,,,,,,,,,,,,,,,,,,,,,,,,,,,,s12,001,2024-07-18_17h26.15.698,simplestop_skeleton,2022.2.2,59.998545830923405,
None,None,0,0,0,0,4,1,17,2,,,,,,,,,,,,,,,,,1073.3897227086127,go,circleblack.png,left,0.4,1073.4089612439275,1073.4089612439275,1073.905625935644,1073.905625935644,1073.9222340770066,1074.3060113824904,1074.8067211434245,1074.905709989369,1075.9080344215035,1075.924705926329,left,1,0.673760611563921,1075.924705926329,1075.924705926329,1076.4291986636817,1076.4291986636817,0.0018716901540756226,0.4906388074159622,0.8906724750995636,1076.409512925893,practice,1,,,,,,,,,,,,,,,,,,,,,,,,,,,,,s12,001,2024-07-18_17h26.15.698,simplestop_skeleton,2022.2.2,59.998545830923405,
None,None,0,0,0,0,4,2,18,1,,,,,,,,,,,,,,,,,1076.4099269248545,go,circleblack.png,left,0.4,1076.4291986636817,1076.4291986636817,1076.9258494190872,1076.9258494190872,1076.942364666611,1077.3261673338711,1077.8267529420555,1077.9268531315029,1078.927954185754,1078.9448872841895,left,1,0.9137264266610146,1078.9448872841895,1078.9448872841895,1079.449539422989,1079.449539422989,0.0012510418891906738,0.489838320761919,0.8904784806072712,1079.4295485056937,practice,1,,,,,,,,,,,,,,,,,,,,,,,,,,,,,s12,001,2024-07-18_17h26.15.698,simplestop_skeleton,2022.2.2,59.998545830923405,
$currentCorrectResponse,$currentGoStim,0,0,0,0,4,3,19,0,,,,,,,,,,,,,,,,,1079.4299927689135,go,squareblack.png,right,0.4,1079.449539422989,1079.449539422989,1079.9457382373512,1079.9457382373512,1079.9626113399863,1080.3462953604758,1080.8466408364475,1080.9467973448336,1081.9481189511716,1081.96491773054,right,1,0.7533031180500984,1081.96491773054,1081.96491773054,1082.4687752053142,1082.4687752053142,0.0016389451920986176,0.48994021490216255,0.8902994282543659,1082.449526194483,practice,1,,,,,,,,,,,,,,,,,,,,,,,,,,,,,s12,001,2024-07-18_17h26.15.698,simplestop_skeleton,2022.2.2,59.998545830923405,
$currentCorrectResponse,$currentGoStim,0,0,0,0,5,0,20,0,,,,,,,,,,,,,,,,,1082.4499389752746,go,squareblack.png,right,0.4,1082.4687752053142,1082.4687752053142,1082.9656785316765,1082.9656785316765,1082.9823088645935,1083.366049386561,1083.8660023063421,1083.9663399159908,1084.9680010974407,1084.9680010974407,right,1,0.783909022808075,1084.9680010974407,1084.9680010974407,,,0.00118342787027359,0.48990391939878464,0.8904162719845772,1085.4526497088373,practice,1,,,,,,,,,,,,,,,,,,,,,,,,,,,,,s12,001,2024-07-18_17h26.15.698,simplestop_skeleton,2022.2.2,59.998545830923405,
$currentCorrectResponse,$currentGoStim,0,0,0,0,5,1,21,0,,,,,,,,,,,,,,,,,1085.4530687183142,go,squareblack.png,right,0.4,1085.4720869399607,1085.4720869399607,1085.9688826911151,1085.9688826911151,1085.9859003722668,1086.3694872744381,1086.8700516298413,1086.9699423201382,1087.9712112993002,1087.9879874773324,right,1,0.7146470546722412,1087.9879874773324,1087.9879874773324,1088.492688342929,1088.492688342929,0.0011897832155227661,0.4901525527238846,0.8906088620424271,1088.4726664423943,practice,1,,,,,,,,,,,,,,,,,,,,,,,,,,,,,s12,001,2024-07-18_17h26.15.698,simplestop_skeleton,2022.2.2,59.998545830923405,
None,None,0,0,0,0,5,2,22,3,,,,,,,,,,,,,,,,,1088.4730824567378,stop,circleblack.png,left,0.4,1088.492688342929,1088.492688342929,1088.989124454558,1088.989124454558,1089.0056882314384,1089.3896247036755,1089.8899119496346,1089.989924762398,1090.991126138717,1091.0081335529685,None,0,,1091.0081335529685,1091.0081335529685,,,0.0017537511885166168,0.489776898175478,0.8902238123118877,1091.4926936775446,practice,1,,,,,,,,,,,,,,,,,,,,,,,,,,,,,s12,001,2024-07-18_17h26.15.698,simplestop_skeleton,2022.2.2,59.998545830923405,
None,None,0,0,0,0,5,3,23,3,,,,,,,,,,,,,,,,,1091.4931151084602,go,circleblack.png,left,0.45,1091.5120597556233,1091.5120597556233,1092.0089443959296,1092.0089443959296,1092.025771200657,1092.4600031413138,1092.9778671301901,1093.0092813074589,1094.0115730203688,1094.0115730203688,left,1,0.523829635232687,1094.0115730203688,1094.0115730203688,1094.513098333031,1094.513098333031,0.0013363659381866455,0.4899074099957943,0.9406003877520561,1094.495926938951,practice,1,,,,,,,,,,,,,,,,,,,,,,,,,,,,,s12,001,2024-07-18_17h26.15.698,simplestop_skeleton,2022.2.2,59.998545830923405,
,,0,0,0,0,,,,,,,,,,,,,"[{'fileName': 'circleblack.png', 'correct_response': 'left', 'condition': 'go'}, {'fileName': 'squareblack.png', 'correct_response': 'right', 'condition': 'go'}, {'fileName': 'squareblack.png', 'correct_response': 'right', 'condition': 'go'}, {'fileName': 'squareblack.png', 'correct_response': 'right', 'condition': 'stop'}, {'fileName': 'squareblack.png', 'correct_response': 'right', 'condition': 'stop'}, {'fileName': 'circleblack.png', 'correct_response': 'left', 'condition': 'stop'}, {'fileName': 'squareblack.png', 'correct_response': 'right', 'condition': 'go'}, {'fileName': 'squareblack.png', 'correct_response': 'right', 'condition': 'go'}, {'fileName': 'circleblack.png', 'correct_response': 'left', 'condition': 'stop'}, {'fileName': 'circleblack.png', 'correct_response': 'left', 'condition': 'go'}, {'fileName': 'circleblack.png', 'correct_response': 'left', 'condition': 'go'}, {'fileName': 'circleblack.png', 'correct_response': 'left', 'condition': 'go'}, {'fileName': 'circleblack.png', 'correct_response': 'left', 'condition': 'stop'}, {'fileName': 'circleblack.png', 'correct_response': 'left', 'condition': 'go'}, {'fileName': 'circleblack.png', 'correct_response': 'left', 'condition': 'stop'}, {'fileName': 'squareblack.png', 'correct_response': 'right', 'condition': 'go'}, {'fileName': 'squareblack.png', 'correct_response': 'right', 'condition': 'go'}, {'fileName': 'circleblack.png', 'correct_response': 'left', 'condition': 'go'}, {'fileName': 'squareblack.png', 'correct_response': 'right', 'condition': 'go'}, {'fileName': 'squareblack.png', 'correct_response': 'right', 'condition': 'stop'}, {'fileName': 'squareblack.png', 'correct_response': 'right', 'condition': 'stop'}, {'fileName': 'circleblack.png', 'correct_response': 'left', 'condition': 'go'}, {'fileName': 'squareblack.png', 'correct_response': 'right', 'condition': 'go'}, {'fileName': 'circleblack.png', 'correct_response': 'left', 'condition': 'go'}]",,,,,,,,,,,,,,,,,,,,,,,,,,,,,,,,,,,,1094.513098333031,1094.513098333031,return,8.422837268561125,,,,,,,,,,,,,,,,,,,,,,,,,s12,001,2024-07-18_17h26.15.698,simplestop_skeleton,2022.2.2,59.998545830923405,
$currentCorrectResponse,$currentGoStim,,,,,,,,,0,0,0,0,0,0,0,0,,,,,,,,,1120.565423388034,go,squareblack.png,right,0.45,,,,,,,,,,,,,,,,,,0.0019400343298912048,0.49862711876630783,,1123.0784320756793,test,1,,,,,1102.954664222896,1102.954664222896,1120.5841558240354,1121.0908483825624,1121.0908483825624,1121.0908483825624,1121.5252107530832,1122.0256943814456,1122.0922462008893,1123.0973065458238,right,1,0.6625864133238792,0.45,,,,,,,,,,,s12,001,2024-07-18_17h26.15.698,simplestop_skeleton,2022.2.2,59.998545830923405,
$currentCorrectResponse,$currentGoStim,,,,,,,,,0,0,0,0,0,1,1,0,,,,,,,,,1123.0789676606655,stop,squareblack.png,right,0.45,,,,,,,,,,,,,,,,,,0.001354854553937912,0.48910874873399734,0.9395964033901691,1125.5807235017419,test,1,,,,,,,1123.0973065458238,1123.610596973449,1123.5936409309506,1123.5936409309506,1124.0444529131055,1124.5441977456212,1124.594543170184,1125.6002058126032,right,1,0.39011508598923683,0.4,,,,,,,,,,,s12,001,2024-07-18_17h26.15.698,simplestop_skeleton,2022.2.2,59.998545830923405,
None,None,,,,,,,,,0,0,0,0,0,2,2,1,,,,,,,,,1125.5811688490212,stop,circleblack.png,left,0.4,,,,,,,,,,,,,,,,,,0.0019205696880817413,0.48981767147779465,0.8898794576525688,1128.0834661833942,test,1,,,,,,,1125.6002058126032,1126.11350049451,1126.096510965377,1126.096510965377,1126.497012939304,1126.9974618330598,1127.097445514053,1128.1027130745351,left,1,0.43917688354849815,0.35,,,,,,,,,,,s12,001,2024-07-18_17h26.15.698,simplestop_skeleton,2022.2.2,59.998545830923405,
None,None,,,,,,,,,0,0,0,0,0,3,3,1,,,,,,,,,1128.0839113257825,stop,squareblack.png,right,0.35,,,,,,,,,,,,,,,,,,0.001759212464094162,0.48935188353061676,0.8397656157612801,1130.5860053151846,test,1,,,,,,,1128.1027130745351,1128.6162749417126,1128.59935926646,1128.59935926646,1128.9499075897038,1129.4502842277288,1129.600705768913,1130.6048143841326,None,0,,0.4,,,,,,,,,,,s12,001,2024-07-18_17h26.15.698,simplestop_skeleton,2022.2.2,59.998545830923405,
None,None,,,,,,,,,0,0,0,0,1,0,4,2,,,,,,,,,1130.5864361934364,go,squareblack.png,right,0.4,,,,,,,,,,,,,,,,,,0.0012847520411014557,0.4899761229753494,,1133.088671091944,test,1,,,,,,,1130.6048143841326,1131.1189963407815,1131.102188900113,1131.102188900113,1131.5026361383498,1132.0016871765256,1132.1042202673852,1133.1079531908035,right,1,0.5781793743371964,0.4,,,,,,,,,,,s12,001,2024-07-18_17h26.15.698,simplestop_skeleton,2022.2.2,59.998545830923405,
None,None,,,,,,,,,0,0,0,0,1,1,5,2,,,,,,,,,1133.0891031585634,go,circleblack.png,left,0.4,,,,,,,,,,,,,,,,,,0.0017750263214111328,0.48977888002991676,,1135.5916142947972,test,1,,,,,,,1133.1079531908035,1133.6215081475675,1133.6048768386245,1133.6048768386245,1134.0056066177785,1134.50574696064,1134.604987218976,1135.6102932356298,left,1,0.640595231205225,0.4,,,,,,,,,,,s12,001,2024-07-18_17h26.15.698,simplestop_skeleton,2022.2.2,59.998545830923405,
None,None,,,,,,,,,0,0,0,0,1,2,6,3,,,,,,,,,1135.5920606963336,go,circleblack.png,left,0.4,,,,,,,,,,,,,,,,,,0.0013819225132465363,0.49007997661828995,,1138.0940684899688,test,1,,,,,,,1135.6102932356298,1136.1241903714836,1136.1077090799809,1136.1077090799809,1136.5080356113613,1137.0073577091098,1137.108097270131,1138.1118131168187,left,1,0.557981763035059,0.4,,,,,,,,,,,s12,001,2024-07-18_17h26.15.698,simplestop_skeleton,2022.2.2,59.998545830923405,
None,None,,,,,,,,,0,0,0,0,1,3,7,2,,,,,,,,,1138.0944968014956,go,circleblack.png,left,0.4,,,,,,,,,,,,,,,,,,0.0012598931789398193,0.4897889569401741,,1140.5971013605595,test,1,,,,,,,1138.1118131168187,1138.6269537359476,1138.6103542521596,1138.6103542521596,1139.0107650533319,1139.5114418379962,1139.6100879274309,1140.61651628837,left,1,0.6060809269547462,0.4,,,,,,,,,,,s12,001,2024-07-18_17h26.15.698,simplestop_skeleton,2022.2.2,59.998545830923405,
None,None,,,,,,,,,0,0,0,0,2,0,8,3,,,,,,,,,1140.59754890576,go,squareblack.png,right,0.4,,,,,,,,,,,,,,,,,,0.0017620399594306946,0.4895142652094364,,1143.0999190174043,test,1,,,,,,,1140.61651628837,1141.1297073736787,1141.1130026616156,1141.1130026616156,1141.5136989317834,1142.0144868828356,1142.1132784187794,1143.1191285029054,right,1,0.6382237002253532,0.4,,,,,,,,,,,s12,001,2024-07-18_17h26.15.698,simplestop_skeleton,2022.2.2,59.998545830923405,
None,None,,,,,,,,,0,0,0,0,2,1,9,2,,,,,,,,,1143.1003626808524,go,circleblack.png,left,0.4,,,,,,,,,,,,,,,,,,0.001846402883529663,0.48980196937918663,,1145.6030517369509,test,1,,,,,,,1143.1191285029054,1143.6326357387006,1143.6160826683044,1143.6160826683044,1144.016593053937,1144.53234821558,1144.6166840977967,1145.6217231675982,left,1,0.5403290838003159,0.4,,,,,,,,,,,s12,001,2024-07-18_17h26.15.698,simplestop_skeleton,2022.2.2,59.998545830923405,
None,None,,,,,,,,,0,0,0,0,2,2,10,1,,,,,,,,,1145.6034902185202,stop,circleblack.png,left,0.4,,,,,,,,,,,,,,,,,,0.0015224926173686981,0.4895230792462826,0.8899033144116402,1148.105549480766,test,1,,,,,,,1145.6217231675982,1146.1354216486216,1146.1188270486891,1146.1188270486891,1146.5190180055797,1147.0181860476732,1147.1192783154547,1148.1247336119413,left,1,0.5558665357530117,0.35,,,,,,,,,,,s12,001,2024-07-18_17h26.15.698,simplestop_skeleton,2022.2.2,59.998545830923405,
$currentCorrectResponse,$currentGoStim,,,,,,,,,0,0,0,0,2,3,11,0,,,,,,,,,1148.105983003974,go,squareblack.png,right,0.35,,,,,,,,,,,,,,,,,,0.0016399435698986053,0.4895125962793827,,1150.6082766391337,test,1,,,,,,,1148.1247336119413,1148.638113565743,1148.6215892918408,1148.6215892918408,1148.971824567765,1149.4723130352795,1149.6224859952927,1150.6272024847567,right,1,0.6248121857643127,0.35,,,,,,,,,,,s12,001,2024-07-18_17h26.15.698,simplestop_skeleton,2022.2.2,59.998545830923405,
None,None,,,,,,,,,0,0,0,0,3,0,12,1,,,,,,,,,1150.608727503568,stop,squareblack.png,right,0.35,,,,,,,,,,,,,,,,,,0.001364096999168396,0.48953181877732277,0.839671291410923,1153.1107857525349,test,1,,,,,,,1150.6272024847567,1151.1409396231174,1151.1243741698563,1151.1243741698563,1151.4744652621448,1151.974915716797,1152.1250742301345,1153.1295770443976,None,0,,0.4,,,,,,,,,,,s12,001,2024-07-18_17h26.15.698,simplestop_skeleton,2022.2.2,59.998545830923405,
$currentCorrectResponse,$currentGoStim,,,,,,,,,0,0,0,0,3,1,13,0,,,,,,,,,1153.111232753843,go,squareblack.png,right,0.4,,,,,,,,,,,,,,,,,,0.0011997297406196594,0.4895871914923191,,1155.613581892103,test,1,,,,,,,1153.1295770443976,1153.6434865109622,1153.6269826628268,1153.6269826628268,1154.0272236950696,1154.5279589146376,1154.6265776008368,1155.6326693184674,right,1,0.6349416375160217,0.4,,,,,,,,,,,s12,001,2024-07-18_17h26.15.698,simplestop_skeleton,2022.2.2,59.998545830923405,
None,None,,,,,,,,,0,0,0,0,3,2,14,1,,,,,,,,,1155.6140319518745,go,squareblack.png,right,0.4,,,,,,,,,,,,,,,,,,0.0012754201889038086,0.48953817412257195,,1158.1162349507213,test,1,,,,,,,1155.6326693184674,1156.1465102434158,1156.129552487284,1156.129552487284,1156.52990334481,1157.0308012478054,1157.1308763585985,1158.1418172940612,right,1,0.7281728535890579,0.4,,,,,,,,,,,s12,001,2024-07-18_17h26.15.698,simplestop_skeleton,2022.2.2,59.998545830923405,
$currentCorrectResponse,$currentGoStim,,,,,,,,,0,0,0,0,3,3,15,0,,,,,,,,,1158.1166699528694,go,circleblack.png,left,0.4,,,,,,,,,,,,,,,,,,0.008817166090011597,0.49006763473153114,,1160.6192717179656,test,1,,,,,,,1158.1418172940612,1158.6490115858614,1158.632299426943,1158.632299426943,1159.0329432711005,1159.5332990400493,1159.6335357539356,1160.6381274685264,left,1,0.7737625911831856,0.4,,,,,,,,,,,s12,001,2024-07-18_17h26.15.698,simplestop_skeleton,2022.2.2,59.998545830923405,
None,None,,,,,,,,,0,0,0,0,4,0,16,1,,,,,,,,,1160.6197212263942,go,circleblack.png,left,0.4,,,,,,,,,,,,,,,,,,0.001397889107465744,0.48962945118546486,,1163.1217404417694,test,1,,,,,,,1160.6381274685264,1161.1518386416137,1161.135181158781,1161.135181158781,1161.5356481336057,1162.0363565795124,1162.1348052173853,1163.1408243104815,left,1,0.7012680284678936,0.4,,,,,,,,,,,s12,001,2024-07-18_17h26.15.698,simplestop_skeleton,2022.2.2,59.998545830923405,
None,None,,,,,,,,,0,0,0,0,4,1,17,2,,,,,,,,,1163.1221743300557,stop,circleblack.png,left,0.4,,,,,,,,,,,,,,,,,,0.0012516491115093231,0.48997483029961586,0.8903922885656357,1165.6245287396014,test,1,,,,,,,1163.1408243104815,1163.6547126099467,1163.6379378549755,1163.6379378549755,1164.038564555347,1164.538275629282,1164.6382621973753,1165.643379125744,left,1,0.422205064445734,0.35,,,,,,,,,,,s12,001,2024-07-18_17h26.15.698,simplestop_skeleton,2022.2.2,59.998545830923405,
None,None,,,,,,,,,0,0,0,0,4,2,18,3,,,,,,,,,1165.6250589117408,stop,circleblack.png,left,0.35,,,,,,,,,,,,,,,,,,0.0013111196458339691,0.4898138903081417,0.8400973342359066,1168.1274621784687,test,1,,,,,,,1165.643379125744,1166.1574870683253,1166.1407317742705,1166.1407317742705,1166.4916377291083,1166.9915026910603,1167.141363300383,1168.1463442668319,left,1,0.5225762836635113,0.3,,,,,,,,,,,s12,001,2024-07-18_17h26.15.698,simplestop_skeleton,2022.2.2,59.998545830923405,
$currentCorrectResponse,$currentGoStim,,,,,,,,,0,0,0,0,4,3,19,0,,,,,,,,,1168.1278901100159,go,circleblack.png,left,0.3,,,,,,,,,,,,,,,,,,0.0012477338314056396,0.48974163457751274,,1170.630128391087,test,1,,,,,,,1168.1463442668319,1168.6601914465427,1168.6434793397784,1168.6434793397784,1168.9437948726118,1169.4443785771728,1169.64463403821,1170.648962378502,left,1,0.7270743735134602,0.3,,,,,,,,,,,s12,001,2024-07-18_17h26.15.698,simplestop_skeleton,2022.2.2,59.998545830923405,
None,None,,,,,,,,,0,0,0,0,5,0,20,1,,,,,,,,,1170.6305677630007,go,circleblack.png,left,0.3,,,,,,,,,,,,,,,,,,0.0013727247714996338,0.48979072645306587,,1173.1330743655562,test,1,,,,,,,1170.648962378502,1171.1629225462675,1171.1462068222463,1171.1462068222463,1171.4464302398264,1171.946978095919,1172.1458344832063,1173.157038781792,left,1,0.6611130088567734,0.3,,,,,,,,,,,s12,001,2024-07-18_17h26.15.698,simplestop_skeleton,2022.2.2,59.998545830923405,
None,None,,,,,,,,,0,0,0,0,5,1,21,3,,,,,,,,,1173.133509710431,go,squareblack.png,right,0.3,,,,,,,,,,,,,,,,,,0.007414594292640686,0.4897311292588711,,1175.635803438723,test,1,,,,,,,1173.157038781792,1173.665761768818,1173.6489390209317,1173.6489390209317,1173.9493076726794,1174.4498404935002,1174.648786392063,1175.6548584215343,right,1,0.6182111278176308,0.3,,,,,,,,,,,s12,001,2024-07-18_17h26.15.698,simplestop_skeleton,2022.2.2,59.998545830923405,
$currentCorrectResponse,$currentGoStim,,,,,,,,,0,0,0,0,5,2,22,0,,,,,,,,,1175.6362972781062,go,squareblack.png,right,0.3,,,,,,,,,,,,,,,,,,0.001322176307439804,0.48943598940968513,,1178.1383272334933,test,1,,,,,,,1175.6548584215343,1176.1683017387986,1176.1518185958266,1176.1518185958266,1176.4520992524922,1176.9527486860752,1177.1529064550996,1178.157275352627,right,1,0.718291874974966,0.3,,,,,,,,,,,s12,001,2024-07-18_17h26.15.698,simplestop_skeleton,2022.2.2,59.998545830923405,
None,None,,,,,,,,,0,0,0,0,5,3,23,1,,,,,,,,,1178.138787869364,stop,squareblack.png,right,0.3,,,,,,,,,,,,,,,,,,0.001187644898891449,0.4899052791297436,0.7901836335659027,1180.6416426450014,test,1,,,,,,,1178.157275352627,1178.6712475717068,1178.6545300334692,1178.6545300334692,1178.9549463950098,1179.4556089043617,1179.6556544676423,1180.6605821624398,None,0,,0.35,,,,,,,,,,,s12,001,2024-07-18_17h26.15.698,simplestop_skeleton,2022.2.2,59.998545830923405,
None,None,,,,,,,,,0,0,0,0,6,0,24,2,,,,,,,,,1180.642104420811,go,squareblack.png,right,0.35,,,,,,,,,,,,,,,,,,0.0014059729874134064,0.48922401666641235,,1183.1439350619912,test,1,,,,,,,1180.6605821624398,1181.1740269809961,1181.1572371274233,1181.1572371274233,1181.5079460144043,1182.0082832798362,1182.1570224240422,1183.1688455156982,right,1,0.5915857292711735,0.35,,,,,,,,,,,s12,001,2024-07-18_17h26.15.698,simplestop_skeleton,2022.2.2,59.998545830923405,
None,None,,,,,,,,,0,0,0,0,6,1,25,1,,,,,,,,,1183.144373189658,stop,circleblack.png,left,0.35,,,,,,,,,,,,,,,,,,0.007976338267326355,0.4895859993994236,0.8399339504539967,1185.6470552273095,test,1,,,,,,,1183.1688455156982,1183.6766251698136,1183.660067178309,1183.660067178309,1184.0103729702532,1184.511037953198,1184.6609890833497,1185.66664102301,None,0,,0.4,,,,,,,,,,,s12,001,2024-07-18_17h26.15.698,simplestop_skeleton,2022.2.2,59.998545830923405,
$currentCorrectResponse,$currentGoStim,,,,,,,,,0,0,0,0,6,2,26,0,,,,,,,,,1185.647509045899,go,squareblack.png,right,0.4,,,,,,,,,,,,,,,,,,0.0018686726689338684,0.4891844801604748,,1188.1497351713479,test,1,,,,,,,1185.66664102301,1186.1795790828764,1186.1628076434135,1186.1628076434135,1186.563343681395,1187.0629582256079,1187.16264346987,1188.1691997721791,right,1,0.5943558774888515,0.4,,,,,,,,,,,s12,001,2024-07-18_17h26.15.698,simplestop_skeleton,2022.2.2,59.998545830923405,
$currentCorrectResponse,$currentGoStim,,,,,,,,,0,0,0,0,6,3,27,0,,,,,,,,,1188.1501861177385,go,circleblack.png,left,0.4,,,,,,,,,,,,,,,,,,0.0019059926271438599,0.48974600806832314,,1190.652343209833,test,1,,,,,,,1188.1691997721791,1188.6821836084127,1188.6659549102187,1188.6659549102187,1189.066004410386,1189.5651957280934,1189.6653204523027,1190.6717271767557,left,1,0.589180264621973,0.4,,,,,,,,,,,s12,001,2024-07-18_17h26.15.698,simplestop_skeleton,2022.2.2,59.998545830923405,
None,None,,,,,,,,,0,0,0,0,7,0,28,2,,,,,,,,,1190.6527965776622,go,circleblack.png,left,0.4,,,,,,,,,,,,,,,,,,0.0014444030821323395,0.48955804109573364,,1193.1551468893886,test,1,,,,,,,1190.6717271767557,1191.1849980093539,1191.1685048788786,1191.1685048788786,1191.5691251978278,1192.0694160349667,1192.1681415438652,1193.1745074093342,left,1,0.6514339484274387,0.4,,,,,,,,,,,s12,001,2024-07-18_17h26.15.698,simplestop_skeleton,2022.2.2,59.998545830923405,
None,None,,,,,,,,,0,0,0,0,7,1,29,1,,,,,,,,,1193.1555782929063,stop,squareblack.png,right,0.4,,,,,,,,,,,,,,,,,,0.0018118508160114288,0.48969119042158127,0.8901383280754089,1195.65797823295,test,1,,,,,,,1193.1745074093342,1193.6879942454398,1193.6710804626346,1193.6710804626346,1194.07142912969,1194.572111159563,1194.67253543064,1195.6785274744034,None,0,,0.45,,,,,,,,,,,s12,001,2024-07-18_17h26.15.698,simplestop_skeleton,2022.2.2,59.998545830923405,
$currentCorrectResponse,$currentGoStim,,,,,,,,,0,0,0,0,7,2,30,0,,,,,,,,,1195.658412296325,stop,circleblack.png,left,0.45,,,,,,,,,,,,,,,,,,0.0020492374897003174,0.4878576137125492,0.9397699609398842,1198.1606443151832,test,1,,,,,,,1195.6785274744034,1196.1891258433461,1196.1723675839603,1196.1723675839603,1196.6244735568762,1197.1248554885387,1197.1748460009694,1198.1796569377184,left,1,0.4531432241201401,0.4,,,,,,,,,,,s12,001,2024-07-18_17h26.15.698,simplestop_skeleton,2022.2.2,59.998545830923405,
None,None,,,,,,,,,0,0,0,0,7,3,31,3,,,,,,,,,1198.1610840819776,go,circleblack.png,left,0.4,,,,,,,,,,,,,,,,,,0.0014760270714759827,0.4896513633430004,,1200.6630409955978,test,1,,,,,,,1198.1796569377184,1198.693295698613,1198.6766083315015,1198.6766083315015,1199.0769949443638,1199.5761434994638,1199.6762835346162,1200.6825023666024,left,1,0.5889848470687866,0.4,,,,,,,,,,,s12,001,2024-07-18_17h26.15.698,simplestop_skeleton,2022.2.2,59.998545830923405,
None,None,,,,,,,,,0,0,0,0,8,0,32,3,,,,,,,,,1200.6634833738208,go,squareblack.png,right,0.4,,,,,,,,,,,,,,,,,,0.0017190836369991302,0.4900711737573147,,1203.166181653738,test,1,,,,,,,1200.6825023666024,1201.1958141624928,1201.1794307120144,1201.1794307120144,1201.5800687894225,1202.0809130966663,1202.1804744563997,1203.1848330311477,right,1,0.8852627612650394,0.4,,,,,,,,,,,s12,001,2024-07-18_17h26.15.698,simplestop_skeleton,2022.2.2,59.998545830923405,
None,None,,,,,,,,,0,0,0,0,8,1,33,2,,,,,,,,,1203.16662793234,stop,squareblack.png,right,0.4,,,,,,,,,,,,,,,,,,0.0013332702219486237,0.48966290429234505,0.8894234001636505,1205.6690428331494,test,1,,,,,,,1203.1848330311477,1203.6991244070232,1203.6823661513627,1203.6823661513627,1204.0821186453104,1204.5836927369237,1204.6831950582564,1205.688290093094,None,0,,0.45,,,,,,,,,,,s12,001,2024-07-18_17h26.15.698,simplestop_skeleton,2022.2.2,59.998545830923405,
None,None,,,,,,,,,0,0,0,0,8,2,34,3,,,,,,,,,1205.6695844978094,go,squareblack.png,right,0.45,,,,,,,,,,,,,,,,,,0.0013026781380176544,0.4895286485552788,,1208.171576730907,test,1,,,,,,,1205.688290093094,1206.2016215026379,1206.1847910396755,1206.1847910396755,1206.6353434808552,1207.134576767683,1207.186898432672,1208.191680751741,right,1,0.5472251400351524,0.45,,,,,,,,,,,s12,001,2024-07-18_17h26.15.698,simplestop_skeleton,2022.2.2,59.998545830923405,
$currentCorrectResponse,$currentGoStim,,,,,,,,,0,0,0,0,8,3,35,0,,,,,,,,,1208.1720103025436,go,circleblack.png,left,0.45,,,,,,,,,,,,,,,,,,0.002305068075656891,0.48976099491119385,,1210.67436286062,test,1,,,,,,,1208.191680751741,1208.704339645803,1208.6880501359701,1208.6880501359701,1209.138377327472,1209.637328773737,1209.6876977868378,1210.6935991831124,left,1,0.6018319427967072,0.45,,,,,,,,,,,s12,001,2024-07-18_17h26.15.698,simplestop_skeleton,2022.2.2,59.998545830923405,
None,None,,,,,,,,,0,0,0,0,9,0,36,2,,,,,,,,,1210.6748063340783,go,squareblack.png,right,0.45,,,,,,,,,,,,,,,,,,0.001692935824394226,0.4898904524743557,,1213.1769639849663,test,1,,,,,,,1210.6935991831124,1211.2071813344955,1211.190370939672,1211.190370939672,1211.6401574127376,1212.1412771828473,1212.191362503916,1213.1958456113935,right,1,0.7482066638767719,0.45,,,,,,,,,,,s12,001,2024-07-18_17h26.15.698,simplestop_skeleton,2022.2.2,59.998545830923405,
None,None,,,,,,,,,0,0,0,0,9,1,37,2,,,,,,,,,1213.1773988977075,stop,squareblack.png,right,0.45,,,,,,,,,,,,,,,,,,0.00118178129196167,0.4897928796708584,0.9402127116918564,1215.6799277439713,test,1,,,,,,,1213.1958456113935,1213.709848344326,1213.693340331316,1213.693340331316,1214.1435501985252,1214.644093040377,1214.6942988932133,1215.6993085034192,None,0,,0.5,,,,,,,,,,,s12,001,2024-07-18_17h26.15.698,simplestop_skeleton,2022.2.2,59.998545830923405,
None,None,,,,,,,,,0,0,0,0,9,2,38,3,,,,,,,,,1215.680355321616,go,circleblack.png,left,0.5,,,,,,,,,,,,,,,,,,0.0019189231097698212,0.48989473655819893,,1218.182789016515,test,1,,,,,,,1215.6993085034192,1216.2126432470977,1216.1957587227225,1216.1957587227225,1216.6965114809573,1217.197204273194,1217.197204273194,1218.2016733139753,left,1,0.7367052063345909,0.5,,,,,,,,,,,s12,001,2024-07-18_17h26.15.698,simplestop_skeleton,2022.2.2,59.998545830923405,
None,None,,,,,,,,,0,0,0,0,9,3,39,3,,,,,,,,,1218.1832256019115,go,circleblack.png,left,0.5,,,,,,,,,,,,,,,,,,0.0013802945613861084,0.48960962519049644,,1220.685392063111,test,1,,,,,,,1218.2016733139753,1218.7153802514076,1218.6986988969147,1218.6986988969147,1219.1993144117296,1219.6984941996634,1219.6984941996634,1220.704609811306,left,1,0.6409111358225346,0.5,,,,,,,,,,,s12,001,2024-07-18_17h26.15.698,simplestop_skeleton,2022.2.2,59.998545830923405,
None,None,,,,,,,,,0,0,0,0,10,0,40,1,,,,,,,,,1220.685826499015,go,circleblack.png,left,0.5,,,,,,,,,,,,,,,,,,0.0014318376779556274,0.48983050510287285,,1223.1883339360356,test,1,,,,,,,1220.704609811306,1221.218527752906,1221.2016344591975,1221.2016344591975,1221.7020307183266,1222.2010811269283,1222.2010811269283,1223.2075536176562,left,1,0.6867890693247318,0.5,,,,,,,,,,,s12,001,2024-07-18_17h26.15.698,simplestop_skeleton,2022.2.2,59.998545830923405,
None,None,,,,,,,,,0,0,0,0,10,1,41,3,,,,,,,,,1223.188778474927,go,squareblack.png,right,0.5,,,,,,,,,,,,,,,,,,0.0016407296061515808,0.4898141250014305,,1225.6909283138812,test,1,,,,,,,1223.2075536176562,1223.720926053822,1223.7044476605952,1223.7044476605952,1224.2048247791827,1224.705012485385,1224.705012485385,1225.7102786153555,right,1,0.7028306163847446,0.5,,,,,,,,,,,s12,001,2024-07-18_17h26.15.698,simplestop_skeleton,2022.2.2,59.998545830923405,
None,None,,,,,,,,,0,0,0,0,10,2,42,2,,,,,,,,,1225.6913577467203,go,squareblack.png,right,0.5,,,,,,,,,,,,,,,,,,0.001414380967617035,0.4895026534795761,,1228.1937262304127,test,1,,,,,,,1225.7102786153555,1226.2238558344543,1226.2068997696042,1226.2068997696042,1226.7076003178954,1227.2086443975568,1227.2086443975568,1228.2132341377437,right,1,0.7733365446329117,0.5,,,,,,,,,,,s12,001,2024-07-18_17h26.15.698,simplestop_skeleton,2022.2.2,59.998545830923405,
None,None,,,,,,,,,0,0,0,0,10,3,43,2,,,,,,,,,1228.1941604427993,go,circleblack.png,left,0.5,,,,,,,,,,,,,,,,,,0.0018180124461650848,0.4896784722805023,,1230.6963232532144,test,1,,,,,,,1228.2132341377437,1228.7264436669648,1228.709640596062,1228.709640596062,1229.210266213864,1229.7102735713124,1229.7102735713124,1230.7147896885872,left,1,0.7842149995267391,0.5,,,,,,,,,,,s12,001,2024-07-18_17h26.15.698,simplestop_skeleton,2022.2.2,59.998545830923405,
$currentCorrectResponse,$currentGoStim,,,,,,,,,0,0,0,0,11,0,44,0,,,,,,,,,1230.6967542134225,stop,circleblack.png,left,0.5,,,,,,,,,,,,,,,,,,0.00124436616897583,0.49020178243517876,0.9908785372972488,1233.199442923069,test,1,,,,,,,1230.7147896885872,1231.2291086427867,1231.212508827448,1231.212508827448,1231.7129048146307,1232.21222037822,1232.21222037822,1233.2188075520098,left,1,0.6922133192420006,0.45,,,,,,,,,,,s12,001,2024-07-18_17h26.15.698,simplestop_skeleton,2022.2.2,59.998545830923405,
None,None,,,,,,,,,0,0,0,0,11,1,45,3,,,,,,,,,1233.1998958960176,stop,squareblack.png,right,0.45,,,,,,,,,,,,,,,,,,0.0017870403826236725,0.4897218272089958,0.9399319030344486,1235.7019696123898,test,1,,,,,,,1233.2188075520098,1233.7320256233215,1233.7151943929493,1233.7151943929493,1234.1658532172441,1234.6648539490998,1234.71491843462,1235.7206344790757,right,1,0.6255385018885136,0.4,,,,,,,,,,,s12,001,2024-07-18_17h26.15.698,simplestop_skeleton,2022.2.2,59.998545830923405,
None,None,,,,,,,,,0,0,0,0,11,2,46,3,,,,,,,,,1235.7024237811565,go,squareblack.png,right,0.4,,,,,,,,,,,,,,,,,,0.0012436434626579285,0.4896065294742584,,1238.2047488950193,test,1,,,,,,,1235.7206344790757,1236.2350651323795,1236.2182489149272,1236.2182489149272,1236.6188004091382,1237.118058245629,1237.2178943045437,1238.224243607372,right,1,0.6512730829417706,0.4,,,,,,,,,,,s12,001,2024-07-18_17h26.15.698,simplestop_skeleton,2022.2.2,59.998545830923405,
None,None,,,,,,,,,0,0,0,0,11,3,47,1,,,,,,,,,1238.2051833197474,stop,circleblack.png,left,0.4,,,,,,,,,,,,,,,,,,0.0017741285264492035,0.48980895802378654,0.8901075944304466,1240.7078048810363,test,1,,,,,,,1238.224243607372,1238.7376194037497,1238.7208845317364,1238.7208845317364,1239.1214469447732,1239.6219596751034,1239.7219614051282,1240.7298518009484,None,0,,0.45,,,,,,,,,,,s12,001,2024-07-18_17h26.15.698,simplestop_skeleton,2022.2.2,59.998545830923405,
,,,,,,,,,,0,0,0,0,,,,,,"[{'fileName': 'circleblack.png', 'correct_response': 'left', 'condition': 'stop'}, {'fileName': 'squareblack.png', 'correct_response': 'right', 'condition': 'stop'}, {'fileName': 'circleblack.png', 'correct_response': 'left', 'condition': 'stop'}, {'fileName': 'circleblack.png', 'correct_response': 'left', 'condition': 'go'}, {'fileName': 'circleblack.png', 'correct_response': 'left', 'condition': 'go'}, {'fileName': 'squareblack.png', 'correct_response': 'right', 'condition': 'go'}, {'fileName': 'squareblack.png', 'correct_response': 'right', 'condition': 'go'}, {'fileName': 'squareblack.png', 'correct_response': 'right', 'condition': 'stop'}, {'fileName': 'circleblack.png', 'correct_response': 'left', 'condition': 'go'}, {'fileName': 'squareblack.png', 'correct_response': 'right', 'condition': 'go'}, {'fileName': 'squareblack.png', 'correct_response': 'right', 'condition': 'go'}, {'fileName': 'circleblack.png', 'correct_response': 'left', 'condition': 'go'}, {'fileName': 'circleblack.png', 'correct_response': 'left', 'condition': 'go'}, {'fileName': 'squareblack.png', 'correct_response': 'right', 'condition': 'go'}, {'fileName': 'squareblack.png', 'correct_response': 'right', 'condition': 'stop'}, {'fileName': 'squareblack.png', 'correct_response': 'right', 'condition': 'go'}, {'fileName': 'circleblack.png', 'correct_response': 'left', 'condition': 'go'}, {'fileName': 'squareblack.png', 'correct_response': 'right', 'condition': 'go'}, {'fileName': 'squareblack.png', 'correct_response': 'right', 'condition': 'stop'}, {'fileName': 'circleblack.png', 'correct_response': 'left', 'condition': 'go'}, {'fileName': 'circleblack.png', 'correct_response': 'left', 'condition': 'go'}, {'fileName': 'circleblack.png', 'correct_response': 'left', 'condition': 'stop'}, {'fileName': 'circleblack.png', 'correct_response': 'left', 'condition': 'stop'}, {'fileName': 'squareblack.png', 'correct_response': 'right', 'condition': 'go'}, {'fileName': 'circleblack.png', 'correct_response': 'left', 'condition': 'go'}, {'fileName': 'circleblack.png', 'correct_response': 'left', 'condition': 'go'}, {'fileName': 'squareblack.png', 'correct_response': 'right', 'condition': 'go'}, {'fileName': 'circleblack.png', 'correct_response': 'left', 'condition': 'go'}, {'fileName': 'circleblack.png', 'correct_response': 'left', 'condition': 'stop'}, {'fileName': 'squareblack.png', 'correct_response': 'right', 'condition': 'go'}, {'fileName': 'squareblack.png', 'correct_response': 'right', 'condition': 'go'}, {'fileName': 'circleblack.png', 'correct_response': 'left', 'condition': 'stop'}, {'fileName': 'squareblack.png', 'correct_response': 'right', 'condition': 'go'}, {'fileName': 'squareblack.png', 'correct_response': 'right', 'condition': 'stop'}, {'fileName': 'circleblack.png', 'correct_response': 'left', 'condition': 'go'}, {'fileName': 'squareblack.png', 'correct_response': 'right', 'condition': 'stop'}, {'fileName': 'squareblack.png', 'correct_response': 'right', 'condition': 'stop'}, {'fileName': 'squareblack.png', 'correct_response': 'right', 'condition': 'stop'}, {'fileName': 'squareblack.png', 'correct_response': 'right', 'condition': 'go'}, {'fileName': 'circleblack.png', 'correct_response': 'left', 'condition': 'go'}, {'fileName': 'circleblack.png', 'correct_response': 'left', 'condition': 'go'}, {'fileName': 'circleblack.png', 'correct_response': 'left', 'condition': 'stop'}, {'fileName': 'circleblack.png', 'correct_response': 'left', 'condition': 'stop'}, {'fileName': 'circleblack.png', 'correct_response': 'left', 'condition': 'go'}, {'fileName': 'circleblack.png', 'correct_response': 'left', 'condition': 'go'}, {'fileName': 'squareblack.png', 'correct_response': 'right', 'condition': 'go'}, {'fileName': 'squareblack.png', 'correct_response': 'right', 'condition': 'go'}, {'fileName': 'squareblack.png', 'correct_response': 'right', 'condition': 'go'}]",,,,,,,,,,,,,,,,,,,,,,,,,,,,,,,,,,,,,,,,,,,,,,,,,,,,,1240.7298518009484,1240.7298518009484,return,36.92130348458886,,,,,,,s12,001,2024-07-18_17h26.15.698,simplestop_skeleton,2022.2.2,59.998545830923405,
$currentCorrectResponse,$currentGoStim,,,,,,,,,1,0,1,0,0,0,0,0,,,,,,,,,1277.6766270957887,stop,circleblack.png,left,0.45,,,,,,,,,,,,,,,,,,0.0021115392446517944,0.4930417612195015,0.9435836263000965,1280.1847121044993,test,2,,,,,,,1277.6973445005715,1278.1979712061584,1278.1979712061584,1278.1979712061584,1278.6479924060404,1279.1488784439862,1279.1987258680165,1280.2086099907756,None,0,,0.5,,,,,,,,,,,s12,001,2024-07-18_17h26.15.698,simplestop_skeleton,2022.2.2,59.998545830923405,
None,None,,,,,,,,,1,0,1,0,0,1,1,1,,,,,,,,,1280.185245860368,stop,squareblack.png,right,0.5,,,,,,,,,,,,,,,,,,0.007290646433830261,0.4896501451730728,0.9900637976825237,1282.687360610813,test,2,,,,,,,1280.2086099907756,1280.717407349497,1280.700463000685,1280.700463000685,1281.2009851373732,1281.7001054733992,1281.7001054733992,1282.7067423947155,right,1,0.6050127558410168,0.45,,,,,,,,,,,s12,001,2024-07-18_17h26.15.698,simplestop_skeleton,2022.2.2,59.998545830923405,
None,None,,,,,,,,,1,0,1,0,0,2,2,2,,,,,,,,,1282.6877899356186,stop,circleblack.png,left,0.45,,,,,,,,,,,,,,,,,,0.0018213950097560883,0.48955848067998886,0.9398801475763321,1285.1897552236915,test,2,,,,,,,1282.7067423947155,1283.2198410145938,1283.2031959220767,1283.2031959220767,1283.6538644582033,1284.1541477814317,1284.2042395025492,1285.2086769789457,None,0,,0.5,,,,,,,,,,,s12,001,2024-07-18_17h26.15.698,simplestop_skeleton,2022.2.2,59.998545830923405,
None,None,,,,,,,,,1,0,1,0,0,3,3,2,,,,,,,,,1285.1901881024241,go,circleblack.png,left,0.5,,,,,,,,,,,,,,,,,,0.0012613311409950256,0.48997942730784416,,1287.6928371675313,test,2,,,,,,,1285.2086769789457,1285.7225270047784,1285.7058990336955,1285.7058990336955,1286.2064586691558,1286.707054439932,1286.707054439932,1287.7115172185004,left,1,0.6151158437132835,0.5,,,,,,,,,,,s12,001,2024-07-18_17h26.15.698,simplestop_skeleton,2022.2.2,59.998545830923405,
None,None,,,,,,,,,1,0,1,0,1,0,4,3,,,,,,,,,1287.6932653523982,go,circleblack.png,left,0.5,,,,,,,,,,,,,,,,,,0.0013271123170852661,0.4898591712117195,,1290.1955498121679,test,2,,,,,,,1287.7115172185004,1288.2254303097725,1288.2089758105576,1288.2089758105576,1288.709380056709,1289.2093622796237,1289.2093622796237,1290.21464176476,left,1,0.6609629653394222,0.5,,,,,,,,,,,s12,001,2024-07-18_17h26.15.698,simplestop_skeleton,2022.2.2,59.998545830923405,
None,None,,,,,,,,,1,0,1,0,1,1,5,3,,,,,,,,,1290.1959884352982,go,squareblack.png,right,0.5,,,,,,,,,,,,,,,,,,0.0016860924661159515,0.48998086154460907,,1292.698393393308,test,2,,,,,,,1290.21464176476,1290.7283542864025,1290.7114748209715,1290.7114748209715,1291.2120636105537,1291.713008761406,1291.713008761406,1292.7172087728977,right,1,0.7858212813735008,0.5,,,,,,,,,,,s12,001,2024-07-18_17h26.15.698,simplestop_skeleton,2022.2.2,59.998545830923405,
None,None,,,,,,,,,1,0,1,0,1,2,6,2,,,,,,,,,1292.6988352313638,go,squareblack.png,right,0.5,,,,,,,,,,,,,,,,,,0.0013098791241645813,0.48984457552433014,,1295.2010873295367,test,2,,,,,,,1292.7172087728977,1293.2308944389224,1293.2144664749503,1293.2144664749503,1293.714713320136,1294.2154801413417,1294.2154801413417,1295.220300015062,right,1,0.6219703331589699,0.5,,,,,,,,,,,s12,001,2024-07-18_17h26.15.698,simplestop_skeleton,2022.2.2,59.998545830923405,
None,None,,,,,,,,,1,0,1,0,1,3,7,1,,,,,,,,,1295.2015299797058,stop,squareblack.png,right,0.5,,,,,,,,,,,,,,,,,,0.0013794563710689545,0.489499069750309,0.9900664687156677,1297.7035782337189,test,2,,,,,,,1295.220300015062,1295.7341960780323,1295.717059865594,1295.717059865594,1296.2179544083774,1296.7173102423549,1296.7173102423549,1297.7230009660125,right,1,0.4945116303861141,0.45,,,,,,,,,,,s12,001,2024-07-18_17h26.15.698,simplestop_skeleton,2022.2.2,59.998545830923405,
None,None,,,,,,,,,1,0,1,0,2,0,8,2,,,,,,,,,1297.7040163613856,go,circleblack.png,left,0.45,,,,,,,,,,,,,,,,,,0.0018233023583889008,0.49002114683389664,,1300.2063815966249,test,2,,,,,,,1297.7230009660125,1298.2362554855645,1298.2196661680937,1298.2196661680937,1298.6700905784965,1299.170835327357,1299.2207769937813,1300.2258912362158,left,1,0.7167258448898792,0.45,,,,,,,,,,,s12,001,2024-07-18_17h26.15.698,simplestop_skeleton,2022.2.2,59.998545830923405,
$currentCorrectResponse,$currentGoStim,,,,,,,,,1,0,1,0,2,1,9,0,,,,,,,,,1300.2068183608353,go,squareblack.png,right,0.45,,,,,,,,,,,,,,,,,,0.0017217881977558136,0.48940983042120934,,1302.7095134668052,test,2,,,,,,,1300.2258912362158,1300.7390409968793,1300.7224623635411,1300.7224623635411,1301.172884851694,1301.6738147176802,1301.7237804792821,1302.7283500097692,right,1,0.7186780758202076,0.45,,,,,,,,,,,s12,001,2024-07-18_17h26.15.698,simplestop_skeleton,2022.2.2,59.998545830923405,
None,None,,,,,,,,,1,0,1,0,2,2,10,1,,,,,,,,,1302.7099516578019,go,squareblack.png,right,0.45,,,,,,,,,,,,,,,,,,0.0012512840330600739,0.4896988719701767,,1305.2118872515857,test,2,,,,,,,1302.7283500097692,1303.242118742317,1303.2254143990576,1303.2254143990576,1303.675973135978,1304.176309030503,1304.2252663522959,1305.2310665808618,right,1,0.7066749446094036,0.45,,,,,,,,,,,s12,001,2024-07-18_17h26.15.698,simplestop_skeleton,2022.2.2,59.998545830923405,
None,None,,,,,,,,,1,0,1,0,2,3,11,3,,,,,,,,,1305.212323565036,go,circleblack.png,left,0.45,,,,,,,,,,,,,,,,,,0.0018390119075775146,0.4899127222597599,,1307.714914597571,test,2,,,,,,,1305.2310665808618,1305.7446990832686,1305.7281901203096,1305.7281901203096,1306.178666535765,1306.6790050193667,1306.7293770089746,1307.7339337207377,left,1,0.7812405303120613,0.45,,,,,,,,,,,s12,001,2024-07-18_17h26.15.698,simplestop_skeleton,2022.2.2,59.998545830923405,
$currentCorrectResponse,$currentGoStim,,,,,,,,,1,0,1,0,3,0,12,0,,,,,,,,,1307.715359468013,go,circleblack.png,left,0.45,,,,,,,,,,,,,,,,,,0.00145035982131958,0.4892015866935253,,1310.2172912992537,test,2,,,,,,,1307.7339337207377,1308.2473092526197,1308.2306975275278,1308.2306975275278,1308.6813068389893,1309.1819659247994,1309.2317308746278,1310.2363188304007,left,1,0.7179713882505894,0.45,,,,,,,,,,,s12,001,2024-07-18_17h26.15.698,simplestop_skeleton,2022.2.2,59.998545830923405,
None,None,,,,,,,,,1,0,1,0,3,1,13,2,,,,,,,,,1310.21772056818,go,squareblack.png,right,0.45,,,,,,,,,,,,,,,,,,0.0016659274697303772,0.4886266924440861,,1312.7202536538243,test,2,,,,,,,1310.2363188304007,1310.748793669045,1310.732100944966,1310.732100944966,1311.1841474175453,1311.6844193413854,1311.7346400097013,1312.7394051998854,right,1,0.6829695627093315,0.45,,,,,,,,,,,s12,001,2024-07-18_17h26.15.698,simplestop_skeleton,2022.2.2,59.998545830923405,
None,None,,,,,,,,,1,0,1,0,3,2,14,2,,,,,,,,,1312.720695413649,stop,squareblack.png,right,0.45,,,,,,,,,,,,,,,,,,0.0012661442160606384,0.48955530673265457,0.9401387497782707,1315.223033476621,test,2,,,,,,,1312.7394051998854,1313.2529588490725,1313.2362649701536,1313.2362649701536,1313.686905670911,1314.1883546374738,1314.2369468659163,1315.2418853975832,right,1,0.47121546044945717,0.4,,,,,,,,,,,s12,001,2024-07-18_17h26.15.698,simplestop_skeleton,2022.2.2,59.998545830923405,
None,None,,,,,,,,,1,0,1,0,3,3,15,3,,,,,,,,,1315.2234766930342,go,squareblack.png,right,0.4,,,,,,,,,,,,,,,,,,0.0012125149369239807,0.4884413816034794,,1317.7257042974234,test,2,,,,,,,1315.2418853975832,1315.7554806880653,1315.7377702742815,1315.7377702742815,1316.13940859586,1316.6398769132793,1316.7400920130312,1317.7452197000384,right,1,0.6476443484425545,0.4,,,,,,,,,,,s12,001,2024-07-18_17h26.15.698,simplestop_skeleton,2022.2.2,59.998545830923405,
None,None,,,,,,,,,1,0,1,0,4,0,16,3,,,,,,,,,1317.7261401750147,go,circleblack.png,left,0.4,,,,,,,,,,,,,,,,,,0.0018101371824741364,0.4897632412612438,,1320.2286690995097,test,2,,,,,,,1317.7452197000384,1318.2583459317684,1318.2417454272509,1318.2417454272509,1318.6423370428383,1319.141459941864,1319.2422721758485,1320.2480067498982,left,1,0.7915009148418903,0.4,,,,,,,,,,,s12,001,2024-07-18_17h26.15.698,simplestop_skeleton,2022.2.2,59.998545830923405,
None,None,,,,,,,,,1,0,1,0,4,1,17,1,,,,,,,,,1320.229122467339,go,squareblack.png,right,0.4,,,,,,,,,,,,,,,,,,0.0017406567931175232,0.48952892795205116,,1322.7313290536404,test,2,,,,,,,1320.2480067498982,1320.7612599171698,1320.7446981482208,1320.7446981482208,1321.1450280360878,1321.6456742845476,1321.7460326217115,1322.7503306306899,right,1,0.7480644807219505,0.4,,,,,,,,,,,s12,001,2024-07-18_17h26.15.698,simplestop_skeleton,2022.2.2,59.998545830923405,
$currentCorrectResponse,$currentGoStim,,,,,,,,,1,0,1,0,4,2,18,0,,,,,,,,,1322.7317577563226,stop,squareblack.png,right,0.4,,,,,,,,,,,,,,,,,,0.001301102340221405,0.49021095782518387,0.8902506306767464,1325.2343035712838,test,2,,,,,,,1322.7503306306899,1323.2643388845026,1323.2471919693053,1323.2471919693053,1323.647857107222,1324.1484483629465,1324.2486732937396,1325.2536438629031,None,0,,0.45,,,,,,,,,,,s12,001,2024-07-18_17h26.15.698,simplestop_skeleton,2022.2.2,59.998545830923405,
None,None,,,,,,,,,1,0,1,0,4,3,19,2,,,,,,,,,1325.2347439825535,go,circleblack.png,left,0.45,,,,,,,,,,,,,,,,,,0.0019817836582660675,0.48958399146795273,,1327.7369537055492,test,2,,,,,,,1325.2536438629031,1325.7670573703945,1325.7503027059138,1325.7503027059138,1326.2009355314076,1326.7165555544198,1326.7498443610966,1327.7558834217489,left,1,0.6303088143467903,0.45,,,,,,,,,,,s12,001,2024-07-18_17h26.15.698,simplestop_skeleton,2022.2.2,59.998545830923405,
None,None,,,,,,,,,1,0,1,0,5,0,20,2,,,,,,,,,1327.7374033927917,go,circleblack.png,left,0.45,,,,,,,,,,,,,,,,,,0.0014008693397045135,0.48969878628849983,,1330.2396751381457,test,2,,,,,,,1327.7558834217489,1328.2695144973695,1328.252833366394,1328.252833366394,1328.70364825055,1329.2040096484125,1329.2525854073465,1330.2583483718336,left,1,0.672465942800045,0.45,,,,,,,,,,,s12,001,2024-07-18_17h26.15.698,simplestop_skeleton,2022.2.2,59.998545830923405,
None,None,,,,,,,,,1,0,1,0,5,1,21,3,,,,,,,,,1330.2401046417654,stop,circleblack.png,left,0.45,,,,,,,,,,,,,,,,,,0.0012443885207176208,0.4898180775344372,0.9404818415641785,1332.7419272586703,test,2,,,,,,,1330.2583483718336,1330.7728306688368,1330.756171260029,1330.756171260029,1331.2061338797212,1331.7068522498012,1331.756780989468,1332.7581803053617,None,0,,0.5,,,,,,,,,,,s12,001,2024-07-18_17h26.15.698,simplestop_skeleton,2022.2.2,59.998545830923405,
None,None,,,,,,,,,1,0,1,0,5,2,22,3,,,,,,,,,1332.7423618920147,stop,circleblack.png,left,0.5,,,,,,,,,,,,,,,,,,0.001272004097700119,0.49037182703614235,0.9906651079654694,1335.2451912947,test,2,,,,,,,1332.7581803053617,1333.2584516219795,1333.2584516219795,1333.2584516219795,1333.7589375786483,1334.258154656738,1334.258154656738,1335.2695725299418,left,1,0.6275601424276829,0.45,,,,,,,,,,,s12,001,2024-07-18_17h26.15.698,simplestop_skeleton,2022.2.2,59.998545830923405,
None,None,,,,,,,,,1,0,1,0,5,3,23,3,,,,,,,,,1335.2456370852888,go,squareblack.png,right,0.45,,,,,,,,,,,,,,,,,,0.0075346194207668304,0.48960164189338684,,1337.7484262995422,test,2,,,,,,,1335.2695725299418,1335.7778882980347,1335.7613335810602,1335.7613335810602,1336.2116868719459,1336.7123308107257,1336.7622691616416,1337.7676129378378,right,1,0.8125322945415974,0.45,,,,,,,,,,,s12,001,2024-07-18_17h26.15.698,simplestop_skeleton,2022.2.2,59.998545830923405,
None,None,,,,,,,,,1,0,1,0,6,0,24,1,,,,,,,,,1337.7488599978387,go,circleblack.png,left,0.45,,,,,,,,,,,,,,,,,,0.0018533915281295776,0.4895391948521137,,1340.2507523484528,test,2,,,,,,,1337.7676129378378,1338.2808599732816,1338.2640956789255,1338.2640956789255,1338.7144240103662,1339.213740311563,1339.2647917121649,1340.269774273038,left,1,0.47479812055826187,0.45,,,,,,,,,,,s12,001,2024-07-18_17h26.15.698,simplestop_skeleton,2022.2.2,59.998545830923405,
None,None,,,,,,,,,1,0,1,0,6,1,25,3,,,,,,,,,1340.2511903084815,go,circleblack.png,left,0.45,,,,,,,,,,,,,,,,,,0.0013957172632217407,0.48970916122198105,,1342.7533762715757,test,2,,,,,,,1340.269774273038,1340.7833485864103,1340.7667782902718,1340.7667782902718,1341.2173966765404,1341.7328999564052,1341.766564708203,1342.7771875970066,left,1,0.6051093377172947,0.45,,,,,,,,,,,s12,001,2024-07-18_17h26.15.698,simplestop_skeleton,2022.2.2,59.998545830923405,
$currentCorrectResponse,$currentGoStim,,,,,,,,,1,0,1,0,6,2,26,0,,,,,,,,,1342.7538608759642,go,squareblack.png,right,0.45,,,,,,,,,,,,,,,,,,0.007229689508676529,0.4899251200258732,,1345.256118338555,test,2,,,,,,,1342.7771875970066,1343.2860738933086,1343.2693573012948,1343.2693573012948,1343.7199019901454,1344.2199197895825,1344.2701865844429,1345.2755478732288,right,1,0.349830225110054,0.45,,,,,,,,,,,s12,001,2024-07-18_17h26.15.698,simplestop_skeleton,2022.2.2,59.998545830923405,
None,None,,,,,,,,,1,0,1,0,6,3,27,2,,,,,,,,,1345.2565614134073,go,circleblack.png,left,0.45,,,,,,,,,,,,,,,,,,0.0018466375768184662,0.4901942238211632,,1347.7592588067055,test,2,,,,,,,1345.2755478732288,1345.788710538298,1345.7725885435939,1345.7725885435939,1346.2222357168794,1346.7232200950384,1346.7733408808708,1347.7789143137634,left,1,0.7064321674406528,0.45,,,,,,,,,,,s12,001,2024-07-18_17h26.15.698,simplestop_skeleton,2022.2.2,59.998545830923405,
None,None,,,,,,,,,1,0,1,0,7,0,28,1,,,,,,,,,1347.7596978321671,stop,circleblack.png,left,0.45,,,,,,,,,,,,,,,,,,0.001859668642282486,0.4890953488647938,0.9397863745689392,1350.2618513852358,test,2,,,,,,,1347.7789143137634,1348.291670229286,1348.2750052772462,1348.2750052772462,1348.725875314325,1349.2254204787314,1349.2756137773395,1350.2855669111013,left,1,0.42111872136592865,0.4,,,,,,,,,,,s12,001,2024-07-18_17h26.15.698,simplestop_skeleton,2022.2.2,59.998545830923405,
None,None,,,,,,,,,1,0,1,0,7,1,29,2,,,,,,,,,1350.2622783780098,go,squareblack.png,right,0.4,,,,,,,,,,,,,,,,,,0.006985779851675034,0.49013834446668625,,1352.7644531093538,test,2,,,,,,,1350.2855669111013,1350.7942934297025,1350.7780474163592,1350.7780474163592,1351.1784477718174,1351.6939392089844,1351.7775255031884,1352.7834975756705,right,1,0.5746868513524532,0.4,,,,,,,,,,,s12,001,2024-07-18_17h26.15.698,simplestop_skeleton,2022.2.2,59.998545830923405,
$currentCorrectResponse,$currentGoStim,,,,,,,,,1,0,1,0,7,2,30,0,,,,,,,,,1352.7649022080004,go,squareblack.png,right,0.4,,,,,,,,,,,,,,,,,,0.001268673688173294,0.48966045305132866,,1355.2670700848103,test,2,,,,,,,1352.7834975756705,1353.2972594052553,1353.280565213412,1353.280565213412,1353.6808123290539,1354.1815871596336,1354.281844869256,1355.286674235016,right,1,0.7639622278511524,0.4,,,,,,,,,,,s12,001,2024-07-18_17h26.15.698,simplestop_skeleton,2022.2.2,59.998545830923405,
$currentCorrectResponse,$currentGoStim,,,,,,,,,1,0,1,0,7,3,31,0,,,,,,,,,1355.2674979381263,stop,circleblack.png,left,0.4,,,,,,,,,,,,,,,,,,0.0020170509815216064,0.48968370258808136,0.8902383409440517,1357.7701576054096,test,2,,,,,,,1355.286674235016,1355.8001147136092,1355.7831955589354,1355.7831955589354,1356.1836458295584,1356.6842156983912,1356.7844334468246,1357.7891682051122,None,0,,0.45,,,,,,,,,,,s12,001,2024-07-18_17h26.15.698,simplestop_skeleton,2022.2.2,59.998545830923405,
None,None,,,,,,,,,1,0,1,0,8,0,32,1,,,,,,,,,1357.7706011459231,go,squareblack.png,right,0.45,,,,,,,,,,,,,,,,,,0.0016400665044784546,0.489474643021822,,1360.2724570296705,test,2,,,,,,,1357.7891682051122,1358.3025917299092,1358.2860444150865,1358.2860444150865,1358.7371239587665,1359.2364930585027,1359.2869470827281,1360.2900780327618,right,1,0.7536554038524628,0.45,,,,,,,,,,,s12,001,2024-07-18_17h26.15.698,simplestop_skeleton,2022.2.2,59.998545830923405,
None,None,,,,,,,,,1,0,1,0,8,1,33,1,,,,,,,,,1360.2729026451707,stop,squareblack.png,right,0.45,,,,,,,,,,,,,,,,,,0.001182500272989273,0.49001985043287277,0.9401927962899208,1362.7755285389721,test,2,,,,,,,1360.2900780327618,1360.8053809814155,1360.7888045720756,1360.7888045720756,1361.239129949361,1361.7397264763713,1361.7897247485816,1362.7947030179203,None,0,,0.5,,,,,,,,,,,s12,001,2024-07-18_17h26.15.698,simplestop_skeleton,2022.2.2,59.998545830923405,
None,None,,,,,,,,,1,0,1,0,8,2,34,1,,,,,,,,,1362.7760309949517,go,circleblack.png,left,0.5,,,,,,,,,,,,,,,,,,0.0019482225179672241,0.4897620193660259,,1365.2780209369957,test,2,,,,,,,1362.7947030179203,1363.3081521205604,1363.2917145639658,1363.2917145639658,1363.7919800505042,1364.2926287017763,1364.2926287017763,1365.2972978167236,left,1,0.7560676820576191,0.5,,,,,,,,,,,s12,001,2024-07-18_17h26.15.698,simplestop_skeleton,2022.2.2,59.998545830923405,
None,None,,,,,,,,,1,0,1,0,8,3,35,1,,,,,,,,,1365.2784586511552,stop,squareblack.png,right,0.5,,,,,,,,,,,,,,,,,,0.001646973192691803,0.48980898037552834,0.9901584312319756,1367.7810215875506,test,2,,,,,,,1365.2972978167236,1365.8108679577708,1365.794095620513,1365.794095620513,1366.294782139361,1366.7954421713948,1366.7954421713948,1367.7993796914816,None,0,,0.55,,,,,,,,,,,s12,001,2024-07-18_17h26.15.698,simplestop_skeleton,2022.2.2,59.998545830923405,
None,None,,,,,,,,,1,0,1,0,9,0,36,2,,,,,,,,,1367.7814634367824,stop,squareblack.png,right,0.55,,,,,,,,,,,,,,,,,,0.0011712610721588135,0.4898443892598152,1.0406791977584362,1370.2839870229363,test,2,,,,,,,1367.7993796914816,1368.3139114677906,1368.2969924509525,1368.2969924509525,1368.84776590392,1369.3468628413975,1369.2966695949435,1370.3027577027678,right,1,0.6754399389028549,0.5,,,,,,,,,,,s12,001,2024-07-18_17h26.15.698,simplestop_skeleton,2022.2.2,59.998545830923405,
None,None,,,,,,,,,1,0,1,0,9,1,37,3,,,,,,,,,1370.2844297662377,stop,squareblack.png,right,0.5,,,,,,,,,,,,,,,,,,0.001387905329465866,0.4893921837210655,0.9900564476847649,1372.7863344699144,test,2,,,,,,,1370.3027577027678,1370.816473711282,1370.7999795265496,1370.7999795265496,1371.3003986813128,1371.8002686873078,1371.8002686873078,1372.8051569908857,None,0,,0.55,,,,,,,,,,,s12,001,2024-07-18_17h26.15.698,simplestop_skeleton,2022.2.2,59.998545830923405,
None,None,,,,,,,,,1,0,1,0,9,2,38,3,,,,,,,,,1372.7867673784494,go,squareblack.png,right,0.55,,,,,,,,,,,,,,,,,,0.0011879615485668182,0.489728145301342,,1375.2891572415829,test,2,,,,,,,1372.8051569908857,1373.3194015435874,1373.3025114834309,1373.3025114834309,1373.8531562164426,1374.352427009493,1374.3022822998464,1375.314568206668,right,1,0.5942110270261765,0.55,,,,,,,,,,,s12,001,2024-07-18_17h26.15.698,simplestop_skeleton,2022.2.2,59.998545830923405,
None,None,,,,,,,,,1,0,1,0,9,3,39,1,,,,,,,,,1375.2895939089358,go,circleblack.png,left,0.55,,,,,,,,,,,,,,,,,,0.008572425693273544,0.49003391712903976,,1377.7923723645508,test,2,,,,,,,1375.314568206668,1375.8218799866736,1375.8059495277703,1375.8059495277703,1376.3559594005346,1376.8567130193114,1376.8064510673285,1377.8113373294473,left,1,0.8608702756464481,0.55,,,,,,,,,,,s12,001,2024-07-18_17h26.15.698,simplestop_skeleton,2022.2.2,59.998545830923405,
None,None,,,,,,,,,1,0,1,0,10,0,40,3,,,,,,,,,1377.7928119041026,go,circleblack.png,left,0.55,,,,,,,,,,,,,,,,,,0.0013819746673107147,0.48954517394304276,,1380.2950797602534,test,2,,,,,,,1377.8113373294473,1378.3248034827411,1378.3085161559284,1378.3085161559284,1378.858647879213,1379.3578317649662,1379.3078501708806,1380.3141847066581,left,1,0.6652777716517448,0.55,,,,,,,,,,,s12,001,2024-07-18_17h26.15.698,simplestop_skeleton,2022.2.2,59.998545830923405,
$currentCorrectResponse,$currentGoStim,,,,,,,,,1,0,1,0,10,1,41,0,,,,,,,,,1380.295521710068,stop,circleblack.png,left,0.55,,,,,,,,,,,,,,,,,,0.0014741308987140656,0.48935123160481453,1.0402211621403694,1382.7977889664471,test,2,,,,,,,1380.3141847066581,1380.8278121203184,1380.8107610158622,1380.8107610158622,1381.3614995665848,1381.8606149740517,1381.8106365166605,1382.817118089646,left,1,0.6516965515911579,0.5,,,,,,,,,,,s12,001,2024-07-18_17h26.15.698,simplestop_skeleton,2022.2.2,59.998545830923405,
$currentCorrectResponse,$currentGoStim,,,,,,,,,1,0,1,0,10,2,42,0,,,,,,,,,1382.7982211597264,stop,circleblack.png,left,0.5,,,,,,,,,,,,,,,,,,0.0013799779117107391,0.4895068518817425,0.9900276698172092,1385.300654027611,test,2,,,,,,,1382.817118089646,1383.3305281922221,1383.3136309348047,1383.3136309348047,1383.8142607808113,1384.3133440241218,1384.3133440241218,1385.3194542303681,left,1,0.6169354543089867,0.45,,,,,,,,,,,s12,001,2024-07-18_17h26.15.698,simplestop_skeleton,2022.2.2,59.998545830923405,
$currentCorrectResponse,$currentGoStim,,,,,,,,,1,0,1,0,10,3,43,0,,,,,,,,,1385.3011007495224,go,circleblack.png,left,0.45,,,,,,,,,,,,,,,,,,0.0014791302382946014,0.48961755633354187,,1387.8030825965106,test,2,,,,,,,1385.3194542303681,1385.833164677024,1385.8167364262044,1385.8167364262044,1386.2670584246516,1386.767529129982,1386.8174523077905,1387.822199344635,left,1,0.8012436591088772,0.45,,,,,,,,,,,s12,001,2024-07-18_17h26.15.698,simplestop_skeleton,2022.2.2,59.998545830923405,
None,None,,,,,,,,,1,0,1,0,11,0,44,2,,,,,,,,,1387.8035161979496,go,circleblack.png,left,0.45,,,,,,,,,,,,,,,,,,0.0013194791972637177,0.4896864630281925,,1390.305673699826,test,2,,,,,,,1387.822199344635,1388.3358019925654,1388.3191515989602,1388.3191515989602,1388.769581913948,1389.2707738727331,1389.3206070773304,1390.3300564140081,left,1,0.9152532927691936,0.45,,,,,,,,,,,s12,001,2024-07-18_17h26.15.698,simplestop_skeleton,2022.2.2,59.998545830923405,
$currentCorrectResponse,$currentGoStim,,,,,,,,,1,0,1,0,11,1,45,0,,,,,,,,,1390.3061248362064,go,squareblack.png,right,0.45,,,,,,,,,,,,,,,,,,0.00738796591758728,0.48991430178284645,,1392.8090296722949,test,2,,,,,,,1390.3300564140081,1390.838755235076,1390.822192400694,1390.822192400694,1391.2724212668836,1391.772076010704,1391.8215659968555,1392.8278207927942,right,1,0.672307949513197,0.45,,,,,,,,,,,s12,001,2024-07-18_17h26.15.698,simplestop_skeleton,2022.2.2,59.998545830923405,
None,None,,,,,,,,,1,0,1,0,11,2,46,1,,,,,,,,,1392.8094760291278,go,squareblack.png,right,0.45,,,,,,,,,,,,,,,,,,0.001345999538898468,0.48925162479281425,,1395.3114382885396,test,2,,,,,,,1392.8278207927942,1393.3416426703334,1393.3246382921934,1393.3246382921934,1393.775157816708,1394.2757981605828,1394.325775615871,1395.33057384938,right,1,0.7588010989129543,0.45,,,,,,,,,,,s12,001,2024-07-18_17h26.15.698,simplestop_skeleton,2022.2.2,59.998545830923405,
$currentCorrectResponse,$currentGoStim,,,,,,,,,1,0,1,0,11,3,47,0,,,,,,,,,1395.3118749521673,go,squareblack.png,right,0.45,,,,,,,,,,,,,,,,,,0.0013494379818439484,0.48992592468857765,,1397.8142154477537,test,2,,,,,,,1395.33057384938,1395.8441386558115,1395.8275677599013,1395.8275677599013,1396.2781857587397,1396.7781790718436,1396.827950116247,1397.8296695873141,right,1,0.3892579451203346,0.45,,,,,,,,,,,s12,001,2024-07-18_17h26.15.698,simplestop_skeleton,2022.2.2,59.998545830923405,
,,,,,,,,,,1,0,1,0,,,,,,,,,,,,,,,,,,,,,,,,,,,,,,,,,,,,,,,,,,,,,,,,,,,,,,,,,,,1397.8296695873141,1397.8296695873141,return,12.489555336534977,"[{'fileName': 'circleblack.png', 'correct_response': 'left', 'condition': 'go'}, {'fileName': 'squareblack.png', 'correct_response': 'right', 'condition': 'stop'}, {'fileName': 'squareblack.png', 'correct_response': 'right', 'condition': 'go'}, {'fileName': 'circleblack.png', 'correct_response': 'left', 'condition': 'stop'}, {'fileName': 'squareblack.png', 'correct_response': 'right', 'condition': 'stop'}, {'fileName': 'circleblack.png', 'correct_response': 'left', 'condition': 'go'}, {'fileName': 'circleblack.png', 'correct_response': 'left', 'condition': 'stop'}, {'fileName': 'circleblack.png', 'correct_response': 'left', 'condition': 'go'}, {'fileName': 'squareblack.png', 'correct_response': 'right', 'condition': 'go'}, {'fileName': 'squareblack.png', 'correct_response': 'right', 'condition': 'go'}, {'fileName': 'circleblack.png', 'correct_response': 'left', 'condition': 'go'}, {'fileName': 'squareblack.png', 'correct_response': 'right', 'condition': 'go'}, {'fileName': 'circleblack.png', 'correct_response': 'left', 'condition': 'go'}, {'fileName': 'squareblack.png', 'correct_response': 'right', 'condition': 'stop'}, {'fileName': 'squareblack.png', 'correct_response': 'right', 'condition': 'go'}, {'fileName': 'circleblack.png', 'correct_response': 'left', 'condition': 'go'}, {'fileName': 'circleblack.png', 'correct_response': 'left', 'condition': 'stop'}, {'fileName': 'squareblack.png', 'correct_response': 'right', 'condition': 'go'}, {'fileName': 'circleblack.png', 'correct_response': 'left', 'condition': 'stop'}, {'fileName': 'circleblack.png', 'correct_response': 'left', 'condition': 'go'}, {'fileName': 'squareblack.png', 'correct_response': 'right', 'condition': 'go'}, {'fileName': 'squareblack.png', 'correct_response': 'right', 'condition': 'go'}, {'fileName': 'circleblack.png', 'correct_response': 'left', 'condition': 'go'}, {'fileName': 'squareblack.png', 'correct_response': 'right', 'condition': 'stop'}, {'fileName': 'squareblack.png', 'correct_response': 'right', 'condition': 'stop'}, {'fileName': 'circleblack.png', 'correct_response': 'left', 'condition': 'stop'}, {'fileName': 'circleblack.png', 'correct_response': 'left', 'condition': 'go'}, {'fileName': 'squareblack.png', 'correct_response': 'right', 'condition': 'go'}, {'fileName': 'squareblack.png', 'correct_response': 'right', 'condition': 'go'}, {'fileName': 'circleblack.png', 'correct_response': 'left', 'condition': 'go'}, {'fileName': 'squareblack.png', 'correct_response': 'right', 'condition': 'go'}, {'fileName': 'circleblack.png', 'correct_response': 'left', 'condition': 'go'}, {'fileName': 'circleblack.png', 'correct_response': 'left', 'condition': 'go'}, {'fileName': 'circleblack.png', 'correct_response': 'left', 'condition': 'stop'}, {'fileName': 'squareblack.png', 'correct_response': 'right', 'condition': 'stop'}, {'fileName': 'squareblack.png', 'correct_response': 'right', 'condition': 'go'}, {'fileName': 'squareblack.png', 'correct_response': 'right', 'condition': 'go'}, {'fileName': 'squareblack.png', 'correct_response': 'right', 'condition': 'go'}, {'fileName': 'circleblack.png', 'correct_response': 'left', 'condition': 'go'}, {'fileName': 'squareblack.png', 'correct_response': 'right', 'condition': 'stop'}, {'fileName': 'circleblack.png', 'correct_response': 'left', 'condition': 'stop'}, {'fileName': 'squareblack.png', 'correct_response': 'right', 'condition': 'go'}, {'fileName': 'squareblack.png', 'correct_response': 'right', 'condition': 'stop'}, {'fileName': 'circleblack.png', 'correct_response': 'left', 'condition': 'stop'}, {'fileName': 'circleblack.png', 'correct_response': 'left', 'condition': 'go'}, {'fileName': 'squareblack.png', 'correct_response': 'right', 'condition': 'go'}, {'fileName': 'circleblack.png', 'correct_response': 'left', 'condition': 'go'}, {'fileName': 'circleblack.png', 'correct_response': 'left', 'condition': 'go'}]",,,,,,s12,001,2024-07-18_17h26.15.698,simplestop_skeleton,2022.2.2,59.998545830923405,
None,None,,,,,,,,,2,0,2,0,0,0,0,1,,,,,,,,,1410.3440391384065,go,circleblack.png,left,0.45,,,,,,,,,,,,,,,,,,0.0027612075209617615,0.4895283132791519,,1412.8476766496897,test,3,,,,,,,1410.3654874973,1410.877231348306,1410.86063843593,1410.86063843593,1411.311204213649,1411.811860948801,1411.8617318086326,1412.867428086698,left,1,0.6069255210459232,0.45,,,,,,,,,,,s12,001,2024-07-18_17h26.15.698,simplestop_skeleton,2022.2.2,59.998545830923405,
None,None,,,,,,,,,2,0,2,0,0,1,1,1,,,,,,,,,1412.8482162766159,stop,squareblack.png,right,0.45,,,,,,,,,,,,,,,,,,0.0029284656047821045,0.4895898476243019,0.940214142203331,1415.3506654314697,test,3,,,,,,,1412.867428086698,1413.3802147433162,1413.3634966127574,1413.3634966127574,1413.8140564449131,1414.3141538985074,1414.363924626261,1415.3695816919208,right,1,0.3820675052702427,0.4,,,,,,,,,,,s12,001,2024-07-18_17h26.15.698,simplestop_skeleton,2022.2.2,59.998545830923405,
None,None,,,,,,,,,2,0,2,0,0,2,2,3,,,,,,,,,1415.3510978370905,go,squareblack.png,right,0.4,,,,,,,,,,,,,,,,,,0.0013938657939434052,0.48940474167466164,,1417.8531407006085,test,3,,,,,,,1415.3695816919208,1415.882985547185,1415.8662898354232,1415.8662898354232,1416.2669131830335,1416.7673232890666,1416.8663664832711,1417.87814431265,right,1,0.6781303770840168,0.4,,,,,,,,,,,s12,001,2024-07-18_17h26.15.698,simplestop_skeleton,2022.2.2,59.998545830923405,
None,None,,,,,,,,,2,0,2,0,0,3,3,2,,,,,,,,,1417.8535978011787,stop,circleblack.png,left,0.4,,,,,,,,,,,,,,,,,,0.008316095918416977,0.4893454797565937,0.8900229036808014,1420.3559531792998,test,3,,,,,,,1417.87814431265,1418.3856191076338,1418.3694656528533,1418.3694656528533,1418.7696430273354,1419.2686151005328,1419.3687381967902,1420.3753345049918,left,1,0.5826245695352554,0.35,,,,,,,,,,,s12,001,2024-07-18_17h26.15.698,simplestop_skeleton,2022.2.2,59.998545830923405,
None,None,,,,,,,,,2,0,2,0,1,0,4,1,,,,,,,,,1420.356388323009,stop,squareblack.png,right,0.35,,,,,,,,,,,,,,,,,,0.0019090063869953156,0.48959169909358025,0.8402857221662998,1422.858920879662,test,3,,,,,,,1420.3753345049918,1420.888733804226,1420.8717715367675,1420.8717715367675,1421.2221836298704,1421.7228427380323,1421.8730210624635,1422.8785170689225,None,0,,0.4,,,,,,,,,,,s12,001,2024-07-18_17h26.15.698,simplestop_skeleton,2022.2.2,59.998545830923405,
None,None,,,,,,,,,2,0,2,0,1,1,5,3,,,,,,,,,1422.8593578785658,go,circleblack.png,left,0.4,,,,,,,,,,,,,,,,,,0.00262252613902092,0.489371370524168,,1425.3612526617944,test,3,,,,,,,1422.8785170689225,1423.3912603370845,1423.3747805021703,1423.3747805021703,1423.7748671211302,1424.2754297703505,1424.3742801994085,1425.3801741339266,left,1,0.7009237594902515,0.4,,,,,,,,,,,s12,001,2024-07-18_17h26.15.698,simplestop_skeleton,2022.2.2,59.998545830923405,
None,None,,,,,,,,,2,0,2,0,1,2,6,3,,,,,,,,,1425.3616872020066,stop,circleblack.png,left,0.4,,,,,,,,,,,,,,,,,,0.0014248639345169067,0.4899965338408947,0.8904826454818249,1427.8638730086386,test,3,,,,,,,1425.3801741339266,1425.8941610604525,1425.8774737752974,1425.8774737752974,1426.2777350209653,1426.778247050941,1426.8783654347062,1427.8814584687352,None,0,,0.45,,,,,,,,,,,s12,001,2024-07-18_17h26.15.698,simplestop_skeleton,2022.2.2,59.998545830923405,
$currentCorrectResponse,$currentGoStim,,,,,,,,,2,0,2,0,1,3,7,0,,,,,,,,,1427.8642978668213,go,circleblack.png,left,0.45,,,,,,,,,,,,,,,,,,0.0012664608657360077,0.48989343643188477,,1430.366877682507,test,3,,,,,,,1427.8814584687352,1428.3966477774084,1428.380296073854,1428.380296073854,1428.8304877392948,1429.3311595842242,1429.3802499584854,1430.3862294219434,left,1,0.6937417909502983,0.45,,,,,,,,,,,s12,001,2024-07-18_17h26.15.698,simplestop_skeleton,2022.2.2,59.998545830923405,
$currentCorrectResponse,$currentGoStim,,,,,,,,,2,0,2,0,2,0,8,0,,,,,,,,,1430.3673308379948,go,squareblack.png,right,0.45,,,,,,,,,,,,,,,,,,0.0018079839646816254,0.4896032400429249,,1432.869422763586,test,3,,,,,,,1430.3862294219434,1430.8993791677058,1430.8827783241868,1430.8827783241868,1431.3333821035922,1431.8337888941169,1431.8838749788702,1432.8881292119622,right,1,0.7886813618242741,0.45,,,,,,,,,,,s12,001,2024-07-18_17h26.15.698,simplestop_skeleton,2022.2.2,59.998545830923405,
None,None,,,,,,,,,2,0,2,0,2,1,9,3,,,,,,,,,1432.8698642887175,go,squareblack.png,right,0.45,,,,,,,,,,,,,,,,,,0.0011790990829467773,0.4899821765720844,,1435.3721919693053,test,3,,,,,,,1432.8881292119622,1433.4022472836077,1433.385530114174,1433.385530114174,1433.8361612446606,1434.3366892263293,1434.3865844458342,1435.3918469846249,right,1,0.7824864834547043,0.45,,,,,,,,,,,s12,001,2024-07-18_17h26.15.698,simplestop_skeleton,2022.2.2,59.998545830923405,
None,None,,,,,,,,,2,0,2,0,2,2,10,2,,,,,,,,,1435.372624386102,go,circleblack.png,left,0.45,,,,,,,,,,,,,,,,,,0.001963745802640915,0.4885074235498905,,1437.8751209527254,test,3,,,,,,,1435.3918469846249,1435.9034976363182,1435.8867850638926,1435.8867850638926,1436.33937619254,1436.8396329507232,1436.8896622881293,1437.8940170407295,left,1,0.670657966285944,0.45,,,,,,,,,,,s12,001,2024-07-18_17h26.15.698,simplestop_skeleton,2022.2.2,59.998545830923405,
None,None,,,,,,,,,2,0,2,0,2,3,11,3,,,,,,,,,1437.8755494058132,go,squareblack.png,right,0.45,,,,,,,,,,,,,,,,,,0.0016537755727767944,0.48981480672955513,,1440.377732474357,test,3,,,,,,,1437.8940170407295,1438.4075502306223,1438.3910863362253,1438.3910863362253,1438.8418300151825,1439.3407983221114,1439.3906635046005,1440.3973630219698,right,1,0.6567517928779125,0.45,,,,,,,,,,,s12,001,2024-07-18_17h26.15.698,simplestop_skeleton,2022.2.2,59.998545830923405,
None,None,,,,,,,,,2,0,2,0,3,0,12,3,,,,,,,,,1440.3781730346382,go,circleblack.png,left,0.45,,,,,,,,,,,,,,,,,,0.0020015425980091095,0.48960186913609505,,1442.8808639347553,test,3,,,,,,,1440.3973630219698,1440.9106648340821,1440.8937232084572,1440.8937232084572,1441.3448436409235,1441.845034185797,1441.894903447479,1442.9004284702241,left,1,0.6796539947390556,0.45,,,,,,,,,,,s12,001,2024-07-18_17h26.15.698,simplestop_skeleton,2022.2.2,59.998545830923405,
None,None,,,,,,,,,2,0,2,0,3,1,13,1,,,,,,,,,1442.881303716451,stop,squareblack.png,right,0.45,,,,,,,,,,,,,,,,,,0.0017417222261428833,0.48956459388136864,0.9397508464753628,1445.383320234716,test,3,,,,,,,1442.9004284702241,1443.4133788011968,1443.3966462127864,1443.3966462127864,1443.8469339199364,1444.347743269056,1444.3978707008064,1445.4025673530996,None,0,,0.5,,,,,,,,,,,s12,001,2024-07-18_17h26.15.698,simplestop_skeleton,2022.2.2,59.998545830923405,
None,None,,,,,,,,,2,0,2,0,3,2,14,3,,,,,,,,,1445.383760418743,go,squareblack.png,right,0.5,,,,,,,,,,,,,,,,,,0.001278158277273178,0.4898119568824768,,1447.885954003781,test,3,,,,,,,1445.4025673530996,1445.9162244014442,1445.8993923291564,1445.8993923291564,1446.400114748627,1446.900442585349,1446.900442585349,1447.9054305367172,right,1,0.7513591162860394,0.5,,,,,,,,,,,s12,001,2024-07-18_17h26.15.698,simplestop_skeleton,2022.2.2,59.998545830923405,
None,None,,,,,,,,,2,0,2,0,3,3,15,3,,,,,,,,,1447.8863832503557,go,circleblack.png,left,0.5,,,,,,,,,,,,,,,,,,0.0019175894558429718,0.48984216153621674,,1450.3890602737665,test,3,,,,,,,1447.9054305367172,1448.4189368747175,1448.4020235165954,1448.4020235165954,1448.9027162753046,1449.401916783303,1449.401916783303,1450.4077083542943,left,1,0.7056177370250225,0.5,,,,,,,,,,,s12,001,2024-07-18_17h26.15.698,simplestop_skeleton,2022.2.2,59.998545830923405,
None,None,,,,,,,,,2,0,2,0,4,0,16,2,,,,,,,,,1450.3894884176552,stop,circleblack.png,left,0.5,,,,,,,,,,,,,,,,,,0.001383606344461441,0.4897262826561928,0.9900372996926308,1452.8916777446866,test,3,,,,,,,1450.4077083542943,1450.9215192981064,1450.904849279672,1450.904849279672,1451.4054671414196,1451.9058826677501,1451.9058826677501,1452.9107734262943,None,0,,0.55,,,,,,,,,,,s12,001,2024-07-18_17h26.15.698,simplestop_skeleton,2022.2.2,59.998545830923405,
None,None,,,,,,,,,2,0,2,0,4,1,17,1,,,,,,,,,1452.8921129778028,go,squareblack.png,right,0.55,,,,,,,,,,,,,,,,,,0.0016734972596168518,0.4899466149508953,,1455.3941465876997,test,3,,,,,,,1452.9107734262943,1453.4241620488465,1453.4075490012765,1453.4075490012765,1453.9581052996218,1454.4573111124337,1454.4072403721511,1455.4134159646928,right,1,0.6271121501922607,0.55,,,,,,,,,,,s12,001,2024-07-18_17h26.15.698,simplestop_skeleton,2022.2.2,59.998545830923405,
None,None,,,,,,,,,2,0,2,0,4,2,18,3,,,,,,,,,1455.394576586783,stop,circleblack.png,left,0.55,,,,,,,,,,,,,,,,,,0.0017504282295703888,0.489981222897768,1.040523611009121,1457.89729854092,test,3,,,,,,,1455.4134159646928,1455.9270116612315,1455.9104786366224,1455.9104786366224,1456.4609676785767,1456.9619089476764,1456.911719378084,1457.9164469130337,None,0,,0.6,,,,,,,,,,,s12,001,2024-07-18_17h26.15.698,simplestop_skeleton,2022.2.2,59.998545830923405,
None,None,,,,,,,,,2,0,2,0,4,3,19,2,,,,,,,,,1457.8977240622044,go,circleblack.png,left,0.6,,,,,,,,,,,,,,,,,,0.001378532499074936,0.4897330701351166,,1460.3999637290835,test,3,,,,,,,1457.9164469130337,1458.4301857948303,1458.4133413657546,1458.4133413657546,1459.0140108428895,1459.529586892575,1459.4128869697452,1460.4194506704807,left,1,0.6299455538392067,0.6,,,,,,,,,,,s12,001,2024-07-18_17h26.15.698,simplestop_skeleton,2022.2.2,59.998545830923405,
$currentCorrectResponse,$currentGoStim,,,,,,,,,2,0,2,0,5,0,20,0,,,,,,,,,1460.400395322591,go,squareblack.png,right,0.6,,,,,,,,,,,,,,,,,,0.0018644928932189941,0.4895189665257931,,1462.9027772322297,test,3,,,,,,,1460.4194506704807,1460.93259530887,1460.915977500379,1460.915977500379,1461.5168573185802,1462.0323076210916,1461.9162570014596,1462.9214718341827,right,1,0.6854409240186214,0.6,,,,,,,,,,,s12,001,2024-07-18_17h26.15.698,simplestop_skeleton,2022.2.2,59.998545830923405,
$currentCorrectResponse,$currentGoStim,,,,,,,,,2,0,2,0,5,1,21,0,,,,,,,,,1462.903283327818,go,squareblack.png,right,0.6,,,,,,,,,,,,,,,,,,0.0012652836740016937,0.4895990788936615,,1465.4055781774223,test,3,,,,,,,1462.9214718341827,1463.4353492446244,1463.4187666215003,1463.4187666215003,1464.0178410746157,1464.5199970565736,1464.4189332723618,1465.425121203065,right,1,0.6721970178186893,0.6,,,,,,,,,,,s12,001,2024-07-18_17h26.15.698,simplestop_skeleton,2022.2.2,59.998545830923405,
None,None,,,,,,,,,2,0,2,0,5,2,22,3,,,,,,,,,1465.4060105159879,go,circleblack.png,left,0.6,,,,,,,,,,,,,,,,,,0.0019136406481266022,0.48805687204003334,,1467.9080148339272,test,3,,,,,,,1465.425121203065,1465.9366232827306,1465.9199424535036,1465.9199424535036,1466.5224437601864,1467.0227952636778,1466.9224881865084,1467.9272051230073,left,1,0.6998340040445328,0.6,,,,,,,,,,,s12,001,2024-07-18_17h26.15.698,simplestop_skeleton,2022.2.2,59.998545830923405,
None,None,,,,,,,,,2,0,2,0,5,3,23,1,,,,,,,,,1467.908439077437,stop,squareblack.png,right,0.6,,,,,,,,,,,,,,,,,,0.0016855783760547638,0.4900401942431927,1.090534444898367,1470.4109469279647,test,3,,,,,,,1467.9272051230073,1468.4408500306308,1468.4240200221539,1468.4240200221539,1469.0248429775238,1469.5253997929394,1469.4250333942473,1470.4305120110512,None,0,,0.65,,,,,,,,,,,s12,001,2024-07-18_17h26.15.698,simplestop_skeleton,2022.2.2,59.998545830923405,
$currentCorrectResponse,$currentGoStim,,,,,,,,,2,0,2,0,6,0,24,0,,,,,,,,,1470.411397702992,stop,squareblack.png,right,0.65,,,,,,,,,,,,,,,,,,0.0013399720191955566,0.4877987615764141,1.1400042660534382,1472.9139147810638,test,3,,,,,,,1470.4305120110512,1470.9421943351626,1470.925387121737,1470.925387121737,1471.5776692032814,1472.0786318145692,1471.928371168673,1472.9331665076315,None,0,,0.7,,,,,,,,,,,s12,001,2024-07-18_17h26.15.698,simplestop_skeleton,2022.2.2,59.998545830923405,
None,None,,,,,,,,,2,0,2,0,6,1,25,3,,,,,,,,,1472.9143428429961,stop,circleblack.png,left,0.7,,,,,,,,,,,,,,,,,,0.001883484423160553,0.48991623148322105,1.190535508096218,1475.4163835644722,test,3,,,,,,,1472.9331665076315,1473.446435071528,1473.4300193861127,1473.4300193861127,1474.130982670933,1474.646995190531,1474.4296367019415,1475.4352242983878,left,1,0.6952906139194965,0.65,,,,,,,,,,,s12,001,2024-07-18_17h26.15.698,simplestop_skeleton,2022.2.2,59.998545830923405,
$currentCorrectResponse,$currentGoStim,,,,,,,,,2,0,2,0,6,2,26,0,,,,,,,,,1475.4168180897832,go,circleblack.png,left,0.65,,,,,,,,,,,,,,,,,,0.001448351889848709,0.48963382467627525,,1477.919533379376,test,3,,,,,,,1475.4352242983878,1475.9497210271657,1475.9324399083853,1475.9324399083853,1476.583278607577,1477.0822565704584,1476.9338185489178,1477.9389005824924,left,1,0.7902246043086052,0.65,,,,,,,,,,,s12,001,2024-07-18_17h26.15.698,simplestop_skeleton,2022.2.2,59.998545830923405,
None,None,,,,,,,,,2,0,2,0,6,3,27,2,,,,,,,,,1477.919975206256,go,squareblack.png,right,0.65,,,,,,,,,,,,,,,,,,0.001696079969406128,0.4893418774008751,,1480.4224161095917,test,3,,,,,,,1477.9389005824924,1478.451867353171,1478.4350890405476,1478.4350890405476,1479.086178880185,1479.6017866954207,1479.436352495104,1480.440998595208,right,1,0.7391357310116291,0.65,,,,,,,,,,,s12,001,2024-07-18_17h26.15.698,simplestop_skeleton,2022.2.2,59.998545830923405,
None,None,,,,,,,,,2,0,2,0,7,0,28,2,,,,,,,,,1480.422866344452,go,squareblack.png,right,0.65,,,,,,,,,,,,,,,,,,0.0012821927666664124,0.4893803894519806,,1482.9245403893292,test,3,,,,,,,1480.440998595208,1480.9546581283212,1480.9381626583636,1480.9381626583636,1481.588840123266,1482.087833456695,1481.9376651458442,1482.9439662732184,right,1,0.6348985098302364,0.65,,,,,,,,,,,s12,001,2024-07-18_17h26.15.698,simplestop_skeleton,2022.2.2,59.998545830923405,
None,None,,,,,,,,,2,0,2,0,7,1,29,1,,,,,,,,,1482.9250408932567,go,circleblack.png,left,0.65,,,,,,,,,,,,,,,,,,0.0018508918583393097,0.4894690290093422,,1485.4274890907109,test,3,,,,,,,1482.9439662732184,1483.4574841074646,1483.4406945221126,1483.4406945221126,1484.0912806615233,1484.5906059667468,1484.4423059821129,1485.446658771485,left,1,0.7060158103704453,0.65,,,,,,,,,,,s12,001,2024-07-18_17h26.15.698,simplestop_skeleton,2022.2.2,59.998545830923405,
None,None,,,,,,,,,2,0,2,0,7,2,30,1,,,,,,,,,1485.4279268532991,go,squareblack.png,right,0.65,,,,,,,,,,,,,,,,,,0.00179247185587883,0.4897534139454365,,1487.9303900115192,test,3,,,,,,,1485.446658771485,1485.960020866245,1485.9434606172144,1485.9434606172144,1486.5942804291844,1487.0933656953275,1486.9447132498026,1487.9495051763952,right,1,0.7743424624204636,0.65,,,,,,,,,,,s12,001,2024-07-18_17h26.15.698,simplestop_skeleton,2022.2.2,59.998545830923405,
None,None,,,,,,,,,2,0,2,0,7,3,31,2,,,,,,,,,1487.93081497401,go,circleblack.png,left,0.65,,,,,,,,,,,,,,,,,,0.0017450004816055298,0.4898236058652401,,1490.4331916607916,test,3,,,,,,,1487.9495051763952,1488.4630014933646,1488.446295823902,1488.446295823902,1489.0969983637333,1489.5961909368634,1489.4473363757133,1490.4523605145514,left,1,0.7319059260189533,0.65,,,,,,,,,,,s12,001,2024-07-18_17h26.15.698,simplestop_skeleton,2022.2.2,59.998545830923405,
None,None,,,,,,,,,2,0,2,0,8,0,32,1,,,,,,,,,1490.433637842536,go,circleblack.png,left,0.65,,,,,,,,,,,,,,,,,,0.0013485103845596313,0.48951368406414986,,1492.9357470273972,test,3,,,,,,,1490.4523605145514,1490.966243840754,1490.948975685984,1490.948975685984,1491.5996059551835,1492.0988381318748,1491.9500351399183,1492.954830814153,left,1,0.8567009307444096,0.65,,,,,,,,,,,s12,001,2024-07-18_17h26.15.698,simplestop_skeleton,2022.2.2,59.998545830923405,
None,None,,,,,,,,,2,0,2,0,8,1,33,3,,,,,,,,,1492.9361869432032,stop,circleblack.png,left,0.65,,,,,,,,,,,,,,,,,,0.0014783293008804321,0.48945415019989014,1.140549898147583,1495.4383596926928,test,3,,,,,,,1492.954830814153,1493.4684538468719,1493.4517212547362,1493.4517212547362,1494.102357931435,1494.6029936522245,1494.4530121013522,1495.457291930914,None,0,,0.7,,,,,,,,,,,s12,001,2024-07-18_17h26.15.698,simplestop_skeleton,2022.2.2,59.998545830923405,
None,None,,,,,,,,,2,0,2,0,8,2,34,2,,,,,,,,,1495.4387988485396,stop,squareblack.png,right,0.7,,,,,,,,,,,,,,,,,,0.0018196292221546173,0.48862243816256523,1.190854039043188,1497.9415838308632,test,3,,,,,,,1495.457291930914,1495.969587597996,1495.95299468562,1495.95299468562,1496.6553275547922,1497.155897911638,1496.9555482119322,1497.9606004580855,right,1,0.7614795677363873,0.65,,,,,,,,,,,s12,001,2024-07-18_17h26.15.698,simplestop_skeleton,2022.2.2,59.998545830923405,
None,None,,,,,,,,,2,0,2,0,8,3,35,2,,,,,,,,,1497.9420145265758,go,squareblack.png,right,0.65,,,,,,,,,,,,,,,,,,0.0012986399233341217,0.4894579313695431,,1500.444095954299,test,3,,,,,,,1497.9606004580855,1498.4744558818638,1498.4574695453048,1498.4574695453048,1499.1080681756139,1499.6072032228112,1499.4583934694529,1500.4629242494702,right,1,0.7850752808153629,0.65,,,,,,,,,,,s12,001,2024-07-18_17h26.15.698,simplestop_skeleton,2022.2.2,59.998545830923405,
None,None,,,,,,,,,2,0,2,0,9,0,36,2,,,,,,,,,1500.4445223808289,go,squareblack.png,right,0.65,,,,,,,,,,,,,,,,,,0.0013392679393291473,0.4896143935620785,,1502.9468966424465,test,3,,,,,,,1500.4629242494702,1500.9769295454025,1500.96022727713,1500.96022727713,1501.6102822758257,1502.1112959384918,1501.9612853080034,1502.9659018926322,right,1,0.7201140895485878,0.65,,,,,,,,,,,s12,001,2024-07-18_17h26.15.698,simplestop_skeleton,2022.2.2,59.998545830923405,
None,None,,,,,,,,,2,0,2,0,9,1,37,1,,,,,,,,,1502.9473374262452,go,squareblack.png,right,0.65,,,,,,,,,,,,,,,,,,0.0013850927352905273,0.48960431665182114,,1505.4494921974838,test,3,,,,,,,1502.9659018926322,1503.479587290436,1503.4628946892917,1503.4628946892917,1504.1135149635375,1504.61293066293,1504.4626105055213,1505.4746930226684,right,1,0.9047572575509548,0.65,,,,,,,,,,,s12,001,2024-07-18_17h26.15.698,simplestop_skeleton,2022.2.2,59.998545830923405,
$currentCorrectResponse,$currentGoStim,,,,,,,,,2,0,2,0,9,2,38,0,,,,,,,,,1505.4499359875917,go,circleblack.png,left,0.65,,,,,,,,,,,,,,,,,,0.008558560162782669,0.48992129415273666,,1507.9524797908962,test,3,,,,,,,1505.4746930226684,1505.9824235588312,1505.965859491378,1505.965859491378,1506.616275563836,1507.116097394377,1506.9667406119406,1507.9718340039253,left,1,0.8442580327391624,0.65,,,,,,,,,,,s12,001,2024-07-18_17h26.15.698,simplestop_skeleton,2022.2.2,59.998545830923405,
$currentCorrectResponse,$currentGoStim,,,,,,,,,2,0,2,0,9,3,39,0,,,,,,,,,1507.9529151283205,stop,squareblack.png,right,0.65,,,,,,,,,,,,,,,,,,0.0018091723322868347,0.4894963465631008,1.1404974386096,1510.4550549723208,test,3,,,,,,,1507.9718340039253,1508.4852160736918,1508.4682910181582,1508.4682910181582,1509.1191876418889,1509.6349617764354,1509.4686473309994,1510.4744733087718,right,1,0.6815948188304901,0.6,,,,,,,,,,,s12,001,2024-07-18_17h26.15.698,simplestop_skeleton,2022.2.2,59.998545830923405,
$currentCorrectResponse,$currentGoStim,,,,,,,,,2,0,2,0,10,0,40,0,,,,,,,,,1510.4554814957082,stop,circleblack.png,left,0.6,,,,,,,,,,,,,,,,,,0.0017719492316246033,0.48996323719620705,1.0906891971826553,1512.9576380737126,test,3,,,,,,,1510.4744733087718,1510.9878247343004,1510.9710333794355,1510.9710333794355,1511.5718602128327,1512.0875963270664,1511.9713134467602,1512.9769148044288,left,1,0.6849752813577652,0.55,,,,,,,,,,,s12,001,2024-07-18_17h26.15.698,simplestop_skeleton,2022.2.2,59.998545830923405,
$currentCorrectResponse,$currentGoStim,,,,,,,,,2,0,2,0,10,1,41,0,,,,,,,,,1512.9580629244447,go,squareblack.png,right,0.55,,,,,,,,,,,,,,,,,,0.0016348324716091156,0.4898996092379093,,1515.4608195386827,test,3,,,,,,,1512.9769148044288,1513.4905342832208,1513.4738974794745,1513.4738974794745,1514.0245423056185,1514.5254444777966,1514.4752346798778,1515.4796174168587,right,1,0.8427792564034462,0.55,,,,,,,,,,,s12,001,2024-07-18_17h26.15.698,simplestop_skeleton,2022.2.2,59.998545830923405,
None,None,,,,,,,,,2,0,2,0,10,2,42,1,,,,,,,,,1515.461257353425,stop,squareblack.png,right,0.55,,,,,,,,,,,,,,,,,,0.0013073049485683441,0.48972370848059654,1.0401122197508812,1517.963552325964,test,3,,,,,,,1515.4796174168587,1515.9933088496327,1515.9766209200025,1515.9766209200025,1516.5272551551461,1517.027764417231,1516.9782304279506,1517.982640311122,None,0,,0.6,,,,,,,,,,,s12,001,2024-07-18_17h26.15.698,simplestop_skeleton,2022.2.2,59.998545830923405,
None,None,,,,,,,,,2,0,2,0,10,3,43,2,,,,,,,,,1517.9640564471483,stop,circleblack.png,left,0.6,,,,,,,,,,,,,,,,,,0.0016631558537483215,0.4896552078425884,1.0906748548150063,1520.4664018042386,test,3,,,,,,,1517.982640311122,1518.4961554519832,1518.4797306545079,1518.4797306545079,1519.0802194736898,1519.5808716192842,1519.480567831546,1520.4856437332928,None,0,,0.65,,,,,,,,,,,s12,001,2024-07-18_17h26.15.698,simplestop_skeleton,2022.2.2,59.998545830923405,
None,None,,,,,,,,,2,0,2,0,11,0,44,2,,,,,,,,,1520.4668428190053,go,circleblack.png,left,0.65,,,,,,,,,,,,,,,,,,0.0014460012316703796,0.4893840402364731,,1522.9692587293684,test,3,,,,,,,1520.4856437332928,1520.9990441426635,1520.9822348989546,1520.9822348989546,1521.6327068507671,1522.133495926857,1521.9831988923252,1522.989070430398,left,1,1.0688824206590652,0.65,,,,,,,,,,,s12,001,2024-07-18_17h26.15.698,simplestop_skeleton,2022.2.2,59.998545830923405,
None,None,,,,,,,,,2,0,2,0,11,1,45,1,,,,,,,,,1522.9696973375976,go,squareblack.png,right,0.65,,,,,,,,,,,,,,,,,,0.002530507743358612,0.48885804042220116,,1525.4715818278491,test,3,,,,,,,1522.989070430398,1523.5015483498573,1523.4848845228553,1523.4848845228553,1524.1355203092098,1524.6358169578016,1524.4845361113548,1525.4907113686204,right,1,0.511928666383028,0.65,,,,,,,,,,,s12,001,2024-07-18_17h26.15.698,simplestop_skeleton,2022.2.2,59.998545830923405,
$currentCorrectResponse,$currentGoStim,,,,,,,,,2,0,2,0,11,2,46,0,,,,,,,,,1525.4720192030072,go,circleblack.png,left,0.65,,,,,,,,,,,,,,,,,,0.0018176846206188202,0.4881758317351341,,1527.9746559299529,test,3,,,,,,,1525.4907113686204,1526.0028467029333,1525.9862265214324,1525.9862265214324,1526.638624344021,1527.138938780874,1526.9890833497047,1527.9936823807657,left,1,0.6111856624484062,0.65,,,,,,,,,,,s12,001,2024-07-18_17h26.15.698,simplestop_skeleton,2022.2.2,59.998545830923405,
$currentCorrectResponse,$currentGoStim,,,,,,,,,2,0,2,0,11,3,47,0,,,,,,,,,1527.9750988334417,go,circleblack.png,left,0.65,,,,,,,,,,,,,,,,,,0.0014278404414653778,0.48962944373488426,,1530.4771542996168,test,3,,,,,,,1527.9936823807657,1528.5071560367942,1528.4903989098966,1528.4903989098966,1529.1411785334349,1529.6414252370596,1529.4907070696354,1530.4926841072738,left,1,0.4468733035027981,0.65,,,,,,,,,,,s12,001,2024-07-18_17h26.15.698,simplestop_skeleton,2022.2.2,59.998545830923405,
