corrGoResp,shape,practiceBlocks.thisRepN,practiceBlocks.thisTrialN,practiceBlocks.thisN,practiceBlocks.thisIndex,practiceTrials.thisRepN,practiceTrials.thisTrialN,practiceTrials.thisN,practiceTrials.thisIndex,stopBlocks.thisRepN,stopBlocks.thisTrialN,stopBlocks.thisN,stopBlocks.thisIndex,testTrials.thisRepN,testTrials.thisTrialN,testTrials.thisN,testTrials.thisIndex,stopPracTrialList,Test Block: 1,welcome.started,start_exp.started,start_exp.keys,start_exp.rt,instrStopText.started,start_prac.started,StartTrialTimeStamp,trialType,goStim,correctResponse,ssd,fixation.started,rules.started,goStim.started,goResp.started,fixation.stopped,stopSignal.started,stopSignal.stopped,goStim.stopped,goResp.stopped,rules.stopped,goResp.keys,goResp.corr,goResp.rt,text.started,rules_2.started,fixationOnset,goStimOnset,stopSignalOnset,EndTrialTimeStamp,Phase,Block,text.stopped,rules_2.stopped,text_5.started,key_resp_3.started,key_resp_3.keys,key_resp_3.rt,key_resp.started,testText.started,test_fixation.started,goStim_test.started,goResp_test.started,test_fixation.stopped,stopSignal_test.started,stopSignal_test.stopped,goStim_test.stopped,goResp_test.stopped,goResp_test.keys,goResp_test.corr,goResp_test.rt,EndingSSD,text_6.started,key_resp_4.started,key_resp_4.keys,key_resp_4.rt,Test Block: 2,Test Block: 3,ending_text.started,end_resp.started,end_resp.keys,end_resp.rt,participant,session,date,expName,psychopyVersion,frameRate,
,,,,,,,,,,,,,,,,,,"[{'fileName': 'squareblack.png', 'correct_response': 'right', 'condition': 'stop'}, {'fileName': 'squareblack.png', 'correct_response': 'right', 'condition': 'go'}, {'fileName': 'circleblack.png', 'correct_response': 'left', 'condition': 'go'}, {'fileName': 'circleblack.png', 'correct_response': 'left', 'condition': 'go'}, {'fileName': 'circleblack.png', 'correct_response': 'left', 'condition': 'go'}, {'fileName': 'squareblack.png', 'correct_response': 'right', 'condition': 'go'}, {'fileName': 'circleblack.png', 'correct_response': 'left', 'condition': 'go'}, {'fileName': 'squareblack.png', 'correct_response': 'right', 'condition': 'stop'}, {'fileName': 'circleblack.png', 'correct_response': 'left', 'condition': 'stop'}, {'fileName': 'circleblack.png', 'correct_response': 'left', 'condition': 'stop'}, {'fileName': 'squareblack.png', 'correct_response': 'right', 'condition': 'go'}, {'fileName': 'squareblack.png', 'correct_response': 'right', 'condition': 'go'}, {'fileName': 'squareblack.png', 'correct_response': 'right', 'condition': 'go'}, {'fileName': 'circleblack.png', 'correct_response': 'left', 'condition': 'go'}, {'fileName': 'circleblack.png', 'correct_response': 'left', 'condition': 'stop'}, {'fileName': 'circleblack.png', 'correct_response': 'left', 'condition': 'stop'}, {'fileName': 'circleblack.png', 'correct_response': 'left', 'condition': 'go'}, {'fileName': 'squareblack.png', 'correct_response': 'right', 'condition': 'stop'}, {'fileName': 'circleblack.png', 'correct_response': 'left', 'condition': 'go'}, {'fileName': 'squareblack.png', 'correct_response': 'right', 'condition': 'stop'}, {'fileName': 'squareblack.png', 'correct_response': 'right', 'condition': 'go'}, {'fileName': 'squareblack.png', 'correct_response': 'right', 'condition': 'go'}, {'fileName': 'squareblack.png', 'correct_response': 'right', 'condition': 'go'}, {'fileName': 'circleblack.png', 'correct_response': 'left', 'condition': 'go'}]","[{'fileName': 'circleblack.png', 'correct_response': 'left', 'condition': 'go'}, {'fileName': 'squareblack.png', 'correct_response': 'right', 'condition': 'stop'}, {'fileName': 'squareblack.png', 'correct_response': 'right', 'condition': 'go'}, {'fileName': 'circleblack.png', 'correct_response': 'left', 'condition': 'stop'}, {'fileName': 'circleblack.png', 'correct_response': 'left', 'condition': 'stop'}, {'fileName': 'squareblack.png', 'correct_response': 'right', 'condition': 'go'}, {'fileName': 'squareblack.png', 'correct_response': 'right', 'condition': 'go'}, {'fileName': 'squareblack.png', 'correct_response': 'right', 'condition': 'stop'}, {'fileName': 'circleblack.png', 'correct_response': 'left', 'condition': 'go'}, {'fileName': 'circleblack.png', 'correct_response': 'left', 'condition': 'go'}, {'fileName': 'circleblack.png', 'correct_response': 'left', 'condition': 'go'}, {'fileName': 'squareblack.png', 'correct_response': 'right', 'condition': 'go'}, {'fileName': 'squareblack.png', 'correct_response': 'right', 'condition': 'go'}, {'fileName': 'squareblack.png', 'correct_response': 'right', 'condition': 'go'}, {'fileName': 'squareblack.png', 'correct_response': 'right', 'condition': 'stop'}, {'fileName': 'squareblack.png', 'correct_response': 'right', 'condition': 'go'}, {'fileName': 'squareblack.png', 'correct_response': 'right', 'condition': 'stop'}, {'fileName': 'circleblack.png', 'correct_response': 'left', 'condition': 'go'}, {'fileName': 'circleblack.png', 'correct_response': 'left', 'condition': 'go'}, {'fileName': 'circleblack.png', 'correct_response': 'left', 'condition': 'stop'}, {'fileName': 'circleblack.png', 'correct_response': 'left', 'condition': 'go'}, {'fileName': 'circleblack.png', 'correct_response': 'left', 'condition': 'go'}, {'fileName': 'circleblack.png', 'correct_response': 'left', 'condition': 'stop'}, {'fileName': 'squareblack.png', 'correct_response': 'right', 'condition': 'go'}, {'fileName': 'circleblack.png', 'correct_response': 'left', 'condition': 'go'}, {'fileName': 'squareblack.png', 'correct_response': 'right', 'condition': 'stop'}, {'fileName': 'squareblack.png', 'correct_response': 'right', 'condition': 'stop'}, {'fileName': 'circleblack.png', 'correct_response': 'left', 'condition': 'stop'}, {'fileName': 'circleblack.png', 'correct_response': 'left', 'condition': 'go'}, {'fileName': 'squareblack.png', 'correct_response': 'right', 'condition': 'go'}, {'fileName': 'squareblack.png', 'correct_response': 'right', 'condition': 'go'}, {'fileName': 'squareblack.png', 'correct_response': 'right', 'condition': 'go'}, {'fileName': 'circleblack.png', 'correct_response': 'left', 'condition': 'stop'}, {'fileName': 'circleblack.png', 'correct_response': 'left', 'condition': 'go'}, {'fileName': 'squareblack.png', 'correct_response': 'right', 'condition': 'go'}, {'fileName': 'circleblack.png', 'correct_response': 'left', 'condition': 'go'}, {'fileName': 'circleblack.png', 'correct_response': 'left', 'condition': 'go'}, {'fileName': 'squareblack.png', 'correct_response': 'right', 'condition': 'stop'}, {'fileName': 'squareblack.png', 'correct_response': 'right', 'condition': 'go'}, {'fileName': 'circleblack.png', 'correct_response': 'left', 'condition': 'stop'}, {'fileName': 'squareblack.png', 'correct_response': 'right', 'condition': 'go'}, {'fileName': 'circleblack.png', 'correct_response': 'left', 'condition': 'stop'}, {'fileName': 'squareblack.png', 'correct_response': 'right', 'condition': 'go'}, {'fileName': 'squareblack.png', 'correct_response': 'right', 'condition': 'go'}, {'fileName': 'circleblack.png', 'correct_response': 'left', 'condition': 'go'}, {'fileName': 'circleblack.png', 'correct_response': 'left', 'condition': 'go'}, {'fileName': 'squareblack.png', 'correct_response': 'right', 'condition': 'stop'}, {'fileName': 'circleblack.png', 'correct_response': 'left', 'condition': 'go'}]",1630.286913856864,1630.286913856864,return,2.3252621218562126,,,,,,,,,,,,,,,,,,,,,,,,,,,,,,,,,,,,,,,,,,,,,,,,,,,,,,,,,,,s042,001,2024-09-27_10h57.32.864,simplestop_skeleton,2022.2.2,59.855481038932496,
None,None,0,0,0,0,0,0,0,1,,,,,,,,,,,,,,,1632.6609066203237,1632.6609066203237,1686.9307750090957,stop,squareblack.png,right,0.35,1686.9522955417633,1686.9522955417633,1687.4465121999383,1687.4465121999383,1687.4632061645389,1687.797005340457,1688.2974264249206,1688.4476854652166,1689.4490173459053,1689.4670981392264,left,0,0.44150761514902115,1689.4670981392264,1689.4670981392264,0.0027692466974258423,0.4893408343195915,0.8396013081073761,1689.9667934551835,practice,1,,,,,,,,,,,,,,,,,,,,,,,,,,,,,,,s042,001,2024-09-27_10h57.32.864,simplestop_skeleton,2022.2.2,59.855481038932496,
None,None,0,0,0,0,0,1,1,1,,,,,,,,,,,,,,,,,1689.9674407839775,go,squareblack.png,right,0.3,1689.9865532442927,1689.9865532442927,1690.4832103550434,1690.4832103550434,1690.4998747333884,1690.7836441397667,1691.2994506061077,1691.4828890264034,1692.4844897389412,1692.500866547227,left,0,0.17362402379512787,1692.500866547227,1692.500866547227,0.0011787861585617065,0.48972896486520767,0.7902714088559151,1692.9866715818644,practice,1,,,,,,,,,,,,,,,,,,,,,,,,,,,,,,,s042,001,2024-09-27_10h57.32.864,simplestop_skeleton,2022.2.2,59.855481038932496,
None,None,0,0,0,0,0,2,2,3,,,,,,,,,,,,,,,,,1692.9870999753475,go,circleblack.png,left,0.3,1693.0090415552258,1693.0090415552258,1693.5030394047499,1693.5030394047499,1693.5199638083577,1693.8036820665002,1694.3041783571243,1694.5028107911348,1695.5039895027876,1695.5210500210524,left,1,1.072876662015915,1695.5210500210524,1695.5210500210524,0.004353083670139313,0.4901597276329994,0.7903222590684891,1696.005625128746,practice,1,1696.0370615199208,1696.0370615199208,,,,,,,,,,,,,,,,,,,,,,,,,,,,,s042,001,2024-09-27_10h57.32.864,simplestop_skeleton,2022.2.2,59.855481038932496,
None,None,0,0,0,0,0,3,3,2,,,,,,,,,,,,,,,,,1696.0060581490397,go,circleblack.png,left,0.3,1696.0370615199208,1696.0370615199208,1696.521905258298,1696.521905258298,1696.5386323407292,1696.8222102597356,1697.3227235600352,1697.5228003263474,1698.525637641549,1698.5419399812818,left,1,0.4219072386622429,1698.5419399812818,1698.5419399812818,0.0012348517775535583,0.49007463455200195,0.7902552634477615,1699.026890002191,practice,1,1699.046139523387,1699.046139523387,,,,,,,,,,,,,,,,,,,,,,,,,,,,,s042,001,2024-09-27_10h57.32.864,simplestop_skeleton,2022.2.2,59.855481038932496,
None,None,0,0,0,0,1,0,4,2,,,,,,,,,,,,,,,,,1699.0273115485907,go,circleblack.png,left,0.3,1699.046139523387,1699.046139523387,1699.5430848747492,1699.5430848747492,1699.5599319785833,1699.8435034826398,1700.3428443744779,1700.542847879231,1701.5439802780747,1701.5606062859297,left,1,0.4188918247818947,1701.5606062859297,1701.5606062859297,0.0011872276663780212,0.49007192999124527,0.7903734445571899,1702.0460818856955,practice,1,,,,,,,,,,,,,,,,,,,,,,,,,,,,,,,s042,001,2024-09-27_10h57.32.864,simplestop_skeleton,2022.2.2,59.855481038932496,
$currentCorrectResponse,$currentGoStim,0,0,0,0,1,1,5,0,,,,,,,,,,,,,,,,,1702.0465085729957,go,squareblack.png,right,0.3,1702.0711527094245,1702.0711527094245,1702.5632609724998,1702.5632609724998,1702.5799836739898,1702.8633089140058,1703.3629121035337,1703.5628098621964,1704.5639411509037,1704.5805961340666,right,1,0.5010073333978653,1704.5805961340666,1704.5805961340666,0.007462106645107269,0.49101056158542633,0.7909505143761635,1705.0662378817797,practice,1,,,,,,,,,,,,,,,,,,,,,,,,,,,,,,,s042,001,2024-09-27_10h57.32.864,simplestop_skeleton,2022.2.2,59.855481038932496,
None,None,0,0,0,0,1,2,6,1,,,,,,,,,,,,,,,,,1705.0666715726256,go,circleblack.png,left,0.3,1705.0843955352902,1705.0843955352902,1705.5832718759775,1705.5832718759775,1705.6001911312342,1705.8837238550186,1706.3993762806058,1706.5828792601824,1707.5840333625674,1707.5840333625674,left,1,0.34799911826848984,1707.5840333625674,1707.5840333625674,0.0018853992223739624,0.49084238708019257,0.7912459969520569,1708.070296779275,practice,1,,,,,,,,,,,,,,,,,,,,,,,,,,,,,,,s042,001,2024-09-27_10h57.32.864,simplestop_skeleton,2022.2.2,59.855481038932496,
None,None,0,0,0,0,1,3,7,1,,,,,,,,,,,,,,,,,1708.0707440301776,stop,squareblack.png,right,0.3,1708.0905062705278,1708.0905062705278,1708.5869698300958,1708.5869698300958,1708.6032795459032,1708.886886626482,1709.3880151063204,1709.5863126888871,1710.587234556675,1710.6039246320724,right,1,0.3857918679714203,1710.6039246320724,1710.6039246320724,0.0017694830894470215,0.4903580769896507,0.79036845266819,1711.089477777481,practice,1,,,,,,,,,,,,,,,,,,,,,,,,,,,,,,,s042,001,2024-09-27_10h57.32.864,simplestop_skeleton,2022.2.2,59.855481038932496,
None,None,0,0,0,0,2,0,8,1,,,,,,,,,,,,,,,,,1711.0899062529206,stop,circleblack.png,left,0.25,1711.1073037013412,1711.1073037013412,1711.6066083833575,1711.6066083833575,1711.6066083833575,1711.856742605567,1712.3559537827969,1712.6061421185732,1713.6072063967586,1713.6072063967586,left,1,0.3926619291305542,1713.6072063967586,1713.6072063967586,0.0017583519220352173,0.49085328727960587,0.74113480001688,1714.0929144844413,practice,1,,,,,,,,,,,,,,,,,,,,,,,,,,,,,,,s042,001,2024-09-27_10h57.32.864,simplestop_skeleton,2022.2.2,59.855481038932496,
$currentCorrectResponse,$currentGoStim,0,0,0,0,2,1,9,0,,,,,,,,,,,,,,,,,1714.093344680965,stop,circleblack.png,left,0.2,1714.1104876101017,1714.1104876101017,1714.6097154691815,1714.6097154691815,1714.6097154691815,1714.809956908226,1715.310579098761,1715.6110293194652,1716.612026937306,1716.612026937306,None,0,,1716.612026937306,1716.612026937306,0.001309908926486969,0.49047674238681793,0.6906179636716843,1717.0969332456589,practice,1,1717.1168914958835,1717.1168914958835,,,,,,,,,,,,,,,,,,,,,,,,,,,,,s042,001,2024-09-27_10h57.32.864,simplestop_skeleton,2022.2.2,59.855481038932496,
None,None,0,0,0,0,2,2,10,3,,,,,,,,,,,,,,,,,1717.097378090024,go,squareblack.png,right,0.25,1717.1168914958835,1717.1168914958835,1717.6133807897568,1717.6133807897568,1717.6299212798476,1717.8633622154593,1718.3640158250928,1718.6146846339107,1719.614105001092,1719.6308255568147,right,1,0.7860835492610931,1719.6308255568147,1719.6308255568147,0.001699686050415039,0.49005643278360367,0.7402351796627045,1720.1156055107713,practice,1,1720.1330552771688,1720.1330552771688,,,,,,,,,,,,,,,,,,,,,,,,,,,,,s042,001,2024-09-27_10h57.32.864,simplestop_skeleton,2022.2.2,59.855481038932496,
$currentCorrectResponse,$currentGoStim,0,0,0,0,2,3,11,0,,,,,,,,,,,,,,,,,1720.1160514056683,go,squareblack.png,right,0.25,1720.1330552771688,1720.1330552771688,1720.6316912546754,1720.6316912546754,1720.6484370157123,1720.8820106238127,1721.38273614645,1721.6327744796872,1722.6355851143599,1722.6355851143599,right,1,0.8085876926779747,1722.6355851143599,1722.6355851143599,0.0011740922927856445,0.4895402416586876,0.7398143783211708,1723.1201856285334,practice,1,1723.1398192197084,1723.1398192197084,,,,,,,,,,,,,,,,,,,,,,,,,,,,,s042,001,2024-09-27_10h57.32.864,simplestop_skeleton,2022.2.2,59.855481038932496,
None,None,0,0,0,0,3,0,12,3,,,,,,,,,,,,,,,,,1723.1206471398473,go,squareblack.png,right,0.25,1723.1398192197084,1723.1398192197084,1723.6363583952188,1723.6363583952188,1723.6531707942486,1723.886566489935,1724.3872493356466,1724.6378708779812,1725.6372889578342,1725.6539651528,right,1,0.7852754592895508,1725.6539651528,1725.6539651528,0.001196838915348053,0.4899633601307869,0.7401563003659248,1726.1386613473296,practice,1,1726.1615068763494,1726.1615068763494,,,,,,,,,,,,,,,,,,,,,,,,,,,,,s042,001,2024-09-27_10h57.32.864,simplestop_skeleton,2022.2.2,59.855481038932496,
None,None,0,0,0,0,3,1,13,2,,,,,,,,,,,,,,,,,1726.1390939205885,go,circleblack.png,left,0.25,1726.1615068763494,1726.1615068763494,1726.656857304275,1726.656857304275,1726.6734893992543,1726.905293829739,1727.4060694873333,1727.6559885442257,1728.6586192324758,1728.6755115538836,left,1,0.6315428167581558,1728.6755115538836,1728.6755115538836,0.007547803223133087,0.4920160546898842,0.7403938248753548,1729.1599618792534,practice,1,1729.179581142962,1729.179581142962,,,,,,,,,,,,,,,,,,,,,,,,,,,,,s042,001,2024-09-27_10h57.32.864,simplestop_skeleton,2022.2.2,59.855481038932496,
None,None,0,0,0,0,3,2,14,3,,,,,,,,,,,,,,,,,1729.160389751196,stop,circleblack.png,left,0.25,1729.179581142962,1729.179581142962,1729.6764863356948,1729.6764863356948,1729.6930409371853,1729.9265684336424,1730.4258991330862,1730.6760252788663,1731.67717217654,1731.6938395500183,left,1,0.4046936333179474,1731.6938395500183,1731.6938395500183,0.0012594163417816162,0.49000754207372665,0.7402577847242355,1732.179093465209,practice,1,,,,,,,,,,,,,,,,,,,,,,,,,,,,,,,s042,001,2024-09-27_10h57.32.864,simplestop_skeleton,2022.2.2,59.855481038932496,
None,None,0,0,0,0,3,3,15,2,,,,,,,,,,,,,,,,,1732.1795286685228,stop,circleblack.png,left,0.2,1732.1972502619028,1732.1972502619028,1732.6951308771968,1732.6951308771968,1732.711764536798,1732.8952332362533,1733.3958528637886,1733.6960501223803,1734.6984819173813,1734.6984819173813,None,0,,1734.6984819173813,1734.6984819173813,0.0012620314955711365,0.48971302807331085,0.689866878092289,1735.18332413584,practice,1,1735.203295096755,1735.203295096755,,,,,,,,,,,,,,,,,,,,,,,,,,,,,s042,001,2024-09-27_10h57.32.864,simplestop_skeleton,2022.2.2,59.855481038932496,
None,None,0,0,0,0,4,0,16,2,,,,,,,,,,,,,,,,,1735.1837554648519,go,circleblack.png,left,0.25,1735.203295096755,1735.203295096755,1735.7000795528293,1735.7000795528293,1735.7165230810642,1735.950239636004,1736.4509618282318,1736.6996500343084,1737.7004918903112,1737.7172891646624,left,1,0.5694080293178558,1737.7172891646624,1737.7172891646624,0.0013302266597747803,0.4900966286659241,0.7406647354364395,1738.2032338380814,practice,1,,,,,,,,,,,,,,,,,,,,,,,,,,,,,,,s042,001,2024-09-27_10h57.32.864,simplestop_skeleton,2022.2.2,59.855481038932496,
None,None,0,0,0,0,4,1,17,2,,,,,,,,,,,,,,,,,1738.2036721259356,stop,squareblack.png,right,0.25,1738.223253518343,1738.223253518343,1738.720030322671,1738.720030322671,1738.7368039414287,1738.9703030660748,1739.470712043345,1739.721037350595,1740.7218577861786,1740.738707318902,None,0,,1740.738707318902,1740.738707318902,0.004621908068656921,0.4903718829154968,0.7406194657087326,1741.2234435006976,practice,1,1741.2433992698789,1741.2433992698789,,,,,,,,,,,,,,,,,,,,,,,,,,,,,s042,001,2024-09-27_10h57.32.864,simplestop_skeleton,2022.2.2,59.855481038932496,
None,None,0,0,0,0,4,2,18,1,,,,,,,,,,,,,,,,,1741.2238878309727,go,circleblack.png,left,0.3,1741.2433992698789,1741.2433992698789,1741.7397507280111,1741.7397507280111,1741.7564219385386,1742.040418945253,1742.541084088385,1742.7396600171924,1743.740551583469,1743.7572187408805,left,1,0.6117624193429947,1743.7572187408805,1743.7572187408805,0.0017269700765609741,0.4898771569132805,0.7901792824268341,1744.2420273199677,practice,1,1744.2620058357716,1744.2620058357716,,,,,,,,,,,,,,,,,,,,,,,,,,,,,s042,001,2024-09-27_10h57.32.864,simplestop_skeleton,2022.2.2,59.855481038932496,
$currentCorrectResponse,$currentGoStim,0,0,0,0,4,3,19,0,,,,,,,,,,,,,,,,,1744.2424500361085,stop,squareblack.png,right,0.3,1744.2620058357716,1744.2620058357716,1744.759811297059,1744.759811297059,1744.7764211520553,1745.0602924898267,1745.5760001763701,1745.759460158646,1746.7604174390435,1746.7771808356047,right,1,0.48153311014175415,1746.7771808356047,1746.7771808356047,0.0038720890879631042,0.4915272518992424,0.7918858602643013,1747.2627925276756,practice,1,,,,,,,,,,,,,,,,,,,,,,,,,,,,,,,s042,001,2024-09-27_10h57.32.864,simplestop_skeleton,2022.2.2,59.855481038932496,
None,None,0,0,0,0,5,0,20,3,,,,,,,,,,,,,,,,,1747.263227634132,go,squareblack.png,right,0.25,1747.2800554335117,1747.2800554335117,1747.7796955779195,1747.7796955779195,1747.7796955779195,1748.030052267015,1748.5309656262398,1748.77935423702,1749.7804618105292,1749.7804618105292,right,1,0.5278976857662201,1749.7804618105292,1749.7804618105292,0.001209549605846405,0.490583099424839,0.7407478615641594,1750.2657252922654,practice,1,,,,,,,,,,,,,,,,,,,,,,,,,,,,,,,s042,001,2024-09-27_10h57.32.864,simplestop_skeleton,2022.2.2,59.855481038932496,
$currentCorrectResponse,$currentGoStim,0,0,0,0,5,1,21,0,,,,,,,,,,,,,,,,,1750.2661472931504,go,squareblack.png,right,0.25,1750.2852985188365,1750.2852985188365,1750.7831583097577,1750.7831583097577,1750.799912109971,1751.0334553793073,1751.5342944711447,1751.7827919125557,1752.7839189991355,1752.8006049320102,right,1,0.4893922582268715,1752.8006049320102,1752.8006049320102,0.001506119966506958,0.49007217586040497,0.740237832069397,1753.2859790474176,practice,1,,,,,,,,,,,,,,,,,,,,,,,,,,,,,,,s042,001,2024-09-27_10h57.32.864,simplestop_skeleton,2022.2.2,59.855481038932496,
$currentCorrectResponse,$currentGoStim,0,0,0,0,5,2,22,0,,,,,,,,,,,,,,,,,1753.2864069864154,go,squareblack.png,right,0.25,1753.305755496025,1753.305755496025,1753.8035402819514,1753.8035402819514,1753.8196465671062,1754.0533023551106,1754.5527459084988,1754.8028531074524,1755.8037529289722,1755.8205040842295,right,1,0.42722590267658234,1755.8205040842295,1755.8205040842295,0.002018064260482788,0.48980986326932907,0.7405554130673409,1756.3061115592718,practice,1,,,,,,,,,,,,,,,,,,,,,,,,,,,,,,,s042,001,2024-09-27_10h57.32.864,simplestop_skeleton,2022.2.2,59.855481038932496,
None,None,0,0,0,0,5,3,23,3,,,,,,,,,,,,,,,,,1756.306562833488,go,circleblack.png,left,0.25,1756.3303610533476,1756.3303610533476,1756.8229298889637,1756.8229298889637,1756.839888036251,1757.0733755752444,1757.5725579485297,1757.8227122202516,1758.8237825334072,1758.8404576405883,left,1,0.44789133220911026,1758.8404576405883,1758.8404576405883,0.008810333907604218,0.49069663137197495,0.7407662272453308,1759.3257587254047,practice,1,,,,,,,,,,,,,,,,,,,,,,,,,,,,,,,s042,001,2024-09-27_10h57.32.864,simplestop_skeleton,2022.2.2,59.855481038932496,
,,0,0,0,0,,,,,,,,,,,,,"[{'fileName': 'squareblack.png', 'correct_response': 'right', 'condition': 'go'}, {'fileName': 'circleblack.png', 'correct_response': 'left', 'condition': 'stop'}, {'fileName': 'circleblack.png', 'correct_response': 'left', 'condition': 'go'}, {'fileName': 'squareblack.png', 'correct_response': 'right', 'condition': 'stop'}, {'fileName': 'squareblack.png', 'correct_response': 'right', 'condition': 'stop'}, {'fileName': 'circleblack.png', 'correct_response': 'left', 'condition': 'go'}, {'fileName': 'squareblack.png', 'correct_response': 'right', 'condition': 'go'}, {'fileName': 'circleblack.png', 'correct_response': 'left', 'condition': 'stop'}, {'fileName': 'circleblack.png', 'correct_response': 'left', 'condition': 'go'}, {'fileName': 'circleblack.png', 'correct_response': 'left', 'condition': 'go'}, {'fileName': 'squareblack.png', 'correct_response': 'right', 'condition': 'go'}, {'fileName': 'squareblack.png', 'correct_response': 'right', 'condition': 'go'}, {'fileName': 'circleblack.png', 'correct_response': 'left', 'condition': 'go'}, {'fileName': 'squareblack.png', 'correct_response': 'right', 'condition': 'go'}, {'fileName': 'circleblack.png', 'correct_response': 'left', 'condition': 'stop'}, {'fileName': 'circleblack.png', 'correct_response': 'left', 'condition': 'go'}, {'fileName': 'circleblack.png', 'correct_response': 'left', 'condition': 'go'}, {'fileName': 'circleblack.png', 'correct_response': 'left', 'condition': 'stop'}, {'fileName': 'squareblack.png', 'correct_response': 'right', 'condition': 'go'}, {'fileName': 'squareblack.png', 'correct_response': 'right', 'condition': 'go'}, {'fileName': 'squareblack.png', 'correct_response': 'right', 'condition': 'stop'}, {'fileName': 'squareblack.png', 'correct_response': 'right', 'condition': 'go'}, {'fileName': 'squareblack.png', 'correct_response': 'right', 'condition': 'stop'}, {'fileName': 'circleblack.png', 'correct_response': 'left', 'condition': 'go'}]",,,,,,,,,,,,,,,,,,,,,,,,,,,,,,,,,,,,1759.345324613154,1759.345324613154,return,7.328503809869289,,,,,,,,,,,,,,,,,,,,,,,,,s042,001,2024-09-27_10h57.32.864,simplestop_skeleton,2022.2.2,59.855481038932496,
None,None,,,,,,,,,0,0,0,0,0,0,0,2,,,,,,,,,1772.8122780025005,go,circleblack.png,left,0.25,,,,,,,,,,,,,,,,0.002876758575439453,0.4849029555916786,,1775.3113814145327,test,1,,,,,,,1766.700581856072,1766.700581856072,1772.8336861282587,1773.323722615838,1773.323722615838,1773.3407941535115,1773.57480635494,1774.0753328800201,1774.32596937567,1775.336715489626,left,1,0.39384671300649643,0.25,,,,,,,,,,,s042,001,2024-09-27_10h57.32.864,simplestop_skeleton,2022.2.2,59.855481038932496,
$currentCorrectResponse,$currentGoStim,,,,,,,,,0,0,0,0,0,1,1,0,,,,,,,,,1775.311989620328,stop,squareblack.png,right,0.25,,,,,,,,,,,,,,,,0.00748453289270401,0.4890954717993736,0.7394472509622574,1777.8129814192653,test,1,,,,,,,,,1775.336715489626,1775.8275199234486,1775.8275199234486,1775.8440934121609,1776.0778221338987,1776.5936846211553,1776.8270486295223,1777.8296875208616,right,1,0.5388839840888977,0.2,,,,,,,,,,,s042,001,2024-09-27_10h57.32.864,simplestop_skeleton,2022.2.2,59.855481038932496,
None,None,,,,,,,,,0,0,0,0,0,2,2,2,,,,,,,,,1777.8134493082762,go,squareblack.png,right,0.2,,,,,,,,,,,,,,,,0.0012928396463394165,0.48970694839954376,,1780.3169629871845,test,1,,,,,,,,,1777.8296875208616,1778.3289310336113,1778.3289310336113,1778.3289310336113,1778.5289133936167,1779.0298042073846,1779.330512791872,1780.34309989959,right,1,0.4041442200541496,0.2,,,,,,,,,,,s042,001,2024-09-27_10h57.32.864,simplestop_skeleton,2022.2.2,59.855481038932496,
None,None,,,,,,,,,0,0,0,0,0,3,3,1,,,,,,,,,1780.3174214214087,stop,circleblack.png,left,0.2,,,,,,,,,,,,,,,,0.007949866354465485,0.48849456012248993,0.6885972246527672,1782.818357117474,test,1,,,,,,,,,1780.34309989959,1780.8328481838107,1780.8328481838107,1780.8494451493025,1781.0331409424543,1781.5339986681938,1781.8352142646909,1782.8361506611109,None,0,,0.25,,,,,,,,,,,s042,001,2024-09-27_10h57.32.864,simplestop_skeleton,2022.2.2,59.855481038932496,
None,None,,,,,,,,,0,0,0,0,1,0,4,2,,,,,,,,,1782.8187979087234,stop,circleblack.png,left,0.25,,,,,,,,,,,,,,,,0.001460254192352295,0.4890754595398903,0.7393224984407425,1785.3210115134716,test,1,,,,,,,,,1782.8361506611109,1783.3341286629438,1783.3341286629438,1783.3507478013635,1783.5846055820584,1784.0848840475082,1784.3352040424943,1785.3386545106769,None,0,,0.3,,,,,,,,,,,s042,001,2024-09-27_10h57.32.864,simplestop_skeleton,2022.2.2,59.855481038932496,
None,None,,,,,,,,,0,0,0,0,1,1,5,3,,,,,,,,,1785.3214604109526,go,squareblack.png,right,0.3,,,,,,,,,,,,,,,,0.0015753135085105896,0.48936428874731064,,1787.8250655010343,test,1,,,,,,,,,1785.3386545106769,1785.8369164392352,1785.8369164392352,1785.8535936027765,1786.137233413756,1786.6379595696926,1786.8378909900784,1787.8437705636024,right,1,0.38509684056043625,0.3,,,,,,,,,,,s042,001,2024-09-27_10h57.32.864,simplestop_skeleton,2022.2.2,59.855481038932496,
$currentCorrectResponse,$currentGoStim,,,,,,,,,0,0,0,0,1,2,6,0,,,,,,,,,1787.8255184739828,go,squareblack.png,right,0.3,,,,,,,,,,,,,,,,0.0011740997433662415,0.489575132727623,,1790.326401002705,test,1,,,,,,,,,1787.8437705636024,1788.3410887122154,1788.3410887122154,1788.357650861144,1788.6412841156125,1789.1424462422729,1789.340897232294,1790.3430251404643,right,1,0.5680613592267036,0.3,,,,,,,,,,,s042,001,2024-09-27_10h57.32.864,simplestop_skeleton,2022.2.2,59.855481038932496,
None,None,,,,,,,,,0,0,0,0,1,3,7,2,,,,,,,,,1790.3268537446856,stop,squareblack.png,right,0.3,,,,,,,,,,,,,,,,0.001161143183708191,0.4906189739704132,0.7901116386055946,1792.8299027979374,test,1,,,,,,,,,1790.3430251404643,1790.8444324061275,1790.8444324061275,1790.8444324061275,1791.1429520696402,1791.6433438286185,1791.844255760312,1792.8477404490113,None,0,,0.35,,,,,,,,,,,s042,001,2024-09-27_10h57.32.864,simplestop_skeleton,2022.2.2,59.855481038932496,
None,None,,,,,,,,,0,0,0,0,2,0,8,3,,,,,,,,,1792.8303452730179,go,circleblack.png,left,0.35,,,,,,,,,,,,,,,,0.002116963267326355,0.49015437066555023,,1795.331990994513,test,1,,,,,,,,,1792.8477404490113,1793.3464800864458,1793.3464800864458,1793.3631287291646,1793.6971738636494,1794.1978800073266,1794.34638479352,1795.3487118333578,left,1,0.6771232783794403,0.35,,,,,,,,,,,s042,001,2024-09-27_10h57.32.864,simplestop_skeleton,2022.2.2,59.855481038932496,
None,None,,,,,,,,,0,0,0,0,2,1,9,3,,,,,,,,,1795.3324338495731,go,circleblack.png,left,0.35,,,,,,,,,,,,,,,,0.001218266785144806,0.489543654024601,,1797.835771344602,test,1,,,,,,,,,1795.3487118333578,1795.8479483500123,1795.8479483500123,1795.8479483500123,1796.1984381228685,1796.6988042220473,1796.8490344583988,1797.8518788293004,left,1,0.6557597145438194,0.35,,,,,,,,,,,s042,001,2024-09-27_10h57.32.864,simplestop_skeleton,2022.2.2,59.855481038932496,
$currentCorrectResponse,$currentGoStim,,,,,,,,,0,0,0,0,2,2,10,0,,,,,,,,,1797.8362274691463,go,circleblack.png,left,0.35,,,,,,,,,,,,,,,,0.0012818798422813416,0.4899829477071762,,1800.3388812169433,test,1,,,,,,,,,1797.8518788293004,1798.3521944582462,1798.3521944582462,1798.3521944582462,1798.7025639787316,1799.2035726755857,1799.3519433885813,1800.3585769981146,left,1,0.5730212554335594,0.35,,,,,,,,,,,s042,001,2024-09-27_10h57.32.864,simplestop_skeleton,2022.2.2,59.855481038932496,
None,None,,,,,,,,,0,0,0,0,2,3,11,1,,,,,,,,,1800.3393435329199,go,squareblack.png,right,0.35,,,,,,,,,,,,,,,,0.0017802566289901733,0.48794346302747726,,1802.8412443995476,test,1,,,,,,,,,1800.3585769981146,1800.8535193279386,1800.8535193279386,1800.870272129774,1801.204072035849,1801.7043181359768,1801.85453466326,1802.8578451275826,right,1,0.49981555342674255,0.35,,,,,,,,,,,s042,001,2024-09-27_10h57.32.864,simplestop_skeleton,2022.2.2,59.855481038932496,
None,None,,,,,,,,,0,0,0,0,3,0,12,3,,,,,,,,,1802.8417013213038,go,squareblack.png,right,0.35,,,,,,,,,,,,,,,,0.0012748092412948608,0.4900162070989609,,1805.3429546579719,test,1,,,,,,,,,1802.8578451275826,1803.3577686473727,1803.3577686473727,1803.3577686473727,1803.707974523306,1804.207262210548,1804.3572872802615,1805.3599731773138,right,1,0.4014866277575493,0.35,,,,,,,,,,,s042,001,2024-09-27_10h57.32.864,simplestop_skeleton,2022.2.2,59.855481038932496,
None,None,,,,,,,,,0,0,0,0,3,1,13,3,,,,,,,,,1805.3433964848518,go,squareblack.png,right,0.35,,,,,,,,,,,,,,,,0.0011615976691246033,0.49034667760133743,,1807.8466742485762,test,1,,,,,,,,,1805.3599731773138,1805.8595910221338,1805.8595910221338,1805.8595910221338,1806.2092994600534,1806.7099293768406,1806.8601912260056,1807.8654901236296,right,1,0.45760681480169296,0.35,,,,,,,,,,,s042,001,2024-09-27_10h57.32.864,simplestop_skeleton,2022.2.2,59.855481038932496,
None,None,,,,,,,,,0,0,0,0,3,2,14,3,,,,,,,,,1807.8471135348082,stop,squareblack.png,right,0.35,,,,,,,,,,,,,,,,0.0018261075019836426,0.48859430104494095,0.8390502631664276,1810.3485424369574,test,1,,,,,,,,,1807.8654901236296,1808.3632827922702,1808.3632827922702,1808.3798859715462,1808.7135763019323,1809.229321733117,1809.363007478416,1810.3797534108162,right,1,0.42295654118061066,0.3,,,,,,,,,,,s042,001,2024-09-27_10h57.32.864,simplestop_skeleton,2022.2.2,59.855481038932496,
None,None,,,,,,,,,0,0,0,0,3,3,15,3,,,,,,,,,1810.3490016534925,go,squareblack.png,right,0.3,,,,,,,,,,,,,,,,0.00117482990026474,0.48945302516222,,1812.8527104109526,test,1,,,,,,,,,1810.3797534108162,1810.8647824078798,1810.8647824078798,1810.881324276328,1811.1648272946477,1811.6654604002833,1811.8655479252338,1812.8719187304378,right,1,0.4473154693841934,0.3,,,,,,,,,,,s042,001,2024-09-27_10h57.32.864,simplestop_skeleton,2022.2.2,59.855481038932496,
None,None,,,,,,,,,0,0,0,0,4,0,16,1,,,,,,,,,1812.8531553000212,stop,squareblack.png,right,0.3,,,,,,,,,,,,,,,,0.0013253837823867798,0.4893534854054451,0.7901341170072556,1815.354250498116,test,1,,,,,,,,,1812.8719187304378,1813.3687226250768,1813.3687226250768,1813.3853429332376,1813.6690635159612,1814.1682325527072,1814.3683879449964,1815.3773437067866,right,1,0.4176708683371544,0.25,,,,,,,,,,,s042,001,2024-09-27_10h57.32.864,simplestop_skeleton,2022.2.2,59.855481038932496,
None,None,,,,,,,,,0,0,0,0,4,1,17,2,,,,,,,,,1815.354709006846,go,circleblack.png,left,0.25,,,,,,,,,,,,,,,,0.008137382566928864,0.489714078605175,,1817.8576269969344,test,1,,,,,,,,,1815.3773437067866,1815.8706009089947,1815.8706009089947,1815.8870822116733,1816.1202140673995,1816.6208684518933,1816.8712215572596,1817.8745346292853,left,1,0.563186764717102,0.25,,,,,,,,,,,s042,001,2024-09-27_10h57.32.864,simplestop_skeleton,2022.2.2,59.855481038932496,
None,None,,,,,,,,,0,0,0,0,4,2,18,3,,,,,,,,,1817.8580724149942,go,circleblack.png,left,0.25,,,,,,,,,,,,,,,,0.0012764260172843933,0.49032219499349594,,1820.3596960902214,test,1,,,,,,,,,1817.8745346292853,1818.3741102963686,1818.3741102963686,1818.3741102963686,1818.6244636625051,1819.1250445917249,1819.3740348666906,1820.3769021853805,left,1,0.6257138028740883,0.25,,,,,,,,,,,s042,001,2024-09-27_10h57.32.864,simplestop_skeleton,2022.2.2,59.855481038932496,
$currentCorrectResponse,$currentGoStim,,,,,,,,,0,0,0,0,4,3,19,0,,,,,,,,,1820.3601490929723,stop,circleblack.png,left,0.25,,,,,,,,,,,,,,,,0.001253269612789154,0.48929598182439804,0.7397138774394989,1822.8630074560642,test,1,,,,,,,,,1820.3769021853805,1820.8755888938904,1820.8755888938904,1820.892232015729,1821.126097239554,1821.6263259723783,1821.8770214393735,1822.880243346095,left,1,0.4145251363515854,0.2,,,,,,,,,,,s042,001,2024-09-27_10h57.32.864,simplestop_skeleton,2022.2.2,59.855481038932496,
$currentCorrectResponse,$currentGoStim,,,,,,,,,0,0,0,0,5,0,20,0,,,,,,,,,1822.863465756178,go,circleblack.png,left,0.2,,,,,,,,,,,,,,,,0.0012633800506591797,0.49015603959560394,,1825.3649920895696,test,1,,,,,,,,,1822.880243346095,1823.379672922194,1823.379672922194,1823.379672922194,1823.5798520073295,1824.080895356834,1824.3794787302613,1825.3817663937807,left,1,0.5149849355220795,0.2,,,,,,,,,,,s042,001,2024-09-27_10h57.32.864,simplestop_skeleton,2022.2.2,59.855481038932496,
None,None,,,,,,,,,0,0,0,0,5,1,21,3,,,,,,,,,1825.3654531687498,go,circleblack.png,left,0.2,,,,,,,,,,,,,,,,0.0012412145733833313,0.4896681010723114,,1827.8688246682286,test,1,,,,,,,,,1825.3817663937807,1825.8810682147741,1825.8810682147741,1825.8810682147741,1826.0816647410393,1826.5818275362253,1826.8824523836374,1827.8856431767344,left,1,0.5542742535471916,0.2,,,,,,,,,,,s042,001,2024-09-27_10h57.32.864,simplestop_skeleton,2022.2.2,59.855481038932496,
None,None,,,,,,,,,0,0,0,0,5,2,22,1,,,,,,,,,1827.8692787587643,stop,circleblack.png,left,0.2,,,,,,,,,,,,,,,,0.0013926774263381958,0.4900630936026573,0.6903105452656746,1830.3719687536359,test,1,,,,,,,,,1827.8856431767344,1828.385394781828,1828.385394781828,1828.385394781828,1828.5855456739664,1829.0859696343541,1829.3864385932684,1830.396318897605,None,0,,0.25,,,,,,,,,,,s042,001,2024-09-27_10h57.32.864,simplestop_skeleton,2022.2.2,59.855481038932496,
None,None,,,,,,,,,0,0,0,0,5,3,23,1,,,,,,,,,1830.372438132763,go,squareblack.png,right,0.25,,,,,,,,,,,,,,,,0.007504485547542572,0.4897829368710518,,1832.8749593943357,test,1,,,,,,,,,1830.396318897605,1830.8879854753613,1830.8879854753613,1830.9051151424646,1831.1383889466524,1831.637654736638,1831.8877787217498,1832.8936921730638,right,1,0.435239776968956,0.25,,,,,,,,,,,s042,001,2024-09-27_10h57.32.864,simplestop_skeleton,2022.2.2,59.855481038932496,
$currentCorrectResponse,$currentGoStim,,,,,,,,,0,0,0,0,6,0,24,0,,,,,,,,,1832.8754324913025,go,circleblack.png,left,0.25,,,,,,,,,,,,,,,,0.0025692060589790344,0.48757681250572205,,1835.3772968649864,test,1,,,,,,,,,1832.8936921730638,1833.3894527107477,1833.3894527107477,1833.4062811285257,1833.6398835033178,1834.140357464552,1834.3911959826946,1835.3946132808924,left,1,0.5065939500927925,0.25,,,,,,,,,,,s042,001,2024-09-27_10h57.32.864,simplestop_skeleton,2022.2.2,59.855481038932496,
None,None,,,,,,,,,0,0,0,0,6,1,25,2,,,,,,,,,1835.3777373582125,stop,squareblack.png,right,0.25,,,,,,,,,,,,,,,,0.0016929954290390015,0.4906596913933754,0.7390585690736771,1837.879476659,test,1,,,,,,,,,1835.3946132808924,1835.8943401128054,1835.8943401128054,1835.8943401128054,1836.1426760554314,1836.6430728882551,1836.8934742584825,1837.8970811739564,None,0,,0.3,,,,,,,,,,,s042,001,2024-09-27_10h57.32.864,simplestop_skeleton,2022.2.2,59.855481038932496,
None,None,,,,,,,,,0,0,0,0,6,2,26,3,,,,,,,,,1837.8799446895719,stop,squareblack.png,right,0.3,,,,,,,,,,,,,,,,0.0012641623616218567,0.49046560376882553,0.7910348102450371,1840.3818878009915,test,1,,,,,,,,,1837.8970811739564,1838.3965189531446,1838.3965189531446,1838.3965189531446,1838.6968162208796,1839.196009337902,1839.3961242213845,1840.3993899449706,right,1,0.4480551853775978,0.25,,,,,,,,,,,s042,001,2024-09-27_10h57.32.864,simplestop_skeleton,2022.2.2,59.855481038932496,
$currentCorrectResponse,$currentGoStim,,,,,,,,,0,0,0,0,6,3,27,0,,,,,,,,,1840.382334433496,stop,circleblack.png,left,0.25,,,,,,,,,,,,,,,,0.0017475411295890808,0.4898766577243805,0.7398383766412735,1842.885329976678,test,1,,,,,,,,,1840.3993899449706,1840.8979559764266,1840.8979559764266,1840.914551012218,1841.1480847373605,1841.648435935378,1841.8998485729098,1842.9030932411551,left,1,0.4265793189406395,0.2,,,,,,,,,,,s042,001,2024-09-27_10h57.32.864,simplestop_skeleton,2022.2.2,59.855481038932496,
$currentCorrectResponse,$currentGoStim,,,,,,,,,0,0,0,0,7,0,28,0,,,,,,,,,1842.8857947066426,go,circleblack.png,left,0.2,,,,,,,,,,,,,,,,0.001258648931980133,0.4896424189209938,,1845.3885460793972,test,1,,,,,,,,,1842.9030932411551,1843.40179014951,1843.40179014951,1843.4186161905527,1843.6022891625762,1844.1030285432935,1844.401530392468,1845.4092046320438,left,1,0.5410443991422653,0.2,,,,,,,,,,,s042,001,2024-09-27_10h57.32.864,simplestop_skeleton,2022.2.2,59.855481038932496,
None,None,,,,,,,,,0,0,0,0,7,1,29,3,,,,,,,,,1845.3889983668923,go,squareblack.png,right,0.2,,,,,,,,,,,,,,,,0.002405889332294464,0.48741302639245987,,1847.890014268458,test,1,,,,,,,,,1845.4092046320438,1845.9033162146807,1845.9033162146807,1845.9198425486684,1846.10416290164,1846.603886090219,1846.9042760133743,1847.9075517058372,right,1,0.7650930732488632,0.2,,,,,,,,,,,s042,001,2024-09-27_10h57.32.864,simplestop_skeleton,2022.2.2,59.855481038932496,
None,None,,,,,,,,,0,0,0,0,7,2,30,1,,,,,,,,,1847.890464566648,go,squareblack.png,right,0.2,,,,,,,,,,,,,,,,0.0012468695640563965,0.4891870468854904,,1850.3940983489156,test,1,,,,,,,,,1847.9075517058372,1848.4060661122203,1848.4060661122203,1848.4226637259126,1848.6061986759305,1849.1067989990115,1849.407104536891,1850.4134343862534,right,1,0.5619727149605751,0.2,,,,,,,,,,,s042,001,2024-09-27_10h57.32.864,simplestop_skeleton,2022.2.2,59.855481038932496,
None,None,,,,,,,,,0,0,0,0,7,3,31,3,,,,,,,,,1850.394545264542,go,squareblack.png,right,0.2,,,,,,,,,,,,,,,,0.001414269208908081,0.48986363410949707,,1852.897118113935,test,1,,,,,,,,,1850.4134343862534,1850.9102245271206,1850.9102245271206,1850.927136451006,1851.1105002835393,1851.6113951802254,1851.9098973348737,1852.9201104044914,right,1,0.40964239835739136,0.2,,,,,,,,,,,s042,001,2024-09-27_10h57.32.864,simplestop_skeleton,2022.2.2,59.855481038932496,
None,None,,,,,,,,,0,0,0,0,8,0,32,2,,,,,,,,,1852.8975761309266,stop,circleblack.png,left,0.2,,,,,,,,,,,,,,,,0.007569365203380585,0.4874863177537918,0.6878189742565155,1855.3991829156876,test,1,,,,,,,,,1852.9201104044914,1853.412242487073,1853.412242487073,1853.4287523254752,1853.6118812561035,1854.1123261526227,1854.4128577709198,1855.4161061272025,None,0,,0.25,,,,,,,,,,,s042,001,2024-09-27_10h57.32.864,simplestop_skeleton,2022.2.2,59.855481038932496,
$currentCorrectResponse,$currentGoStim,,,,,,,,,0,0,0,0,8,1,33,0,,,,,,,,,1855.399637311697,go,circleblack.png,left,0.25,,,,,,,,,,,,,,,,0.0012619271874427795,0.4899437576532364,,1857.9009813815355,test,1,,,,,,,,,1855.4161061272025,1855.9159500598907,1855.9159500598907,1855.9159500598907,1856.1661017462611,1856.6669342815876,1856.9154966548085,1857.919096134603,left,1,0.4810298904776573,0.25,,,,,,,,,,,s042,001,2024-09-27_10h57.32.864,simplestop_skeleton,2022.2.2,59.855481038932496,
$currentCorrectResponse,$currentGoStim,,,,,,,,,0,0,0,0,8,2,34,0,,,,,,,,,1857.9017210006714,go,squareblack.png,right,0.25,,,,,,,,,,,,,,,,0.0016104727983474731,0.4889039173722267,,1860.404991015792,test,1,,,,,,,,,1857.919096134603,1858.4170877188444,1858.4170877188444,1858.4337097778916,1858.667575493455,1859.167934820056,1859.419131807983,1860.422513306141,right,1,0.3862878456711769,0.25,,,,,,,,,,,s042,001,2024-09-27_10h57.32.864,simplestop_skeleton,2022.2.2,59.855481038932496,
None,None,,,,,,,,,0,0,0,0,8,3,35,1,,,,,,,,,1860.4054802134633,go,circleblack.png,left,0.25,,,,,,,,,,,,,,,,0.0019131600856781006,0.4896252229809761,,1862.9071710035205,test,1,,,,,,,,,1860.422513306141,1860.9212806373835,1860.9212806373835,1860.9378184452653,1861.1715988516808,1861.6709793582559,1861.9209461212158,1862.9245576113462,left,1,0.5229949727654457,0.25,,,,,,,,,,,s042,001,2024-09-27_10h57.32.864,simplestop_skeleton,2022.2.2,59.855481038932496,
None,None,,,,,,,,,0,0,0,0,9,0,36,2,,,,,,,,,1862.9079803824425,go,circleblack.png,left,0.25,,,,,,,,,,,,,,,,0.001286245882511139,0.48926931619644165,,1865.4102689400315,test,1,,,,,,,,,1862.9245576113462,1863.4230470955372,1863.4230470955372,1863.4393659755588,1863.672940582037,1864.1737163737416,1864.4237764552236,1865.427535943687,left,1,0.4050712585449219,0.25,,,,,,,,,,,s042,001,2024-09-27_10h57.32.864,simplestop_skeleton,2022.2.2,59.855481038932496,
None,None,,,,,,,,,0,0,0,0,9,1,37,1,,,,,,,,,1865.4107770249248,stop,squareblack.png,right,0.25,,,,,,,,,,,,,,,,0.0017392933368682861,0.49013523012399673,0.7404269501566887,1867.9134780168533,test,1,,,,,,,,,1865.427535943687,1865.9269622713327,1865.9269622713327,1865.9269622713327,1866.1773392632604,1866.6776773780584,1866.9277739226818,1867.9323542788625,None,0,,0.3,,,,,,,,,,,s042,001,2024-09-27_10h57.32.864,simplestop_skeleton,2022.2.2,59.855481038932496,
$currentCorrectResponse,$currentGoStim,,,,,,,,,0,0,0,0,9,2,38,0,,,,,,,,,1867.913932673633,go,squareblack.png,right,0.3,,,,,,,,,,,,,,,,0.0013090893626213074,0.4898963123559952,,1870.4148173481226,test,1,,,,,,,,,1867.9323542788625,1868.4294479861856,1868.4294479861856,1868.4461296796799,1868.7300764396787,1869.245666258037,1869.4291199743748,1870.4321034774184,right,1,0.4683637097477913,0.3,,,,,,,,,,,s042,001,2024-09-27_10h57.32.864,simplestop_skeleton,2022.2.2,59.855481038932496,
None,None,,,,,,,,,0,0,0,0,9,3,39,2,,,,,,,,,1870.4152600616217,stop,circleblack.png,left,0.3,,,,,,,,,,,,,,,,0.0017912238836288452,0.4898218736052513,0.7899557054042816,1872.919035129249,test,1,,,,,,,,,1870.4321034774184,1870.9309317618608,1870.9309317618608,1870.9476326406002,1871.2310996502638,1871.7317674607038,1871.9320440739393,1872.9386533349752,left,1,0.4770960286259651,0.25,,,,,,,,,,,s042,001,2024-09-27_10h57.32.864,simplestop_skeleton,2022.2.2,59.855481038932496,
$currentCorrectResponse,$currentGoStim,,,,,,,,,0,0,0,0,10,0,40,0,,,,,,,,,1872.919481396675,go,squareblack.png,right,0.25,,,,,,,,,,,,,,,,0.0018672049045562744,0.4894709065556526,,1875.4224025830626,test,1,,,,,,,,,1872.9386533349752,1873.434862665832,1873.434862665832,1873.452044799924,1873.6855433955789,1874.1865793392062,1874.434797257185,1875.4434742853045,right,1,0.6835859715938568,0.25,,,,,,,,,,,s042,001,2024-09-27_10h57.32.864,simplestop_skeleton,2022.2.2,59.855481038932496,
None,None,,,,,,,,,0,0,0,0,10,1,41,1,,,,,,,,,1875.4228616952896,stop,circleblack.png,left,0.25,,,,,,,,,,,,,,,,0.002542361617088318,0.48662324994802475,0.7381398603320122,1877.9231204614043,test,1,,,,,,,,,1875.4434742853045,1875.9363322332501,1875.9363322332501,1875.9530131816864,1876.1882026046515,1876.6871115714312,1876.9373966977,1877.940334700048,None,0,,0.3,,,,,,,,,,,s042,001,2024-09-27_10h57.32.864,simplestop_skeleton,2022.2.2,59.855481038932496,
None,None,,,,,,,,,0,0,0,0,10,2,42,1,,,,,,,,,1877.923576578498,go,squareblack.png,right,0.3,,,,,,,,,,,,,,,,0.00156509131193161,0.489713616669178,,1880.4271107912064,test,1,,,,,,,,,1877.940334700048,1878.4392798095942,1878.4392798095942,1878.455897808075,1878.7393299788237,1879.2399995550513,1879.440281264484,1880.4461574405432,right,1,0.5888960361480713,0.3,,,,,,,,,,,s042,001,2024-09-27_10h57.32.864,simplestop_skeleton,2022.2.2,59.855481038932496,
None,None,,,,,,,,,0,0,0,0,10,3,43,2,,,,,,,,,1880.4275744259357,go,squareblack.png,right,0.3,,,,,,,,,,,,,,,,0.0012808814644813538,0.48972614109516144,,1882.930868588388,test,1,,,,,,,,,1880.4461574405432,1880.943298727274,1880.943298727274,1880.9600522965193,1881.243792578578,1881.7445889636874,1881.9431948289275,1882.9517727792263,right,1,0.5443163216114044,0.3,,,,,,,,,,,s042,001,2024-09-27_10h57.32.864,simplestop_skeleton,2022.2.2,59.855481038932496,
None,None,,,,,,,,,0,0,0,0,11,0,44,2,,,,,,,,,1882.9313464611769,go,circleblack.png,left,0.3,,,,,,,,,,,,,,,,0.002620600163936615,0.4862673729658127,,1885.4317645728588,test,1,,,,,,,,,1882.9517727792263,1883.4445825517178,1883.4445825517178,1883.4613867253065,1883.7450874969363,1884.2455670461059,1884.4456605017185,1885.4496263116598,left,1,0.4557655230164528,0.3,,,,,,,,,,,s042,001,2024-09-27_10h57.32.864,simplestop_skeleton,2022.2.2,59.855481038932496,
None,None,,,,,,,,,0,0,0,0,11,1,45,2,,,,,,,,,1885.4322069212794,go,circleblack.png,left,0.3,,,,,,,,,,,,,,,,0.0013779401779174805,0.4885765314102173,,1887.9355804249644,test,1,,,,,,,,,1885.4496263116598,1885.9473020210862,1885.9473020210862,1885.9639288336039,1886.2476233541965,1886.7485687881708,1886.9483704268932,1887.9549245759845,left,1,0.4502436891198158,0.3,,,,,,,,,,,s042,001,2024-09-27_10h57.32.864,simplestop_skeleton,2022.2.2,59.855481038932496,
None,None,,,,,,,,,0,0,0,0,11,2,46,1,,,,,,,,,1887.936037734151,stop,squareblack.png,right,0.3,,,,,,,,,,,,,,,,0.0017160475254058838,0.4896521642804146,0.7898983880877495,1890.437087059021,test,1,,,,,,,,,1887.9549245759845,1888.4514094889164,1888.4514094889164,1888.4682553857565,1888.7521205991507,1889.2678153067827,1889.4511758834124,1890.4546797424555,right,1,0.3748021125793457,0.25,,,,,,,,,,,s042,001,2024-09-27_10h57.32.864,simplestop_skeleton,2022.2.2,59.855481038932496,
None,None,,,,,,,,,0,0,0,0,11,3,47,1,,,,,,,,,1890.4375384002924,go,circleblack.png,left,0.25,,,,,,,,,,,,,,,,0.0016914904117584229,0.4897054433822632,,1892.9405504390597,test,1,,,,,,,,,1890.4546797424555,1890.9534832462668,1890.9534832462668,1890.9696990847588,1891.2033679708838,1891.7036653533578,1891.95418702811,1892.9664778411388,left,1,0.3781476616859436,0.25,,,,,,,,,,,s042,001,2024-09-27_10h57.32.864,simplestop_skeleton,2022.2.2,59.855481038932496,
,,,,,,,,,,0,0,0,0,,,,,,"[{'fileName': 'circleblack.png', 'correct_response': 'left', 'condition': 'go'}, {'fileName': 'squareblack.png', 'correct_response': 'right', 'condition': 'stop'}, {'fileName': 'circleblack.png', 'correct_response': 'left', 'condition': 'go'}, {'fileName': 'circleblack.png', 'correct_response': 'left', 'condition': 'stop'}, {'fileName': 'squareblack.png', 'correct_response': 'right', 'condition': 'go'}, {'fileName': 'squareblack.png', 'correct_response': 'right', 'condition': 'go'}, {'fileName': 'squareblack.png', 'correct_response': 'right', 'condition': 'stop'}, {'fileName': 'squareblack.png', 'correct_response': 'right', 'condition': 'go'}, {'fileName': 'circleblack.png', 'correct_response': 'left', 'condition': 'go'}, {'fileName': 'circleblack.png', 'correct_response': 'left', 'condition': 'stop'}, {'fileName': 'circleblack.png', 'correct_response': 'left', 'condition': 'go'}, {'fileName': 'squareblack.png', 'correct_response': 'right', 'condition': 'go'}, {'fileName': 'circleblack.png', 'correct_response': 'left', 'condition': 'go'}, {'fileName': 'circleblack.png', 'correct_response': 'left', 'condition': 'go'}, {'fileName': 'circleblack.png', 'correct_response': 'left', 'condition': 'stop'}, {'fileName': 'squareblack.png', 'correct_response': 'right', 'condition': 'stop'}, {'fileName': 'circleblack.png', 'correct_response': 'left', 'condition': 'go'}, {'fileName': 'circleblack.png', 'correct_response': 'left', 'condition': 'go'}, {'fileName': 'circleblack.png', 'correct_response': 'left', 'condition': 'stop'}, {'fileName': 'squareblack.png', 'correct_response': 'right', 'condition': 'go'}, {'fileName': 'squareblack.png', 'correct_response': 'right', 'condition': 'stop'}, {'fileName': 'squareblack.png', 'correct_response': 'right', 'condition': 'go'}, {'fileName': 'squareblack.png', 'correct_response': 'right', 'condition': 'go'}, {'fileName': 'squareblack.png', 'correct_response': 'right', 'condition': 'go'}, {'fileName': 'circleblack.png', 'correct_response': 'left', 'condition': 'stop'}, {'fileName': 'circleblack.png', 'correct_response': 'left', 'condition': 'go'}, {'fileName': 'squareblack.png', 'correct_response': 'right', 'condition': 'go'}, {'fileName': 'squareblack.png', 'correct_response': 'right', 'condition': 'stop'}, {'fileName': 'circleblack.png', 'correct_response': 'left', 'condition': 'stop'}, {'fileName': 'squareblack.png', 'correct_response': 'right', 'condition': 'go'}, {'fileName': 'circleblack.png', 'correct_response': 'left', 'condition': 'go'}, {'fileName': 'circleblack.png', 'correct_response': 'left', 'condition': 'go'}, {'fileName': 'squareblack.png', 'correct_response': 'right', 'condition': 'stop'}, {'fileName': 'squareblack.png', 'correct_response': 'right', 'condition': 'go'}, {'fileName': 'circleblack.png', 'correct_response': 'left', 'condition': 'go'}, {'fileName': 'squareblack.png', 'correct_response': 'right', 'condition': 'go'}, {'fileName': 'circleblack.png', 'correct_response': 'left', 'condition': 'go'}, {'fileName': 'squareblack.png', 'correct_response': 'right', 'condition': 'go'}, {'fileName': 'squareblack.png', 'correct_response': 'right', 'condition': 'go'}, {'fileName': 'squareblack.png', 'correct_response': 'right', 'condition': 'go'}, {'fileName': 'circleblack.png', 'correct_response': 'left', 'condition': 'stop'}, {'fileName': 'squareblack.png', 'correct_response': 'right', 'condition': 'stop'}, {'fileName': 'circleblack.png', 'correct_response': 'left', 'condition': 'go'}, {'fileName': 'circleblack.png', 'correct_response': 'left', 'condition': 'stop'}, {'fileName': 'squareblack.png', 'correct_response': 'right', 'condition': 'go'}, {'fileName': 'circleblack.png', 'correct_response': 'left', 'condition': 'go'}, {'fileName': 'circleblack.png', 'correct_response': 'left', 'condition': 'go'}, {'fileName': 'squareblack.png', 'correct_response': 'right', 'condition': 'stop'}]",,,,,,,,,,,,,,,,,,,,,,,,,,,,,,,,,,,,,,,,,,,,,,,,,,,,,1892.9664778411388,1892.9664778411388,return,5.701821208000183,,,,,,,s042,001,2024-09-27_10h57.32.864,simplestop_skeleton,2022.2.2,59.855481038932496,
None,None,,,,,,,,,1,0,1,0,0,0,0,1,,,,,,,,,1898.70669567585,go,circleblack.png,left,0.25,,,,,,,,,,,,,,,,0.0013062432408332825,0.4954853802919388,,1901.2170939669013,test,2,,,,,,,,,1898.7252219766378,1899.228866405785,1899.228866405785,1899.228866405785,1899.4790699779987,1899.9798265099525,1900.229889653623,1901.24162299186,left,1,0.423188216984272,0.25,,,,,,,,,,,s042,001,2024-09-27_10h57.32.864,simplestop_skeleton,2022.2.2,59.855481038932496,
None,None,,,,,,,,,1,0,1,0,0,1,1,1,,,,,,,,,1901.2176406010985,stop,squareblack.png,right,0.25,,,,,,,,,,,,,,,,0.0075813233852386475,0.4889625236392021,0.7393997013568878,1903.7184231579304,test,2,,,,,,,,,1901.24162299186,1901.7329428046942,1901.7329428046942,1901.7496457621455,1901.9832450449467,1902.4824650138617,1902.7327399849892,1903.7358960211277,right,1,0.3730374723672867,0.2,,,,,,,,,,,s042,001,2024-09-27_10h57.32.864,simplestop_skeleton,2022.2.2,59.855481038932496,
None,None,,,,,,,,,1,0,1,0,0,2,2,3,,,,,,,,,1903.7188712060452,go,circleblack.png,left,0.2,,,,,,,,,,,,,,,,0.0017961934208869934,0.4893439933657646,,1906.2236699461937,test,2,,,,,,,,,1903.7358960211277,1904.234816096723,1904.234816096723,1904.251340560615,1904.4346282333136,1904.9350406602025,1905.2354408800602,1906.2405182272196,left,1,0.2968638241291046,0.2,,,,,,,,,,,s042,001,2024-09-27_10h57.32.864,simplestop_skeleton,2022.2.2,59.855481038932496,
None,None,,,,,,,,,1,0,1,0,0,3,3,2,,,,,,,,,1906.2241027578712,stop,circleblack.png,left,0.2,,,,,,,,,,,,,,,,0.0019008368253707886,0.48863180726766586,0.6889326199889183,1908.7237746790051,test,2,,,,,,,,,1906.2405182272196,1906.738251209259,1906.738251209259,1906.755348175764,1906.938552185893,1907.4377707391977,1907.7381045818329,1908.7452744990587,left,1,0.38359321653842926,0.15,,,,,,,,,,,s042,001,2024-09-27_10h57.32.864,simplestop_skeleton,2022.2.2,59.855481038932496,
$currentCorrectResponse,$currentGoStim,,,,,,,,,1,0,1,0,1,0,4,0,,,,,,,,,1908.7242082804441,go,squareblack.png,right,0.15,,,,,,,,,,,,,,,,0.006843268871307373,0.48968175798654556,,1911.227344430983,test,2,,,,,,,,,1908.7452744990587,1909.2397468313575,1909.2397468313575,1909.2563593164086,1909.3902607634664,1909.8905325680971,1910.2414190843701,1911.244192957878,right,1,0.3222263306379318,0.15,,,,,,,,,,,s042,001,2024-09-27_10h57.32.864,simplestop_skeleton,2022.2.2,59.855481038932496,
None,None,,,,,,,,,1,0,1,0,1,1,5,1,,,,,,,,,1911.227785371244,go,squareblack.png,right,0.15,,,,,,,,,,,,,,,,0.0012127086520195007,0.4904712438583374,,1913.7306562066078,test,2,,,,,,,,,1911.244192957878,1911.7442666590214,1911.7442666590214,1911.7442666590214,1911.8940864652395,1912.394942164421,1912.7436133176088,1913.7511856853962,right,1,0.5061998143792152,0.15,,,,,,,,,,,s042,001,2024-09-27_10h57.32.864,simplestop_skeleton,2022.2.2,59.855481038932496,
None,None,,,,,,,,,1,0,1,0,1,2,6,3,,,,,,,,,1913.731156744063,stop,squareblack.png,right,0.15,,,,,,,,,,,,,,,,0.0020321831107139587,0.4865737631917,0.6370436921715736,1916.2322162762284,test,2,,,,,,,,,1913.7511856853962,1914.2453741431236,1914.2453741431236,1914.2620889022946,1914.3955897912383,1914.8959310129285,1915.2463857755065,1916.2491702511907,None,0,,0.2,,,,,,,,,,,s042,001,2024-09-27_10h57.32.864,simplestop_skeleton,2022.2.2,59.855481038932496,
None,None,,,,,,,,,1,0,1,0,1,3,7,3,,,,,,,,,1916.2326754033566,go,squareblack.png,right,0.2,,,,,,,,,,,,,,,,0.0011678710579872131,0.48922252655029297,,1918.7361109107733,test,2,,,,,,,,,1916.2491702511907,1916.747989617288,1916.747989617288,1916.7646176218987,1916.9482310190797,1917.4488570019603,1917.7490334510803,1918.760923244059,right,1,0.33630605787038803,0.2,,,,,,,,,,,s042,001,2024-09-27_10h57.32.864,simplestop_skeleton,2022.2.2,59.855481038932496,
$currentCorrectResponse,$currentGoStim,,,,,,,,,1,0,1,0,2,0,8,0,,,,,,,,,1918.7365528792143,go,circleblack.png,left,0.2,,,,,,,,,,,,,,,,0.00807257741689682,0.48958274722099304,,1921.237564906478,test,2,,,,,,,,,1918.760923244059,1919.2521296590567,1919.2521296590567,1919.2687525451183,1919.4523528888822,1919.9533543661237,1920.251891873777,1921.2542413771152,left,1,0.30581479519605637,0.2,,,,,,,,,,,s042,001,2024-09-27_10h57.32.864,simplestop_skeleton,2022.2.2,59.855481038932496,
None,None,,,,,,,,,1,0,1,0,2,1,9,3,,,,,,,,,1921.2380080744624,stop,circleblack.png,left,0.2,,,,,,,,,,,,,,,,0.0012525543570518494,0.4897121638059616,0.6899980530142784,1923.7414326444268,test,2,,,,,,,,,1921.2542413771152,1921.7535493597388,1921.7535493597388,1921.7535493597388,1921.9539111629128,1922.4543158188462,1922.7547797709703,1923.7583470121026,None,0,,0.25,,,,,,,,,,,s042,001,2024-09-27_10h57.32.864,simplestop_skeleton,2022.2.2,59.855481038932496,
None,None,,,,,,,,,1,0,1,0,2,2,10,1,,,,,,,,,1923.7418669611216,go,circleblack.png,left,0.25,,,,,,,,,,,,,,,,0.001253575086593628,0.4901406466960907,,1926.243784300983,test,2,,,,,,,,,1923.7583470121026,1924.2577617317438,1924.2577617317438,1924.2577617317438,1924.5067138671875,1925.0072809308767,1925.2572513595223,1926.2615762725472,left,1,0.4050363376736641,0.25,,,,,,,,,,,s042,001,2024-09-27_10h57.32.864,simplestop_skeleton,2022.2.2,59.855481038932496,
None,None,,,,,,,,,1,0,1,0,2,3,11,3,,,,,,,,,1926.244327582419,go,squareblack.png,right,0.25,,,,,,,,,,,,,,,,0.001749083399772644,0.4901375472545624,,1928.7459542751312,test,2,,,,,,,,,1926.2615762725472,1926.7604923918843,1926.7604923918843,1926.7770693823695,1927.0106263756752,1927.5115093141794,1927.7603356689215,1928.7641184180975,right,1,0.5971585214138031,0.25,,,,,,,,,,,s042,001,2024-09-27_10h57.32.864,simplestop_skeleton,2022.2.2,59.855481038932496,
None,None,,,,,,,,,1,0,1,0,3,0,12,3,,,,,,,,,1928.7464205995202,go,circleblack.png,left,0.25,,,,,,,,,,,,,,,,0.0018372833728790283,0.48908884823322296,,1931.2484645992517,test,2,,,,,,,,,1928.7641184180975,1929.261797748506,1929.261797748506,1929.278456531465,1929.5152076929808,1930.0292653813958,1930.262858465314,1931.279776841402,left,1,0.48720719665288925,0.25,,,,,,,,,,,s042,001,2024-09-27_10h57.32.864,simplestop_skeleton,2022.2.2,59.855481038932496,
None,None,,,,,,,,,1,0,1,0,3,1,13,2,,,,,,,,,1931.2489405274391,go,circleblack.png,left,0.25,,,,,,,,,,,,,,,,0.0012867376208305359,0.4899519830942154,,1933.7522271573544,test,2,,,,,,,,,1931.279776841402,1931.764565616846,1931.764565616846,1931.7812890931964,1932.0148123204708,1932.5153611078858,1932.7657543122768,1933.7692919671535,left,1,0.36010679602622986,0.25,,,,,,,,,,,s042,001,2024-09-27_10h57.32.864,simplestop_skeleton,2022.2.2,59.855481038932496,
None,None,,,,,,,,,1,0,1,0,3,2,14,3,,,,,,,,,1933.7526683658361,stop,circleblack.png,left,0.25,,,,,,,,,,,,,,,,0.0012621879577636719,0.4902794361114502,0.7404734045267105,1936.2554098293185,test,2,,,,,,,,,1933.7692919671535,1934.2687356173992,1934.2687356173992,1934.2687356173992,1934.5189358741045,1935.018249809742,1935.2683084234595,1936.2749534025788,left,1,0.3969430848956108,0.2,,,,,,,,,,,s042,001,2024-09-27_10h57.32.864,simplestop_skeleton,2022.2.2,59.855481038932496,
None,None,,,,,,,,,1,0,1,0,3,3,15,1,,,,,,,,,1936.2558413222432,stop,squareblack.png,right,0.2,,,,,,,,,,,,,,,,0.0017434954643249512,0.4880760535597801,0.6884667798876762,1938.7573068514466,test,2,,,,,,,,,1936.2749534025788,1936.7704120501876,1936.7704120501876,1936.7873229458928,1936.9703073203564,1937.4707245901227,1937.771282799542,1938.7762885466218,right,1,0.3707215040922165,0.15,,,,,,,,,,,s042,001,2024-09-27_10h57.32.864,simplestop_skeleton,2022.2.2,59.855481038932496,
$currentCorrectResponse,$currentGoStim,,,,,,,,,1,0,1,0,4,0,16,0,,,,,,,,,1938.7579029351473,go,circleblack.png,left,0.15,,,,,,,,,,,,,,,,0.0017462968826293945,0.4906724616885185,,1941.259977683425,test,2,,,,,,,,,1938.7762885466218,1939.2741741389036,1939.2741741389036,1939.2910023406148,1939.4245009571314,1939.9257466644049,1940.2739209011197,1941.2907103002071,left,1,0.48450152575969696,0.15,,,,,,,,,,,s042,001,2024-09-27_10h57.32.864,simplestop_skeleton,2022.2.2,59.855481038932496,
None,None,,,,,,,,,1,0,1,0,4,1,17,1,,,,,,,,,1941.2604124993086,go,circleblack.png,left,0.15,,,,,,,,,,,,,,,,0.0012223944067955017,0.4892568588256836,,1943.7622541710734,test,2,,,,,,,,,1941.2907103002071,1941.7755957320333,1941.7755957320333,1941.7923348546028,1941.9257354289293,1942.426553323865,1942.7765889018774,1943.7790833115578,left,1,0.3508460521697998,0.15,,,,,,,,,,,s042,001,2024-09-27_10h57.32.864,simplestop_skeleton,2022.2.2,59.855481038932496,
None,None,,,,,,,,,1,0,1,0,4,2,18,3,,,,,,,,,1943.7627097815275,stop,circleblack.png,left,0.15,,,,,,,,,,,,,,,,0.0012274682521820068,0.4898843541741371,0.6399838402867317,1946.2665349394083,test,2,,,,,,,,,1943.7790833115578,1944.2785088345408,1944.2785088345408,1944.2785088345408,1944.428647622466,1944.9290758222342,1945.2796286940575,1946.2858457118273,left,1,0.32845424115657806,0.1,,,,,,,,,,,s042,001,2024-09-27_10h57.32.864,simplestop_skeleton,2022.2.2,59.855481038932496,
$currentCorrectResponse,$currentGoStim,,,,,,,,,1,0,1,0,4,3,19,0,,,,,,,,,1946.2669825702906,go,squareblack.png,right,0.1,,,,,,,,,,,,,,,,0.001811884343624115,0.48969949036836624,,1948.7693225294352,test,2,,,,,,,,,1946.2858457118273,1946.7824617400765,1946.7824617400765,1946.7992233783007,1946.8827242478728,1947.3832055553794,1947.7821923196316,1948.78858807683,right,1,0.4646649435162544,0.1,,,,,,,,,,,s042,001,2024-09-27_10h57.32.864,simplestop_skeleton,2022.2.2,59.855481038932496,
None,None,,,,,,,,,1,0,1,0,5,0,20,1,,,,,,,,,1948.7697701901197,stop,squareblack.png,right,0.1,,,,,,,,,,,,,,,,0.00133465975522995,0.48791777342557907,0.5895636826753616,1951.2705574333668,test,2,,,,,,,,,1948.78858807683,1949.2839288562536,1949.2839288562536,1949.3005704805255,1949.386547461152,1949.9011933654547,1950.2849151492119,1951.2872509285808,None,0,,0.15,,,,,,,,,,,s042,001,2024-09-27_10h57.32.864,simplestop_skeleton,2022.2.2,59.855481038932496,
$currentCorrectResponse,$currentGoStim,,,,,,,,,1,0,1,0,5,1,21,0,,,,,,,,,1951.2711101844907,go,squareblack.png,right,0.15,,,,,,,,,,,,,,,,0.0011924877762794495,0.48973800241947174,,1953.7746862620115,test,2,,,,,,,,,1951.2872509285808,1951.7866183891892,1951.7866183891892,1951.7866183891892,1951.9368113726377,1952.4375409334898,1952.7879069224,1953.7948608100414,right,1,0.45539210736751556,0.15,,,,,,,,,,,s042,001,2024-09-27_10h57.32.864,simplestop_skeleton,2022.2.2,59.855481038932496,
$currentCorrectResponse,$currentGoStim,,,,,,,,,1,0,1,0,5,2,22,0,,,,,,,,,1953.7751162052155,go,squareblack.png,right,0.15,,,,,,,,,,,,,,,,0.0016105026006698608,0.48764943331480026,,1956.2761470079422,test,2,,,,,,,,,1953.7948608100414,1954.2907881513238,1954.2907881513238,1954.307478711009,1954.4411658421159,1954.9416701942682,1955.2905493825674,1956.2928986921906,right,1,0.4345394894480705,0.15,,,,,,,,,,,s042,001,2024-09-27_10h57.32.864,simplestop_skeleton,2022.2.2,59.855481038932496,
None,None,,,,,,,,,1,0,1,0,5,3,23,3,,,,,,,,,1956.2765820771456,go,squareblack.png,right,0.15,,,,,,,,,,,,,,,,0.001194588840007782,0.49020279943943024,,1958.7788548320532,test,2,,,,,,,,,1956.2928986921906,1956.792072251439,1956.792072251439,1956.792072251439,1956.9423154592514,1957.4430381953716,1957.7931623533368,1958.8021443933249,right,1,0.45959897339344025,0.15,,,,,,,,,,,s042,001,2024-09-27_10h57.32.864,simplestop_skeleton,2022.2.2,59.855481038932496,
None,None,,,,,,,,,1,0,1,0,6,0,24,1,,,,,,,,,1958.7792926207185,stop,circleblack.png,left,0.15,,,,,,,,,,,,,,,,0.00811612606048584,0.48956412822008133,0.6394572705030441,1961.2824174538255,test,2,,,,,,,,,1958.8021443933249,1959.2955568432808,1959.2955568432808,1959.312301285565,1959.4452357515693,1959.9456256479025,1960.2978669926524,1961.2994837164879,None,0,,0.2,,,,,,,,,,,s042,001,2024-09-27_10h57.32.864,simplestop_skeleton,2022.2.2,59.855481038932496,
None,None,,,,,,,,,1,0,1,0,6,1,25,2,,,,,,,,,1961.2828758433461,go,circleblack.png,left,0.2,,,,,,,,,,,,,,,,0.0012594163417816162,0.49021514505147934,,1963.7843563482165,test,2,,,,,,,,,1961.2994837164879,1961.7990973070264,1961.7990973070264,1961.7990973070264,1961.9993620291352,1962.5000560730696,1962.7988673076034,1963.8038900643587,left,1,0.5005573630332947,0.2,,,,,,,,,,,s042,001,2024-09-27_10h57.32.864,simplestop_skeleton,2022.2.2,59.855481038932496,
None,None,,,,,,,,,1,0,1,0,6,2,26,3,,,,,,,,,1963.7847961261868,go,squareblack.png,right,0.2,,,,,,,,,,,,,,,,0.001994200050830841,0.488167479634285,,1966.287267304957,test,2,,,,,,,,,1963.8038900643587,1964.3004611581564,1964.3004611581564,1964.3176829442382,1964.5006616264582,1965.001286894083,1965.3014907836914,1966.3043368831277,right,1,0.37304358929395676,0.2,,,,,,,,,,,s042,001,2024-09-27_10h57.32.864,simplestop_skeleton,2022.2.2,59.855481038932496,
None,None,,,,,,,,,1,0,1,0,6,3,27,2,,,,,,,,,1966.2877216935158,stop,squareblack.png,right,0.2,,,,,,,,,,,,,,,,0.0012442916631698608,0.48946432769298553,0.6896028369665146,1968.7914957106113,test,2,,,,,,,,,1966.3043368831277,1966.803103134036,1966.803103134036,1966.819860368967,1967.0036844685674,1967.5041218996048,1967.804453022778,1968.8112359568477,None,0,,0.25,,,,,,,,,,,s042,001,2024-09-27_10h57.32.864,simplestop_skeleton,2022.2.2,59.855481038932496,
$currentCorrectResponse,$currentGoStim,,,,,,,,,1,0,1,0,7,0,28,0,,,,,,,,,1968.7919512465596,stop,circleblack.png,left,0.25,,,,,,,,,,,,,,,,0.0020008310675621033,0.4894273951649666,0.7398709058761597,1971.294173374772,test,2,,,,,,,,,1968.8112359568477,1969.3072802871466,1969.3072802871466,1969.3240078389645,1969.5575944334269,1970.056836642325,1970.306950956583,1971.3139853551984,left,1,0.36867106705904007,0.2,,,,,,,,,,,s042,001,2024-09-27_10h57.32.864,simplestop_skeleton,2022.2.2,59.855481038932496,
None,None,,,,,,,,,1,0,1,0,7,1,29,1,,,,,,,,,1971.2946397513151,go,squareblack.png,right,0.2,,,,,,,,,,,,,,,,0.001752018928527832,0.4879234507679939,,1973.795458137989,test,2,,,,,,,,,1971.3139853551984,1971.8086852431297,1971.8086852431297,1971.8252637386322,1972.0096050947905,1972.5094946995378,1972.8097382113338,1973.8126749247313,right,1,0.3919370025396347,0.2,,,,,,,,,,,s042,001,2024-09-27_10h57.32.864,simplestop_skeleton,2022.2.2,59.855481038932496,
None,None,,,,,,,,,1,0,1,0,7,2,30,2,,,,,,,,,1973.7959091216326,go,circleblack.png,left,0.2,,,,,,,,,,,,,,,,0.00178518146276474,0.48988236486911774,,1976.2995765507221,test,2,,,,,,,,,1973.8126749247313,1974.3115813583136,1974.3115813583136,1974.3284592181444,1974.511846728623,1975.012313105166,1975.3127991631627,1976.3188696801662,left,1,0.33993447571992874,0.2,,,,,,,,,,,s042,001,2024-09-27_10h57.32.864,simplestop_skeleton,2022.2.2,59.855481038932496,
None,None,,,,,,,,,1,0,1,0,7,3,31,3,,,,,,,,,1976.3000310659409,go,circleblack.png,left,0.2,,,,,,,,,,,,,,,,0.0013264119625091553,0.48966480791568756,,1978.8024490848184,test,2,,,,,,,,,1976.3188696801662,1976.8156893402338,1976.8156893402338,1976.832334190607,1977.0159372612834,1977.51509655267,1977.815281741321,1978.823286689818,left,1,0.3726819232106209,0.2,,,,,,,,,,,s042,001,2024-09-27_10h57.32.864,simplestop_skeleton,2022.2.2,59.855481038932496,
$currentCorrectResponse,$currentGoStim,,,,,,,,,1,0,1,0,8,0,32,0,,,,,,,,,1978.802899055183,stop,squareblack.png,right,0.2,,,,,,,,,,,,,,,,0.0023859813809394836,0.4867377504706383,0.6870756596326828,1981.3039028048515,test,2,,,,,,,,,1978.823286689818,1979.3179744780064,1979.3179744780064,1979.3358654379845,1979.5174156427383,1980.0177467539907,1980.3185144290328,1981.334927663207,None,0,,0.25,,,,,,,,,,,s042,001,2024-09-27_10h57.32.864,simplestop_skeleton,2022.2.2,59.855481038932496,
None,None,,,,,,,,,1,0,1,0,8,1,33,1,,,,,,,,,1981.3043416440487,go,squareblack.png,right,0.25,,,,,,,,,,,,,,,,0.0011784955859184265,0.4895447641611099,,1983.8080500811338,test,2,,,,,,,,,1981.334927663207,1981.8198210299015,1981.8198210299015,1981.8363777920604,1982.0699830576777,1982.5706814602017,1982.821077875793,1983.8272770643234,right,1,0.3242015615105629,0.25,,,,,,,,,,,s042,001,2024-09-27_10h57.32.864,simplestop_skeleton,2022.2.2,59.855481038932496,
None,None,,,,,,,,,1,0,1,0,8,2,34,2,,,,,,,,,1983.808502279222,go,circleblack.png,left,0.25,,,,,,,,,,,,,,,,0.0019384026527404785,0.48967867344617844,,1986.3092519268394,test,2,,,,,,,,,1983.8272770643234,1984.324051834643,1984.324051834643,1984.3406340181828,1984.5741984173656,1985.0734645575285,1985.3235547170043,1986.32645932585,left,1,0.3339293897151947,0.25,,,,,,,,,,,s042,001,2024-09-27_10h57.32.864,simplestop_skeleton,2022.2.2,59.855481038932496,
None,None,,,,,,,,,1,0,1,0,8,3,35,2,,,,,,,,,1986.3096927031875,go,squareblack.png,right,0.25,,,,,,,,,,,,,,,,0.0017017051577568054,0.48966722935438156,,1988.8120020925999,test,2,,,,,,,,,1986.32645932585,1986.825343951583,1986.825343951583,1986.8419922068715,1987.0758313834667,1987.5760574489832,1987.8263637274504,1988.8293030932546,right,1,0.2899731993675232,0.25,,,,,,,,,,,s042,001,2024-09-27_10h57.32.864,simplestop_skeleton,2022.2.2,59.855481038932496,
None,None,,,,,,,,,1,0,1,0,9,0,36,2,,,,,,,,,1988.8124705180526,go,circleblack.png,left,0.25,,,,,,,,,,,,,,,,0.001721017062664032,0.49015264958143234,,1991.3161663040519,test,2,,,,,,,,,1988.8293030932546,1989.3286483064294,1989.3286483064294,1989.3286483064294,1989.5783030837774,1990.0790493637323,1990.3292121812701,1991.335130624473,left,1,0.30093932896852493,0.25,,,,,,,,,,,s042,001,2024-09-27_10h57.32.864,simplestop_skeleton,2022.2.2,59.855481038932496,
None,None,,,,,,,,,1,0,1,0,9,1,37,3,,,,,,,,,1991.3166060373187,go,squareblack.png,right,0.25,,,,,,,,,,,,,,,,0.0016674697399139404,0.4897547885775566,,1993.8195932209492,test,2,,,,,,,,,1991.335130624473,1991.8323317691684,1991.8323317691684,1991.848941296339,1992.0825801715255,1992.5819351524115,1992.8318272009492,1993.8400921449065,right,1,0.45122605562210083,0.25,,,,,,,,,,,s042,001,2024-09-27_10h57.32.864,simplestop_skeleton,2022.2.2,59.855481038932496,
None,None,,,,,,,,,1,0,1,0,9,2,38,1,,,,,,,,,1993.8200843855739,go,squareblack.png,right,0.25,,,,,,,,,,,,,,,,0.0019538700580596924,0.48616626113653183,,1996.3209891095757,test,2,,,,,,,,,1993.8400921449065,1994.333544306457,1994.333544306457,1994.3503520414233,1994.583911843598,1995.0843983143568,1995.3346597328782,1996.3393640220165,right,1,0.39411796629428864,0.25,,,,,,,,,,,s042,001,2024-09-27_10h57.32.864,simplestop_skeleton,2022.2.2,59.855481038932496,
$currentCorrectResponse,$currentGoStim,,,,,,,,,1,0,1,0,9,3,39,0,,,,,,,,,1996.3217631727457,go,squareblack.png,right,0.25,,,,,,,,,,,,,,,,0.001554928719997406,0.4882383421063423,,1998.823887012899,test,2,,,,,,,,,1996.3393640220165,1996.8364029452205,1996.8364029452205,1996.853214085102,1997.0866535305977,1997.587375573814,1997.8377225920558,1998.8419400528073,right,1,0.3887888267636299,0.25,,,,,,,,,,,s042,001,2024-09-27_10h57.32.864,simplestop_skeleton,2022.2.2,59.855481038932496,
None,None,,,,,,,,,1,0,1,0,10,0,40,2,,,,,,,,,1998.8243190422654,stop,circleblack.png,left,0.25,,,,,,,,,,,,,,,,0.002031758427619934,0.49032725393772125,0.7405607774853706,2001.3275355100632,test,2,,,,,,,,,1998.8419400528073,1999.3405724018812,1999.3405724018812,1999.3573388159275,1999.5908898860216,2000.0902163684368,2000.3401942625642,2001.3472077324986,left,1,0.35731738060712814,0.2,,,,,,,,,,,s042,001,2024-09-27_10h57.32.864,simplestop_skeleton,2022.2.2,59.855481038932496,
$currentCorrectResponse,$currentGoStim,,,,,,,,,1,0,1,0,10,1,41,0,,,,,,,,,2001.3279823213816,stop,squareblack.png,right,0.2,,,,,,,,,,,,,,,,0.0018991604447364807,0.4879443272948265,0.6881230995059013,2003.8286611661315,test,2,,,,,,,,,2001.3472077324986,2001.8418497815728,2001.8418497815728,2001.8585172072053,2002.042824499309,2002.5426049530506,2002.8428915068507,2003.8460425138474,None,0,,0.25,,,,,,,,,,,s042,001,2024-09-27_10h57.32.864,simplestop_skeleton,2022.2.2,59.855481038932496,
None,None,,,,,,,,,1,0,1,0,10,2,42,2,,,,,,,,,2003.8291019275784,go,circleblack.png,left,0.25,,,,,,,,,,,,,,,,0.0017555654048919678,0.48973221331834793,,2006.332159101963,test,2,,,,,,,,,2003.8460425138474,2004.3447978645563,2004.3447978645563,2004.3614663109183,2004.5948421359062,2005.0956626459956,2005.3458268940449,2006.3491763323545,left,1,0.4077449291944504,0.25,,,,,,,,,,,s042,001,2024-09-27_10h57.32.864,simplestop_skeleton,2022.2.2,59.855481038932496,
None,None,,,,,,,,,1,0,1,0,10,3,43,2,,,,,,,,,2006.3325940743089,stop,circleblack.png,left,0.25,,,,,,,,,,,,,,,,0.0012619346380233765,0.4903855472803116,0.7407124042510986,2008.8344558253884,test,2,,,,,,,,,2006.3491763323545,2006.8489150851965,2006.8489150851965,2006.8489150851965,2007.0989905893803,2007.5982364490628,2007.8483909517527,2008.8536696135998,left,1,0.4614097774028778,0.2,,,,,,,,,,,s042,001,2024-09-27_10h57.32.864,simplestop_skeleton,2022.2.2,59.855481038932496,
None,None,,,,,,,,,1,0,1,0,11,0,44,2,,,,,,,,,2008.834928996861,go,squareblack.png,right,0.2,,,,,,,,,,,,,,,,0.0016781538724899292,0.487721785902977,,2011.3369795829058,test,2,,,,,,,,,2008.8536696135998,2009.3501090332866,2009.3501090332866,2009.3668319508433,2009.5504439771175,2010.0509067475796,2010.3511409163475,2011.3543941676617,right,1,0.5919228494167328,0.2,,,,,,,,,,,s042,001,2024-09-27_10h57.32.864,simplestop_skeleton,2022.2.2,59.855481038932496,
None,None,,,,,,,,,1,0,1,0,11,1,45,1,,,,,,,,,2011.3374487608671,go,circleblack.png,left,0.2,,,,,,,,,,,,,,,,0.001704879105091095,0.4895705580711365,,2013.8404080048203,test,2,,,,,,,,,2011.3543941676617,2011.8531900197268,2011.8531900197268,2011.8696145787835,2012.053294889629,2012.5536347329617,2012.8551648631692,2013.8574621081352,left,1,0.2843998894095421,0.2,,,,,,,,,,,s042,001,2024-09-27_10h57.32.864,simplestop_skeleton,2022.2.2,59.855481038932496,
$currentCorrectResponse,$currentGoStim,,,,,,,,,1,0,1,0,11,2,46,0,,,,,,,,,2013.8408677503467,go,circleblack.png,left,0.2,,,,,,,,,,,,,,,,0.0012637823820114136,0.49027077853679657,,2016.3423606604338,test,2,,,,,,,,,2013.8574621081352,2014.3569499477744,2014.3569499477744,2014.3569499477744,2014.5574180930853,2015.0565137714148,2015.3567321226,2016.359745748341,left,1,0.338583268225193,0.2,,,,,,,,,,,s042,001,2024-09-27_10h57.32.864,simplestop_skeleton,2022.2.2,59.855481038932496,
$currentCorrectResponse,$currentGoStim,,,,,,,,,1,0,1,0,11,3,47,0,,,,,,,,,2016.3427975550294,stop,squareblack.png,right,0.2,,,,,,,,,,,,,,,,0.0016037151217460632,0.4916607588529587,0.689957782626152,2018.8453738838434,test,2,,,,,,,,,2016.359745748341,2016.8585911020637,2016.8585911020637,2016.8585911020637,2017.0591208562255,2017.5592032149434,2017.8594581335783,2018.8665174618363,right,1,0.3645610958337784,0.15,,,,,,,,,,,s042,001,2024-09-27_10h57.32.864,simplestop_skeleton,2022.2.2,59.855481038932496,
,,,,,,,,,,1,0,1,0,,,,,,,,,,,,,,,,,,,,,,,,,,,,,,,,,,,,,,,,,,,,,,,,,,,,,,,,,,,2018.8665174618363,2018.8665174618363,return,2.4657450318336487,"[{'fileName': 'squareblack.png', 'correct_response': 'right', 'condition': 'stop'}, {'fileName': 'squareblack.png', 'correct_response': 'right', 'condition': 'go'}, {'fileName': 'squareblack.png', 'correct_response': 'right', 'condition': 'go'}, {'fileName': 'circleblack.png', 'correct_response': 'left', 'condition': 'stop'}, {'fileName': 'circleblack.png', 'correct_response': 'left', 'condition': 'go'}, {'fileName': 'circleblack.png', 'correct_response': 'left', 'condition': 'stop'}, {'fileName': 'squareblack.png', 'correct_response': 'right', 'condition': 'stop'}, {'fileName': 'circleblack.png', 'correct_response': 'left', 'condition': 'go'}, {'fileName': 'circleblack.png', 'correct_response': 'left', 'condition': 'go'}, {'fileName': 'circleblack.png', 'correct_response': 'left', 'condition': 'go'}, {'fileName': 'squareblack.png', 'correct_response': 'right', 'condition': 'go'}, {'fileName': 'squareblack.png', 'correct_response': 'right', 'condition': 'go'}, {'fileName': 'circleblack.png', 'correct_response': 'left', 'condition': 'go'}, {'fileName': 'circleblack.png', 'correct_response': 'left', 'condition': 'stop'}, {'fileName': 'squareblack.png', 'correct_response': 'right', 'condition': 'stop'}, {'fileName': 'circleblack.png', 'correct_response': 'left', 'condition': 'go'}, {'fileName': 'squareblack.png', 'correct_response': 'right', 'condition': 'go'}, {'fileName': 'circleblack.png', 'correct_response': 'left', 'condition': 'go'}, {'fileName': 'squareblack.png', 'correct_response': 'right', 'condition': 'stop'}, {'fileName': 'squareblack.png', 'correct_response': 'right', 'condition': 'go'}, {'fileName': 'circleblack.png', 'correct_response': 'left', 'condition': 'go'}, {'fileName': 'circleblack.png', 'correct_response': 'left', 'condition': 'stop'}, {'fileName': 'squareblack.png', 'correct_response': 'right', 'condition': 'go'}, {'fileName': 'squareblack.png', 'correct_response': 'right', 'condition': 'go'}, {'fileName': 'squareblack.png', 'correct_response': 'right', 'condition': 'stop'}, {'fileName': 'circleblack.png', 'correct_response': 'left', 'condition': 'go'}, {'fileName': 'squareblack.png', 'correct_response': 'right', 'condition': 'go'}, {'fileName': 'circleblack.png', 'correct_response': 'left', 'condition': 'go'}, {'fileName': 'circleblack.png', 'correct_response': 'left', 'condition': 'stop'}, {'fileName': 'squareblack.png', 'correct_response': 'right', 'condition': 'go'}, {'fileName': 'circleblack.png', 'correct_response': 'left', 'condition': 'stop'}, {'fileName': 'circleblack.png', 'correct_response': 'left', 'condition': 'go'}, {'fileName': 'squareblack.png', 'correct_response': 'right', 'condition': 'stop'}, {'fileName': 'squareblack.png', 'correct_response': 'right', 'condition': 'go'}, {'fileName': 'circleblack.png', 'correct_response': 'left', 'condition': 'go'}, {'fileName': 'squareblack.png', 'correct_response': 'right', 'condition': 'go'}, {'fileName': 'squareblack.png', 'correct_response': 'right', 'condition': 'go'}, {'fileName': 'squareblack.png', 'correct_response': 'right', 'condition': 'go'}, {'fileName': 'circleblack.png', 'correct_response': 'left', 'condition': 'stop'}, {'fileName': 'squareblack.png', 'correct_response': 'right', 'condition': 'stop'}, {'fileName': 'circleblack.png', 'correct_response': 'left', 'condition': 'go'}, {'fileName': 'circleblack.png', 'correct_response': 'left', 'condition': 'go'}, {'fileName': 'squareblack.png', 'correct_response': 'right', 'condition': 'stop'}, {'fileName': 'squareblack.png', 'correct_response': 'right', 'condition': 'go'}, {'fileName': 'circleblack.png', 'correct_response': 'left', 'condition': 'stop'}, {'fileName': 'circleblack.png', 'correct_response': 'left', 'condition': 'go'}, {'fileName': 'circleblack.png', 'correct_response': 'left', 'condition': 'go'}, {'fileName': 'squareblack.png', 'correct_response': 'right', 'condition': 'go'}]",,,,,,s042,001,2024-09-27_10h57.32.864,simplestop_skeleton,2022.2.2,59.855481038932496,
$currentCorrectResponse,$currentGoStim,,,,,,,,,2,0,2,0,0,0,0,0,,,,,,,,,2021.3764373064041,stop,squareblack.png,right,0.15,,,,,,,,,,,,,,,,0.0012068673968315125,0.49583664536476135,0.6460077911615372,2023.885469853878,test,3,,,,,,,,,2021.395605057478,2021.8987575024366,2021.8987575024366,2021.8987575024366,2022.0490117147565,2022.5497793927789,2022.8998393788934,2023.9042905643582,None,0,,0.2,,,,,,,,,,,s042,001,2024-09-27_10h57.32.864,simplestop_skeleton,2022.2.2,59.855481038932496,
$currentCorrectResponse,$currentGoStim,,,,,,,,,2,0,2,0,0,1,1,0,,,,,,,,,2023.8860177397728,go,squareblack.png,right,0.2,,,,,,,,,,,,,,,,0.0013539493083953857,0.48960161209106445,,2026.3869346827269,test,3,,,,,,,,,2023.9042905643582,2024.4014195427299,2024.4014195427299,2024.4181751832366,2024.6020040288568,2025.1024467796087,2025.4012819305062,2026.4041671454906,right,1,0.49352259933948517,0.2,,,,,,,,,,,s042,001,2024-09-27_10h57.32.864,simplestop_skeleton,2022.2.2,59.855481038932496,
None,None,,,,,,,,,2,0,2,0,0,2,2,2,,,,,,,,,2026.3873789310455,go,squareblack.png,right,0.2,,,,,,,,,,,,,,,,0.0012310892343521118,0.48946305364370346,,2028.8909455165267,test,3,,,,,,,,,2026.4041671454906,2026.9028564542532,2026.9028564542532,2026.919534355402,2027.1030657887459,2027.603668615222,2027.9038947448134,2028.9137675985694,right,1,0.2783762887120247,0.2,,,,,,,,,,,s042,001,2024-09-27_10h57.32.864,simplestop_skeleton,2022.2.2,59.855481038932496,
None,None,,,,,,,,,2,0,2,0,0,3,3,2,,,,,,,,,2028.891384370625,stop,circleblack.png,left,0.2,,,,,,,,,,,,,,,,0.007695257663726807,0.48800017684698105,0.6883914992213249,2031.3923782259226,test,3,,,,,,,,,2028.9137675985694,2029.4056942164898,2029.4056942164898,2029.423166513443,2029.6059032604098,2030.106306374073,2030.4067360311747,2031.4092290848494,left,1,0.4018847867846489,0.15,,,,,,,,,,,s042,001,2024-09-27_10h57.32.864,simplestop_skeleton,2022.2.2,59.855481038932496,
None,None,,,,,,,,,2,0,2,0,1,0,4,2,,,,,,,,,2031.3928266093135,go,circleblack.png,left,0.15,,,,,,,,,,,,,,,,0.0013798624277114868,0.48978468775749207,,2033.896436624229,test,3,,,,,,,,,2031.4092290848494,2031.9086116030812,2031.9086116030812,2031.9086116030812,2032.0584978163242,2032.559057302773,2032.909767396748,2033.9157420620322,left,1,0.31152239441871643,0.15,,,,,,,,,,,s042,001,2024-09-27_10h57.32.864,simplestop_skeleton,2022.2.2,59.855481038932496,
$currentCorrectResponse,$currentGoStim,,,,,,,,,2,0,2,0,1,1,5,0,,,,,,,,,2033.8968853503466,stop,circleblack.png,left,0.15,,,,,,,,,,,,,,,,0.0012903586030006409,0.4901096895337105,0.6398928835988045,2036.3980467692018,test,3,,,,,,,,,2033.9157420620322,2034.4124545305967,2034.4124545305967,2034.4290994852781,2034.5625592768192,2035.063544049859,2035.4123548567295,2036.4163564294577,left,1,0.3062813803553581,0.1,,,,,,,,,,,s042,001,2024-09-27_10h57.32.864,simplestop_skeleton,2022.2.2,59.855481038932496,
None,None,,,,,,,,,2,0,2,0,1,2,6,3,,,,,,,,,2036.3985151201487,stop,squareblack.png,right,0.1,,,,,,,,,,,,,,,,0.0017365813255310059,0.48873672634363174,0.5888150483369827,2038.9007742777467,test,3,,,,,,,,,2036.4163564294577,2036.9139938727021,2036.9139938727021,2036.93053548038,2037.0139592662454,2037.5144644603133,2037.9150787517428,2038.9191844910383,None,0,,0.15,,,,,,,,,,,s042,001,2024-09-27_10h57.32.864,simplestop_skeleton,2022.2.2,59.855481038932496,
None,None,,,,,,,,,2,0,2,0,1,3,7,2,,,,,,,,,2038.90121178329,go,circleblack.png,left,0.15,,,,,,,,,,,,,,,,0.0018108561635017395,0.4905726760625839,,2041.4033057391644,test,3,,,,,,,,,2038.9191844910383,2039.4174335375428,2039.4174335375428,2039.4174335375428,2039.5686264708638,2040.084015019238,2040.4181451946497,2041.4203320890665,left,1,0.4082576856017113,0.15,,,,,,,,,,,s042,001,2024-09-27_10h57.32.864,simplestop_skeleton,2022.2.2,59.855481038932496,
None,None,,,,,,,,,2,0,2,0,2,0,8,1,,,,,,,,,2041.403745956719,go,circleblack.png,left,0.15,,,,,,,,,,,,,,,,0.0012361183762550354,0.48962610960006714,,2043.9067787900567,test,3,,,,,,,,,2041.4203320890665,2041.919563062489,2041.919563062489,2041.919563062489,2042.0694417580962,2042.570297025144,2042.9205973818898,2043.9242755919695,left,1,0.33503204584121704,0.15,,,,,,,,,,,s042,001,2024-09-27_10h57.32.864,simplestop_skeleton,2022.2.2,59.855481038932496,
$currentCorrectResponse,$currentGoStim,,,,,,,,,2,0,2,0,2,1,9,0,,,,,,,,,2043.9072386398911,go,circleblack.png,left,0.15,,,,,,,,,,,,,,,,0.0013471469283103943,0.4901546984910965,,2046.4115664362907,test,3,,,,,,,,,2043.9242755919695,2044.42353194952,2044.42353194952,2044.42353194952,2044.5736507549882,2045.0747555419803,2045.4232431054115,2046.4386794567108,left,1,0.3894905000925064,0.15,,,,,,,,,,,s042,001,2024-09-27_10h57.32.864,simplestop_skeleton,2022.2.2,59.855481038932496,
None,None,,,,,,,,,2,0,2,0,2,2,10,1,,,,,,,,,2046.4123379737139,go,squareblack.png,right,0.15,,,,,,,,,,,,,,,,0.007587164640426636,0.4845379590988159,,2048.9122327417135,test,3,,,,,,,,,2046.4386794567108,2046.9249367415905,2046.9249367415905,2046.941534422338,2047.0751100555062,2047.5756471306086,2047.926054470241,2048.929453499615,right,1,0.37708578258752823,0.15,,,,,,,,,,,s042,001,2024-09-27_10h57.32.864,simplestop_skeleton,2022.2.2,59.855481038932496,
None,None,,,,,,,,,2,0,2,0,2,3,11,3,,,,,,,,,2048.912847444415,go,squareblack.png,right,0.15,,,,,,,,,,,,,,,,0.0011669471859931946,0.48880351334810257,,2051.4144523739815,test,3,,,,,,,,,2048.929453499615,2049.427786760032,2049.427786760032,2049.4444089904428,2049.5779373422265,2050.0782689377666,2050.4297425299883,2051.4320927783847,right,1,0.3633034825325012,0.15,,,,,,,,,,,s042,001,2024-09-27_10h57.32.864,simplestop_skeleton,2022.2.2,59.855481038932496,
None,None,,,,,,,,,2,0,2,0,3,0,12,1,,,,,,,,,2051.4149059057236,go,circleblack.png,left,0.15,,,,,,,,,,,,,,,,0.0019037798047065735,0.4894227311015129,,2053.918570049107,test,3,,,,,,,,,2051.4320927783847,2051.930309548974,2051.930309548974,2051.9470008462667,2052.080497533083,2052.5811379253864,2052.931662723422,2053.937551163137,left,1,0.32092756778001785,0.15,,,,,,,,,,,s042,001,2024-09-27_10h57.32.864,simplestop_skeleton,2022.2.2,59.855481038932496,
$currentCorrectResponse,$currentGoStim,,,,,,,,,2,0,2,0,3,1,13,0,,,,,,,,,2053.919023901224,stop,circleblack.png,left,0.15,,,,,,,,,,,,,,,,0.00139579176902771,0.48997607082128525,0.6399003118276596,2056.420424833894,test,3,,,,,,,,,2053.937551163137,2054.434639647603,2054.434639647603,2054.451208129525,2054.584785707295,2055.0839790701866,2055.434270016849,2056.437272273004,left,1,0.29128897190093994,0.1,,,,,,,,,,,s042,001,2024-09-27_10h57.32.864,simplestop_skeleton,2022.2.2,59.855481038932496,
None,None,,,,,,,,,2,0,2,0,3,2,14,1,,,,,,,,,2056.4208750873804,stop,squareblack.png,right,0.1,,,,,,,,,,,,,,,,0.0015841349959373474,0.48919743299484253,0.5915812253952026,2058.922900952399,test,3,,,,,,,,,2056.437272273004,2056.935962423682,2056.935962423682,2056.952578037977,2057.036108009517,2057.5365896523,2057.9370248243213,2058.940284624696,None,0,,0.15,,,,,,,,,,,s042,001,2024-09-27_10h57.32.864,simplestop_skeleton,2022.2.2,59.855481038932496,
None,None,,,,,,,,,2,0,2,0,3,3,15,3,,,,,,,,,2058.9233941733837,go,circleblack.png,left,0.15,,,,,,,,,,,,,,,,0.0017143115401268005,0.48954685032367706,,2061.4264801219106,test,3,,,,,,,,,2058.940284624696,2059.4387724474072,2059.4387724474072,2059.455591149628,2059.588925138116,2060.0893374681473,2060.4411168769,2061.4441632702947,left,1,0.3873673900961876,0.15,,,,,,,,,,,s042,001,2024-09-27_10h57.32.864,simplestop_skeleton,2022.2.2,59.855481038932496,
None,None,,,,,,,,,2,0,2,0,4,0,16,2,,,,,,,,,2061.4269205629826,go,squareblack.png,right,0.15,,,,,,,,,,,,,,,,0.0016642436385154724,0.489892914891243,,2063.9289276003838,test,3,,,,,,,,,2061.4441632702947,2061.9428952410817,2061.9428952410817,2061.9595055133104,2062.0931096598506,2062.5936482548714,2062.9426691532135,2063.9470910802484,right,1,0.501453123986721,0.15,,,,,,,,,,,s042,001,2024-09-27_10h57.32.864,simplestop_skeleton,2022.2.2,59.855481038932496,
None,None,,,,,,,,,2,0,2,0,4,1,17,3,,,,,,,,,2063.929373472929,go,circleblack.png,left,0.15,,,,,,,,,,,,,,,,0.0019749701023101807,0.48890770971775055,,2066.4310809597373,test,3,,,,,,,,,2063.9470910802484,2064.4442247524858,2064.4442247524858,2064.4609580487013,2064.5944897681475,2065.0951582714915,2065.445407472551,2066.4484564214945,left,1,0.3455815538764,0.15,,,,,,,,,,,s042,001,2024-09-27_10h57.32.864,simplestop_skeleton,2022.2.2,59.855481038932496,
$currentCorrectResponse,$currentGoStim,,,,,,,,,2,0,2,0,4,2,18,0,,,,,,,,,2066.4316642582417,stop,squareblack.png,right,0.15,,,,,,,,,,,,,,,,0.0016360506415367126,0.4900788366794586,0.6398282200098038,2068.9359642490745,test,3,,,,,,,,,2066.4484564214945,2066.947747923434,2066.947747923434,2066.963775038719,2067.097224250436,2067.5977999716997,2067.9481562674046,2068.953468583524,None,0,,0.2,,,,,,,,,,,s042,001,2024-09-27_10h57.32.864,simplestop_skeleton,2022.2.2,59.855481038932496,
None,None,,,,,,,,,2,0,2,0,4,3,19,1,,,,,,,,,2068.9364143535495,go,squareblack.png,right,0.2,,,,,,,,,,,,,,,,0.0017109513282775879,0.4886522814631462,,2071.438592724502,test,3,,,,,,,,,2068.953468583524,2069.45142275095,2069.45142275095,2069.4679772630334,2069.6515075042844,2070.1507627740502,2070.450868912041,2071.4604600816965,right,1,0.4007217288017273,0.2,,,,,,,,,,,s042,001,2024-09-27_10h57.32.864,simplestop_skeleton,2022.2.2,59.855481038932496,
None,None,,,,,,,,,2,0,2,0,5,0,20,2,,,,,,,,,2071.4390733614564,go,circleblack.png,left,0.2,,,,,,,,,,,,,,,,0.0027687102556228638,0.4859221652150154,,2073.9417790919542,test,3,,,,,,,,,2071.4604600816965,2071.9524816572666,2071.9524816572666,2071.9693251103163,2072.15317799896,2072.655336290598,2072.953577518463,2073.962227858603,left,1,0.3895995020866394,0.2,,,,,,,,,,,s042,001,2024-09-27_10h57.32.864,simplestop_skeleton,2022.2.2,59.855481038932496,
None,None,,,,,,,,,2,0,2,0,5,1,21,3,,,,,,,,,2073.9422548264265,stop,circleblack.png,left,0.2,,,,,,,,,,,,,,,,0.0018439516425132751,0.485546350479126,0.6877570748329163,2076.442000128329,test,3,,,,,,,,,2073.962227858603,2074.4553327187896,2074.4553327187896,2074.471989452839,2074.6555554792285,2075.1559751033783,2075.4563421681523,2076.459348589182,None,0,,0.25,,,,,,,,,,,s042,001,2024-09-27_10h57.32.864,simplestop_skeleton,2022.2.2,59.855481038932496,
None,None,,,,,,,,,2,0,2,0,5,2,22,1,,,,,,,,,2076.44245390594,go,squareblack.png,right,0.25,,,,,,,,,,,,,,,,0.001598261296749115,0.4898344874382019,,2078.9458867684007,test,3,,,,,,,,,2076.459348589182,2076.9582943469286,2076.9582943469286,2076.974988915026,2077.208416417241,2077.708869114518,2077.959218993783,2078.9620861411095,right,1,0.3870795890688896,0.25,,,,,,,,,,,s042,001,2024-09-27_10h57.32.864,simplestop_skeleton,2022.2.2,59.855481038932496,
None,None,,,,,,,,,2,0,2,0,5,3,23,3,,,,,,,,,2078.946325570345,go,squareblack.png,right,0.25,,,,,,,,,,,,,,,,0.0011912360787391663,0.4899543523788452,,2081.4480150491,test,3,,,,,,,,,2078.9620861411095,2079.462090551853,2079.462090551853,2079.462090551853,2079.71262999624,2080.2134447470307,2080.4621146693826,2081.465656504035,right,1,0.41776347160339355,0.25,,,,,,,,,,,s042,001,2024-09-27_10h57.32.864,simplestop_skeleton,2022.2.2,59.855481038932496,
None,None,,,,,,,,,2,0,2,0,6,0,24,2,,,,,,,,,2081.4484850913286,stop,squareblack.png,right,0.25,,,,,,,,,,,,,,,,0.001252681016921997,0.48879482597112656,0.7392260432243347,2083.9505536332726,test,3,,,,,,,,,2081.465656504035,2081.9635585173965,2081.9635585173965,2081.9805966094136,2082.2137934565544,2082.7143268957734,2082.9646257460117,2083.9736245572567,right,1,0.37472012639045715,0.2,,,,,,,,,,,s042,001,2024-09-27_10h57.32.864,simplestop_skeleton,2022.2.2,59.855481038932496,
$currentCorrectResponse,$currentGoStim,,,,,,,,,2,0,2,0,6,1,25,0,,,,,,,,,2083.9510071352124,go,circleblack.png,left,0.2,,,,,,,,,,,,,,,,0.008054561913013458,0.4893806502223015,,2086.4539080560207,test,3,,,,,,,,,2083.9736245572567,2084.4663620889187,2084.4663620889187,2084.483004719019,2084.666795939207,2085.1669914647937,2085.4676102027297,2086.4716984033585,left,1,0.3086748719215393,0.2,,,,,,,,,,,s042,001,2024-09-27_10h57.32.864,simplestop_skeleton,2022.2.2,59.855481038932496,
None,None,,,,,,,,,2,0,2,0,6,2,26,3,,,,,,,,,2086.454371511936,go,squareblack.png,right,0.2,,,,,,,,,,,,,,,,0.001641392707824707,0.4892725795507431,,2088.9565415531397,test,3,,,,,,,,,2086.4716984033585,2086.970014296472,2086.970014296472,2086.986514136195,2087.1693222224712,2087.6698722690344,2087.9702583774924,2088.9744794517756,right,1,0.47643597424030304,0.2,,,,,,,,,,,s042,001,2024-09-27_10h57.32.864,simplestop_skeleton,2022.2.2,59.855481038932496,
None,None,,,,,,,,,2,0,2,0,6,3,27,1,,,,,,,,,2088.956974886358,go,circleblack.png,left,0.2,,,,,,,,,,,,,,,,0.001865588128566742,0.49060938507318497,,2091.4608809128404,test,3,,,,,,,,,2088.9744794517756,2089.473144888878,2089.473144888878,2089.4901542812586,2089.673570409417,2090.1728301644325,2090.472929596901,2091.4820391088724,left,1,0.35735616832971573,0.2,,,,,,,,,,,s042,001,2024-09-27_10h57.32.864,simplestop_skeleton,2022.2.2,59.855481038932496,
None,None,,,,,,,,,2,0,2,0,7,0,28,3,,,,,,,,,2091.461368955672,stop,circleblack.png,left,0.2,,,,,,,,,,,,,,,,0.002196766436100006,0.4858812019228935,0.6864335462450981,2093.9614420235157,test,3,,,,,,,,,2091.4820391088724,2091.974599957466,2091.974599957466,2091.991243943572,2092.175514087081,2092.675451733172,2092.9756733179092,2093.978771224618,left,1,0.2540258690714836,0.15,,,,,,,,,,,s042,001,2024-09-27_10h57.32.864,simplestop_skeleton,2022.2.2,59.855481038932496,
$currentCorrectResponse,$currentGoStim,,,,,,,,,2,0,2,0,7,1,29,0,,,,,,,,,2093.9619130566716,go,squareblack.png,right,0.15,,,,,,,,,,,,,,,,0.0015853717923164368,0.49010252952575684,,2096.4641868919134,test,3,,,,,,,,,2093.978771224618,2094.4776659309864,2094.4776659309864,2094.4776659309864,2094.6277827098966,2095.1280396208167,2095.478532716632,2096.4835893437266,right,1,0.4141927435994148,0.15,,,,,,,,,,,s042,001,2024-09-27_10h57.32.864,simplestop_skeleton,2022.2.2,59.855481038932496,
None,None,,,,,,,,,2,0,2,0,7,2,30,2,,,,,,,,,2096.4646368697286,stop,circleblack.png,left,0.15,,,,,,,,,,,,,,,,0.0021706372499465942,0.48989056050777435,0.6402285844087601,2098.96679019928,test,3,,,,,,,,,2096.4835893437266,2096.9819481372833,2096.9819481372833,2096.998692803085,2097.1320669949055,2097.647514536977,2097.981222100556,2098.983662009239,None,0,,0.2,,,,,,,,,,,s042,001,2024-09-27_10h57.32.864,simplestop_skeleton,2022.2.2,59.855481038932496,
$currentCorrectResponse,$currentGoStim,,,,,,,,,2,0,2,0,7,3,31,0,,,,,,,,,2098.96726282686,go,circleblack.png,left,0.2,,,,,,,,,,,,,,,,0.0012222081422805786,0.48984456062316895,,2101.4704407304525,test,3,,,,,,,,,2098.983662009239,2099.4830638989806,2099.4830638989806,2099.4830638989806,2099.6830938607454,2100.1839242503047,2100.484043903649,2101.489856272936,left,1,0.382190465927124,0.2,,,,,,,,,,,s042,001,2024-09-27_10h57.32.864,simplestop_skeleton,2022.2.2,59.855481038932496,
None,None,,,,,,,,,2,0,2,0,8,0,32,3,,,,,,,,,2101.470883399248,stop,squareblack.png,right,0.2,,,,,,,,,,,,,,,,0.0023610740900039673,0.48838524520397186,0.6885684505105019,2103.9727418646216,test,3,,,,,,,,,2101.489856272936,2101.987065076828,2101.987065076828,2102.003629423678,2102.1875091940165,2102.7032492160797,2102.986752897501,2103.990266852081,right,1,0.38990452885627747,0.15,,,,,,,,,,,s042,001,2024-09-27_10h57.32.864,simplestop_skeleton,2022.2.2,59.855481038932496,
$currentCorrectResponse,$currentGoStim,,,,,,,,,2,0,2,0,8,1,33,0,,,,,,,,,2103.973363891244,go,squareblack.png,right,0.15,,,,,,,,,,,,,,,,0.0012781769037246704,0.4888451173901558,,2106.4750881791115,test,3,,,,,,,,,2103.990266852081,2104.4883173033595,2104.4883173033595,2104.505075111985,2104.638508349657,2105.1393229067326,2105.4894234910607,2106.4927296563983,right,1,0.4007079526782036,0.15,,,,,,,,,,,s042,001,2024-09-27_10h57.32.864,simplestop_skeleton,2022.2.2,59.855481038932496,
None,None,,,,,,,,,2,0,2,0,8,2,34,2,,,,,,,,,2106.475530296564,go,circleblack.png,left,0.15,,,,,,,,,,,,,,,,0.0018055438995361328,0.48962659388780594,,2108.9779274240136,test,3,,,,,,,,,2106.4927296563983,2106.99114818871,2106.99114818871,2107.007892243564,2107.141460366547,2107.6419475525618,2107.992258451879,2108.9951946139336,left,1,0.2748357430100441,0.15,,,,,,,,,,,s042,001,2024-09-27_10h57.32.864,simplestop_skeleton,2022.2.2,59.855481038932496,
None,None,,,,,,,,,2,0,2,0,8,3,35,3,,,,,,,,,2108.9783629626036,go,squareblack.png,right,0.15,,,,,,,,,,,,,,,,0.001611463725566864,0.48993660509586334,,2111.4818864166737,test,3,,,,,,,,,2108.9951946139336,2109.494211860001,2109.494211860001,2109.510784395039,2109.6441212818027,2110.1448946371675,2110.495185919106,2111.4988452345133,right,1,0.36003080755472183,0.15,,,,,,,,,,,s042,001,2024-09-27_10h57.32.864,simplestop_skeleton,2022.2.2,59.855481038932496,
None,None,,,,,,,,,2,0,2,0,9,0,36,1,,,,,,,,,2111.482348740101,go,squareblack.png,right,0.15,,,,,,,,,,,,,,,,0.00119742751121521,0.48986268043518066,,2113.9848256483674,test,3,,,,,,,,,2111.4988452345133,2111.9980819672346,2111.9980819672346,2111.9980819672346,2112.1482843011618,2112.6475905403495,2112.9976957142353,2114.004256673157,left,0,0.26448239386081696,0.15,,,,,,,,,,,s042,001,2024-09-27_10h57.32.864,simplestop_skeleton,2022.2.2,59.855481038932496,
$currentCorrectResponse,$currentGoStim,,,,,,,,,2,0,2,0,9,1,37,0,,,,,,,,,2113.9853787645698,go,squareblack.png,right,0.15,,,,,,,,,,,,,,,,0.0014120787382125854,0.4878557398915291,,2116.486158795655,test,3,,,,,,,,,2114.004256673157,2114.4994840174913,2114.4994840174913,2114.516175597906,2114.6496623307467,2115.1501431018114,2115.500512830913,2116.503817267716,right,1,0.4045279994606972,0.15,,,,,,,,,,,s042,001,2024-09-27_10h57.32.864,simplestop_skeleton,2022.2.2,59.855481038932496,
None,None,,,,,,,,,2,0,2,0,9,2,38,2,,,,,,,,,2116.486615613103,stop,circleblack.png,left,0.15,,,,,,,,,,,,,,,,0.001870483160018921,0.4906303212046623,0.6416840925812721,2118.989026427269,test,3,,,,,,,,,2116.503817267716,2117.0030533224344,2117.0030533224344,2117.0030533224344,2117.1542202979326,2117.6696167737246,2118.0033014416695,2119.0063051581383,left,1,0.3295888453722,0.1,,,,,,,,,,,s042,001,2024-09-27_10h57.32.864,simplestop_skeleton,2022.2.2,59.855481038932496,
None,None,,,,,,,,,2,0,2,0,9,3,39,1,,,,,,,,,2118.9894791841507,stop,squareblack.png,right,0.1,,,,,,,,,,,,,,,,0.0016635507345199585,0.49073558300733566,0.5907183811068535,2121.4917498007417,test,3,,,,,,,,,2119.0063051581383,2119.5061275437474,2119.5061275437474,2119.5061275437474,2119.60692024976,2120.1223435252905,2120.5060757622123,2121.5089881122112,None,0,,0.15,,,,,,,,,,,s042,001,2024-09-27_10h57.32.864,simplestop_skeleton,2022.2.2,59.855481038932496,
None,None,,,,,,,,,2,0,2,0,10,0,40,1,,,,,,,,,2121.4921856075525,go,circleblack.png,left,0.15,,,,,,,,,,,,,,,,0.0017156153917312622,0.48979874700307846,,2123.995142020285,test,3,,,,,,,,,2121.5089881122112,2122.007876984775,2122.007876984775,2122.024652451277,2122.1578514277935,2122.6586821973324,2123.008989818394,2124.012546695769,left,1,0.3340352475643158,0.15,,,,,,,,,,,s042,001,2024-09-27_10h57.32.864,simplestop_skeleton,2022.2.2,59.855481038932496,
None,None,,,,,,,,,2,0,2,0,10,1,41,2,,,,,,,,,2123.9955736920238,go,circleblack.png,left,0.15,,,,,,,,,,,,,,,,0.0013095885515213013,0.4904371201992035,,2126.497394710779,test,3,,,,,,,,,2124.012546695769,2124.511778227985,2124.511778227985,2124.511778227985,2124.6622729822993,2125.161304436624,2125.5116634443402,2126.5154169648886,left,1,0.3509819433093071,0.15,,,,,,,,,,,s042,001,2024-09-27_10h57.32.864,simplestop_skeleton,2022.2.2,59.855481038932496,
$currentCorrectResponse,$currentGoStim,,,,,,,,,2,0,2,0,10,2,42,0,,,,,,,,,2126.4978447929025,stop,squareblack.png,right,0.15,,,,,,,,,,,,,,,,0.0016760751605033875,0.48921311646699905,0.6393287181854248,2128.9999900087714,test,3,,,,,,,,,2126.5154169648886,2127.013144083321,2127.013144083321,2127.0298961400986,2127.163379199803,2127.664101742208,2128.0142729133368,2129.0169717520475,None,0,,0.2,,,,,,,,,,,s042,001,2024-09-27_10h57.32.864,simplestop_skeleton,2022.2.2,59.855481038932496,
None,None,,,,,,,,,2,0,2,0,10,3,43,1,,,,,,,,,2129.00044452399,go,squareblack.png,right,0.2,,,,,,,,,,,,,,,,0.0011826977133750916,0.48972684890031815,,2131.502769522369,test,3,,,,,,,,,2129.0169717520475,2129.516007885337,2129.516007885337,2129.5327022895217,2129.7163187861443,2130.21674221009,2130.5170929804444,2131.5204392299056,right,1,0.4232756718993187,0.2,,,,,,,,,,,s042,001,2024-09-27_10h57.32.864,simplestop_skeleton,2022.2.2,59.855481038932496,
None,None,,,,,,,,,2,0,2,0,11,0,44,1,,,,,,,,,2131.5032042860985,stop,circleblack.png,left,0.2,,,,,,,,,,,,,,,,0.0017912611365318298,0.48960383236408234,0.6898967921733856,2134.00594817847,test,3,,,,,,,,,2131.5204392299056,2132.0188709944487,2132.0188709944487,2132.035643056035,2132.21923776716,2132.71952996403,2133.0207932069898,2134.023546025157,left,1,0.37956641614437103,0.15,,,,,,,,,,,s042,001,2024-09-27_10h57.32.864,simplestop_skeleton,2022.2.2,59.855481038932496,
None,None,,,,,,,,,2,0,2,0,11,1,45,2,,,,,,,,,2134.0064189732075,go,circleblack.png,left,0.15,,,,,,,,,,,,,,,,0.0015531182289123535,0.49041660130023956,,2136.5094174444675,test,3,,,,,,,,,2134.023546025157,2134.523373916745,2134.523373916745,2134.523373916745,2134.673317179084,2135.1888620853424,2135.5239408016205,2136.528099425137,left,1,0.43250784277915955,0.15,,,,,,,,,,,s042,001,2024-09-27_10h57.32.864,simplestop_skeleton,2022.2.2,59.855481038932496,
None,None,,,,,,,,,2,0,2,0,11,2,46,3,,,,,,,,,2136.5099375993013,go,circleblack.png,left,0.15,,,,,,,,,,,,,,,,0.002025797963142395,0.4882442355155945,,2139.013282045722,test,3,,,,,,,,,2136.528099425137,2137.0257897898555,2137.0257897898555,2137.0423546880484,2137.1758922338486,2137.676835410297,2138.0254935994744,2139.0422588661313,left,1,0.35937993228435516,0.15,,,,,,,,,,,s042,001,2024-09-27_10h57.32.864,simplestop_skeleton,2022.2.2,59.855481038932496,
None,None,,,,,,,,,2,0,2,0,11,3,47,3,,,,,,,,,2139.01376388222,go,squareblack.png,right,0.15,,,,,,,,,,,,,,,,0.007425345480442047,0.4835198223590851,,2141.513740107417,test,3,,,,,,,,,2139.0422588661313,2139.527088738978,2139.527088738978,2139.5436469241977,2139.6771792173386,2140.1781765148044,2140.5281342193484,2141.53545679152,left,0,0.48417575657367706,0.15,,,,,,,,,,,s042,001,2024-09-27_10h57.32.864,simplestop_skeleton,2022.2.2,59.855481038932496,
