thisN,thisTrialN,thisRepN,corrGoResp,shape,StartTrialTimeStamp,trialType,goStim,correctResponse,ssd,goResp.keys,goResp.corr,fixationOnset,goStimOnset,stopSignalOnset,EndTrialTimeStamp,Phase,Block,practiceBlocks.thisRepN,practiceBlocks.thisTrialN,practiceBlocks.thisN,practiceBlocks.thisIndex,practiceTrials.thisRepN,practiceTrials.thisTrialN,practiceTrials.thisN,practiceTrials.thisIndex,thisRow.t,notes,stopPracTrialList,Test Block: 1,start.started,welcome.started,start_exp.started,start.stopped,start_exp.keys,start_exp.rt,start_exp.duration,StimSetup.started,StimSetup.stopped,instructions.started,instrStopText.started,start_prac.started,instructions.stopped,practiceBlockSetup.started,practiceBlockSetup.stopped,practiceTrials.StartTrialTimeStamp,practiceTrials.trialType,practiceTrials.goStim,practiceTrials.correctResponse,practiceTrials.ssd,newPracticeStim.started,newPracticeStim.stopped,trial.started,fixation.started,rules.started,goStim.started,goResp.started,fixation.stopped,stopSignal.started,stopSignal.stopped,goStim.stopped,goResp.stopped,rules.stopped,trial.stopped,practiceTrials.goResp.keys,practiceTrials.goResp.corr,feedback.started,text.started,rules_2.started,text.stopped,rules_2.stopped,feedback.stopped,practiceTrials.fixationOnset,practiceTrials.goStimOnset,practiceTrials.stopSignalOnset,endTrial.started,endTrial.stopped,practiceTrials.EndTrialTimeStamp,practiceTrials.Phase,practiceTrials.Block,participant,session,date,expName,psychopyVersion,frameRate,expStart,
,,,,,,,,,,,,,,,,,,,,,,,,,,,,"[{'fileName': 'circleblack.png', 'correct_response': 'left', 'condition': 'go'}, {'fileName': 'squareblack.png', 'correct_response': 'right', 'condition': 'stop'}, {'fileName': 'circleblack.png', 'correct_response': 'left', 'condition': 'go'}, {'fileName': 'squareblack.png', 'correct_response': 'right', 'condition': 'go'}, {'fileName': 'circleblack.png', 'correct_response': 'left', 'condition': 'go'}, {'fileName': 'squareblack.png', 'correct_response': 'right', 'condition': 'stop'}, {'fileName': 'squareblack.png', 'correct_response': 'right', 'condition': 'go'}, {'fileName': 'squareblack.png', 'correct_response': 'right', 'condition': 'go'}, {'fileName': 'circleblack.png', 'correct_response': 'left', 'condition': 'stop'}, {'fileName': 'squareblack.png', 'correct_response': 'right', 'condition': 'go'}, {'fileName': 'circleblack.png', 'correct_response': 'left', 'condition': 'stop'}, {'fileName': 'circleblack.png', 'correct_response': 'left', 'condition': 'go'}, {'fileName': 'circleblack.png', 'correct_response': 'left', 'condition': 'go'}, {'fileName': 'circleblack.png', 'correct_response': 'left', 'condition': 'go'}, {'fileName': 'circleblack.png', 'correct_response': 'left', 'condition': 'stop'}, {'fileName': 'squareblack.png', 'correct_response': 'right', 'condition': 'go'}, {'fileName': 'squareblack.png', 'correct_response': 'right', 'condition': 'stop'}, {'fileName': 'squareblack.png', 'correct_response': 'right', 'condition': 'go'}, {'fileName': 'circleblack.png', 'correct_response': 'left', 'condition': 'go'}, {'fileName': 'squareblack.png', 'correct_response': 'right', 'condition': 'stop'}, {'fileName': 'circleblack.png', 'correct_response': 'left', 'condition': 'go'}, {'fileName': 'squareblack.png', 'correct_response': 'right', 'condition': 'go'}, {'fileName': 'circleblack.png', 'correct_response': 'left', 'condition': 'stop'}, {'fileName': 'squareblack.png', 'correct_response': 'right', 'condition': 'go'}]","[{'fileName': 'squareblack.png', 'correct_response': 'right', 'condition': 'go'}, {'fileName': 'squareblack.png', 'correct_response': 'right', 'condition': 'go'}, {'fileName': 'squareblack.png', 'correct_response': 'right', 'condition': 'go'}, {'fileName': 'squareblack.png', 'correct_response': 'right', 'condition': 'stop'}, {'fileName': 'circleblack.png', 'correct_response': 'left', 'condition': 'stop'}, {'fileName': 'circleblack.png', 'correct_response': 'left', 'condition': 'go'}, {'fileName': 'squareblack.png', 'correct_response': 'right', 'condition': 'stop'}, {'fileName': 'circleblack.png', 'correct_response': 'left', 'condition': 'go'}, {'fileName': 'squareblack.png', 'correct_response': 'right', 'condition': 'go'}, {'fileName': 'circleblack.png', 'correct_response': 'left', 'condition': 'go'}, {'fileName': 'circleblack.png', 'correct_response': 'left', 'condition': 'go'}, {'fileName': 'circleblack.png', 'correct_response': 'left', 'condition': 'stop'}, {'fileName': 'squareblack.png', 'correct_response': 'right', 'condition': 'go'}, {'fileName': 'circleblack.png', 'correct_response': 'left', 'condition': 'stop'}, {'fileName': 'circleblack.png', 'correct_response': 'left', 'condition': 'stop'}, {'fileName': 'squareblack.png', 'correct_response': 'right', 'condition': 'go'}, {'fileName': 'squareblack.png', 'correct_response': 'right', 'condition': 'stop'}, {'fileName': 'squareblack.png', 'correct_response': 'right', 'condition': 'go'}, {'fileName': 'circleblack.png', 'correct_response': 'left', 'condition': 'go'}, {'fileName': 'circleblack.png', 'correct_response': 'left', 'condition': 'go'}, {'fileName': 'circleblack.png', 'correct_response': 'left', 'condition': 'go'}, {'fileName': 'squareblack.png', 'correct_response': 'right', 'condition': 'go'}, {'fileName': 'circleblack.png', 'correct_response': 'left', 'condition': 'go'}, {'fileName': 'squareblack.png', 'correct_response': 'right', 'condition': 'stop'}, {'fileName': 'squareblack.png', 'correct_response': 'right', 'condition': 'go'}, {'fileName': 'circleblack.png', 'correct_response': 'left', 'condition': 'go'}, {'fileName': 'circleblack.png', 'correct_response': 'left', 'condition': 'go'}, {'fileName': 'squareblack.png', 'correct_response': 'right', 'condition': 'stop'}, {'fileName': 'squareblack.png', 'correct_response': 'right', 'condition': 'stop'}, {'fileName': 'squareblack.png', 'correct_response': 'right', 'condition': 'go'}, {'fileName': 'squareblack.png', 'correct_response': 'right', 'condition': 'go'}, {'fileName': 'circleblack.png', 'correct_response': 'left', 'condition': 'go'}, {'fileName': 'circleblack.png', 'correct_response': 'left', 'condition': 'go'}, {'fileName': 'circleblack.png', 'correct_response': 'left', 'condition': 'stop'}, {'fileName': 'circleblack.png', 'correct_response': 'left', 'condition': 'stop'}, {'fileName': 'squareblack.png', 'correct_response': 'right', 'condition': 'go'}, {'fileName': 'circleblack.png', 'correct_response': 'left', 'condition': 'stop'}, {'fileName': 'circleblack.png', 'correct_response': 'left', 'condition': 'go'}, {'fileName': 'circleblack.png', 'correct_response': 'left', 'condition': 'stop'}, {'fileName': 'squareblack.png', 'correct_response': 'right', 'condition': 'go'}, {'fileName': 'circleblack.png', 'correct_response': 'left', 'condition': 'go'}, {'fileName': 'squareblack.png', 'correct_response': 'right', 'condition': 'stop'}, {'fileName': 'squareblack.png', 'correct_response': 'right', 'condition': 'go'}, {'fileName': 'squareblack.png', 'correct_response': 'right', 'condition': 'go'}, {'fileName': 'squareblack.png', 'correct_response': 'right', 'condition': 'stop'}, {'fileName': 'squareblack.png', 'correct_response': 'right', 'condition': 'go'}, {'fileName': 'circleblack.png', 'correct_response': 'left', 'condition': 'go'}, {'fileName': 'circleblack.png', 'correct_response': 'left', 'condition': 'go'}]",0.008528750000550644,0.013949666999906185,0.013949666999906185,1.7187675420000232,return,1.6801462500006892,None,,,,,,,,,,,,,,,,,,,,,,,,,,,,,,,,,,,,,,,,,,,,501672,001,2025-03-11_13h16.06.095,simplestop_skeleton,2024.2.4,None,2025-03-11 13h16.10.576004 -0700,
,,,,,,,,,,,,,,,,,,,,,,,,,,,,,,,,,,,,,1.7188204579997546,1.719088042000294,,,,,,,,,,,,,,,,,,,,,,,,,,,,,,,,,,,,,,,,,,501672,001,2025-03-11_13h16.06.095,simplestop_skeleton,2024.2.4,None,2025-03-11 13h16.10.576004 -0700,
,,,,,,,,,,,,,,,,,,,,,,,,,,,,,,,,,,,,,,,1.719107542000529,1.7304339580005035,1.7304339580005035,2.8529418329999316,,,,,,,,,,,,,,,,,,,,,,,,,,,,,,,,,,,,,,501672,001,2025-03-11_13h16.06.095,simplestop_skeleton,2024.2.4,None,2025-03-11 13h16.10.576004 -0700,
0,0,0,None,None,2.8616924170000857,go,circleblack.png,left,0.35,None,0,0.003304625000055239,0.4895513329993264,0.8337495830000989,5.85247070800051,practice,1,0,0,0,0,0,0,0,2,2.871991750000234,,,,,,,,,,,,,,,,,2.853784333000476,2.854192833000525,2.8616924170000857,go,circleblack.png,left,0.35,2.861742791999859,2.8621919580000394,2.8654827500004103,2.871991750000234,2.871991750000234,3.3564610000003086,3.3564610000003086,3.3613222920002954,3.7086495000003197,4.205244374999893,4.346746125000209,5.354594000000361,5.366570042000603,5.356145458000356,None,0,5.362793250000323,5.366570042000603,5.366570042000603,5.857550708000417,5.857550708000417,5.852073541999744,0.003304625000055239,0.4895513329993264,0.8337495830000989,5.852206167000077,5.8524620420002975,5.85247070800051,practice,1,501672,001,2025-03-11_13h16.06.095,simplestop_skeleton,2024.2.4,None,2025-03-11 13h16.10.576004 -0700,
1,1,0,None,None,5.852616791999935,stop,squareblack.png,right,0.35,None,0,0.0022588749998249114,0.4842588749997958,0.8365081669999199,8.84629670800041,practice,1,0,0,0,0,0,1,1,3,5.857550708000417,,,,,,,,,,,,,,,,,,,5.852616791999935,stop,squareblack.png,right,0.35,5.852656791999834,5.852894042000116,5.855137833000299,5.857550708000417,5.857550708000417,6.350297500000124,6.350297500000124,6.35565270799998,6.694487833000494,7.1862962920004065,7.337993042000562,8.350347374999728,8.358448791999763,8.352153792000536,None,0,8.35523083299995,8.358448791999763,8.358448791999763,8.85229708299994,8.85229708299994,8.845917208000174,0.0022588749998249114,0.4842588749997958,0.8365081669999199,8.846007457999804,8.846288374999858,8.84629670800041,practice,1,501672,001,2025-03-11_13h16.06.095,simplestop_skeleton,2024.2.4,None,2025-03-11 13h16.10.576004 -0700,
2,2,1,None,None,8.846425667000403,go,circleblack.png,left,0.4,None,0,0.0022846250003567548,0.4846700830003101,0.8845750000000407,11.835845583000264,practice,1,0,0,0,0,1,2,2,3,8.85229708299994,,,,,,,,,,,,,,,,,,,8.846425667000403,go,circleblack.png,left,0.4,8.846462958000302,8.846679041999778,8.848949833000006,8.85229708299994,8.85229708299994,9.336009792000368,9.336009792000368,9.350371583000197,9.736354417000257,10.229964125000151,10.333712958000433,11.3337325829998,11.345067707999988,11.340070041999752,None,0,11.341888292000476,11.345067707999988,11.345067707999988,11.841261375000613,11.841261375000613,11.835515124999802,0.0022846250003567548,0.4846700830003101,0.8845750000000407,11.835611000000426,11.835836625000411,11.835845583000264,practice,1,501672,001,2025-03-11_13h16.06.095,simplestop_skeleton,2024.2.4,None,2025-03-11 13h16.10.576004 -0700,
3,3,0,None,None,11.835984542000006,go,squareblack.png,right,0.4,None,0,0.0025519159999021213,0.48722833300053026,0.8871230000004289,14.819273916999919,practice,1,0,0,0,0,0,3,3,1,11.841261375000613,,,,,,,,,,,,,,,,,,,11.835984542000006,go,squareblack.png,right,0.4,11.836026666999715,11.836248167000122,11.838782167000318,11.841261375000613,11.841261375000613,12.327909333000207,12.327909333000207,12.342062792000434,12.728031874999942,13.219522708000113,13.325364917000115,14.325441583000611,14.330635833000088,14.327197125000566,None,0,14.327261625000574,14.330635833000088,14.330635833000088,14.824629624999943,14.824629624999943,14.818878333000612,0.0025519159999021213,0.48722833300053026,0.8871230000004289,14.818972333000602,14.819264750000002,14.819273916999919,practice,1,501672,001,2025-03-11_13h16.06.095,simplestop_skeleton,2024.2.4,None,2025-03-11 13h16.10.576004 -0700,
4,4,1,None,None,14.81940937499985,go,circleblack.png,left,0.4,None,0,0.0024293750002470915,0.4842553329999646,0.8864676249995682,17.810868250000567,practice,1,0,0,0,0,1,4,4,1,14.824629624999943,,,,,,,,,,,,,,,,,,,14.81940937499985,go,circleblack.png,left,0.4,14.819450250000045,14.81970929199997,14.822123875000216,14.824629624999943,14.824629624999943,15.317113042000528,15.317113042000528,15.322477249999793,15.711300832999768,16.20498654200037,16.305460208000113,17.305190666999806,17.32533775000047,17.31236779200026,None,0,17.312414167000497,17.32533775000047,17.32533775000047,17.81604333300038,17.81604333300038,17.810539500000232,0.0024293750002470915,0.4842553329999646,0.8864676249995682,17.810617207999712,17.810859750000418,17.810868250000567,practice,1,501672,001,2025-03-11_13h16.06.095,simplestop_skeleton,2024.2.4,None,2025-03-11 13h16.10.576004 -0700,
5,5,0,$currentCorrectResponse,$currentGoStim,17.81100645800052,stop,squareblack.png,right,0.4,None,0,0.0022960830001466093,0.4869847910003955,0.8905001249995621,20.802597292000428,practice,1,0,0,0,0,0,5,5,0,17.81604333300038,,,,,,,,,,,,,,,,,,,17.81100645800052,stop,squareblack.png,right,0.4,17.811045792000186,17.81126899999981,17.813551041999744,17.81604333300038,17.81604333300038,18.303010417000223,18.303010417000223,18.317037042000266,18.705141583000113,19.200563667000097,19.296734958000343,20.300441041999875,20.307519042000422,20.30225770800007,None,0,20.303960082999765,20.307519042000422,20.307519042000422,20.807232500000282,20.807232500000282,20.802227042000595,0.0022960830001466093,0.4869847910003955,0.8905001249995621,20.802328750000015,20.802586958000575,20.802597292000428,practice,1,501672,001,2025-03-11_13h16.06.095,simplestop_skeleton,2024.2.4,None,2025-03-11 13h16.10.576004 -0700,
6,6,2,None,None,20.802738500000487,go,squareblack.png,right,0.45,None,0,0.0017626250000830623,0.4848742909998691,0.9404497909999918,23.785894125000596,practice,1,0,0,0,0,2,6,6,3,20.807232500000282,,,,,,,,,,,,,,,,,,,20.802738500000487,go,squareblack.png,right,0.45,20.80277895800009,20.803036875000544,20.80478575000052,20.807232500000282,20.807232500000282,21.300505082999734,21.300505082999734,21.3060897080004,21.747077666999758,22.237904374999744,22.288201667000067,23.29919237500053,23.29919237500053,23.293798374999824,None,0,23.295693707999817,23.29919237500053,23.29919237500053,23.790566458000285,23.790566458000285,23.785560416999942,0.0017626250000830623,0.4848742909998691,0.9404497909999918,23.785637250000036,23.78588545799994,23.785894125000596,practice,1,501672,001,2025-03-11_13h16.06.095,simplestop_skeleton,2024.2.4,None,2025-03-11 13h16.10.576004 -0700,
7,7,1,None,None,23.786031583000295,go,squareblack.png,right,0.45,None,0,0.0017622909999772673,0.4906731660003061,0.9349769159998687,26.769377042000087,practice,1,0,0,0,0,1,7,7,2,23.790566458000285,,,,,,,,,,,,,,,,,,,23.786031583000295,go,squareblack.png,right,0.45,23.786073125000257,23.78631008299999,23.788058750000346,23.790566458000285,23.790566458000285,24.280447832999926,24.280447832999926,24.280447832999926,24.73381445799987,25.230027792000328,25.27546033300041,26.275511708000522,26.28017458300019,26.277130749999742,None,0,26.277179417000298,26.28017458300019,26.28017458300019,26.776190499999757,26.776190499999757,26.76907066700005,0.0017622909999772673,0.4906731660003061,0.9349769159998687,26.769149124999785,26.769365291999748,26.769377042000087,practice,1,501672,001,2025-03-11_13h16.06.095,simplestop_skeleton,2024.2.4,None,2025-03-11 13h16.10.576004 -0700,
8,8,1,$currentCorrectResponse,$currentGoStim,26.769527583000126,stop,circleblack.png,left,0.45,None,0,0.0024522080002498114,0.4903031670000928,0.9402527080001164,29.75245787499989,practice,1,0,0,0,0,1,8,8,0,26.776190499999757,,,,,,,,,,,,,,,,,,,26.769527583000126,stop,circleblack.png,left,0.45,26.769574417000513,26.76980816700052,26.772245875000408,26.776190499999757,26.776190499999757,27.26389920800011,27.26389920800011,27.26389920800011,27.7135476250005,28.213713582999844,28.25514687499981,29.258821999999782,29.26545808300034,29.26044449999972,None,0,29.26200583300033,29.26545808300034,29.26545808300034,29.757709333000093,29.757709333000093,29.752165042000343,0.0024522080002498114,0.4903031670000928,0.9402527080001164,29.75224200000048,29.75243945800048,29.75245787499989,practice,1,501672,001,2025-03-11_13h16.06.095,simplestop_skeleton,2024.2.4,None,2025-03-11 13h16.10.576004 -0700,
9,9,2,None,None,29.752606625000226,go,squareblack.png,right,0.5,None,0,0.0023247079998327536,0.4868905419998555,0.9907567500004006,32.75261516699993,practice,1,0,0,0,0,2,9,9,2,29.757709333000093,,,,,,,,,,,,,,,,,,,29.752606625000226,go,squareblack.png,right,0.5,29.752652332999787,29.752947208000478,29.755256041999928,29.757709333000093,29.757709333000093,30.244238291999864,30.244238291999864,30.258876500000042,30.747150082999724,31.238384291999864,31.238384291999864,32.23826050000025,32.257757458000015,32.25227087500025,None,0,32.25413366700013,32.257757458000015,32.257757458000015,32.75788237500001,32.75788237500001,32.75230520800051,0.0023247079998327536,0.4868905419998555,0.9907567500004006,32.75238016700041,32.752607125000395,32.75261516699993,practice,1,501672,001,2025-03-11_13h16.06.095,simplestop_skeleton,2024.2.4,None,2025-03-11 13h16.10.576004 -0700,
10,10,2,$currentCorrectResponse,$currentGoStim,32.75274229200022,stop,circleblack.png,left,0.5,None,0,0.002396666000095138,0.48669087500002206,0.990548249999847,35.73604350000005,practice,1,0,0,0,0,2,10,10,0,32.75788237500001,,,,,,,,,,,,,,,,,,,32.75274229200022,stop,circleblack.png,left,0.5,32.7527901250005,32.75301424999998,32.755393375000494,32.75788237500001,32.75788237500001,33.24498216699976,33.24498216699976,33.25895537500037,33.746976375000486,34.238682332999815,34.238682332999815,35.24214891700012,35.24906420800016,35.243986833000235,None,0,35.245527083000525,35.24906420800016,35.24906420800016,35.74063908300013,35.74063908300013,35.73570949999976,0.002396666000095138,0.48669087500002206,0.990548249999847,35.73580179200053,35.73603387500043,35.73604350000005,practice,1,501672,001,2025-03-11_13h16.06.095,simplestop_skeleton,2024.2.4,None,2025-03-11 13h16.10.576004 -0700,
11,11,2,None,None,35.73619337499986,go,circleblack.png,left,0.55,None,0,0.0018142079998142435,0.4841780419992574,1.0404388329998255,38.72752745799971,practice,1,0,0,0,0,2,11,11,1,35.74063908300013,,,,,,,,,,,,,,,,,,,35.73619337499986,go,circleblack.png,left,0.55,35.73623858300016,35.736461667000185,35.738261749999765,35.74063908300013,35.74063908300013,36.233848333000424,36.233848333000424,36.238945375000185,36.780509832999996,37.27553537499989,37.22218075000001,38.23243458300021,38.23243458300021,38.22723825000048,None,0,38.229002707999825,38.23243458300021,38.23243458300021,38.732143582999925,38.732143582999925,38.727244749999954,0.0018142079998142435,0.4841780419992574,1.0404388329998255,38.7273157919999,38.72751891700045,38.72752745799971,practice,1,501672,001,2025-03-11_13h16.06.095,simplestop_skeleton,2024.2.4,None,2025-03-11 13h16.10.576004 -0700,
12,12,3,None,None,38.72766362499988,go,circleblack.png,left,0.55,None,0,0.0017750000006344635,0.48700766600086354,1.0366656250007509,41.71925883299991,practice,1,0,0,0,0,3,12,12,3,38.732143582999925,,,,,,,,,,,,,,,,,,,38.72766362499988,go,circleblack.png,left,0.55,38.72770562500045,38.72794708299989,38.729705875000036,38.732143582999925,38.732143582999925,39.219425666999996,39.219425666999996,39.23387474999981,39.76975649999986,40.263922332999755,40.2171982079999,41.213011417000416,41.2305474169998,41.22712554200007,None,0,41.22718799999984,41.2305474169998,41.2305474169998,41.7239734169998,41.7239734169998,41.71898187500028,0.0017750000006344635,0.48700766600086354,1.0366656250007509,41.71905295800025,41.71924875000059,41.71925883299991,practice,1,501672,001,2025-03-11_13h16.06.095,simplestop_skeleton,2024.2.4,None,2025-03-11 13h16.10.576004 -0700,
13,13,4,None,None,41.7193923750001,go,circleblack.png,left,0.55,None,0,0.0017843750001702574,0.49070024999946327,1.0407867089998035,44.69884387500042,practice,1,0,0,0,0,4,13,13,3,41.7239734169998,,,,,,,,,,,,,,,,,,,41.7193923750001,go,circleblack.png,left,0.55,41.71943329199985,41.71963662500002,41.72140729200055,41.7239734169998,41.7239734169998,42.21408566700029,42.21408566700029,42.21408566700029,42.76389004199973,43.25283387499985,43.208862082999985,44.21375912500025,44.21375912500025,44.21048520800014,None,0,44.21053000000029,44.21375912500025,44.21375912500025,44.703623291999975,44.703623291999975,44.69847454200044,0.0017843750001702574,0.49070024999946327,1.0407867089998035,44.69855479200032,44.69883504200061,44.69884387500042,practice,1,501672,001,2025-03-11_13h16.06.095,simplestop_skeleton,2024.2.4,None,2025-03-11 13h16.10.576004 -0700,
14,14,5,None,None,44.698985916999845,stop,circleblack.png,left,0.55,None,0,0.001817207999920356,0.4943240419997892,1.0359759579996535,47.69446733299992,practice,1,0,0,0,0,5,14,14,3,44.703623291999975,,,,,,,,,,,,,,,,,,,44.698985916999845,stop,circleblack.png,left,0.55,44.69902570800059,44.6992559170003,44.70105729199986,44.703623291999975,44.703623291999975,45.19733075000022,45.19733075000022,45.19733075000022,45.73870733300009,46.23830866699973,46.188779083000554,47.19227404200046,47.199590250000256,47.194146875000115,None,0,47.19586650000019,47.199590250000256,47.199590250000256,47.69956495800034,47.69956495800034,47.69410287499977,0.001817207999920356,0.4943240419997892,1.0359759579996535,47.69419137499972,47.694459041999835,47.69446733299992,practice,1,501672,001,2025-03-11_13h16.06.095,simplestop_skeleton,2024.2.4,None,2025-03-11 13h16.10.576004 -0700,
15,15,3,None,None,47.69460075000006,go,squareblack.png,right,0.6,None,0,0.0021888330002184375,0.4869389159994171,1.084473375000016,50.68610249999983,practice,1,0,0,0,0,3,15,15,2,47.69956495800034,,,,,,,,,,,,,,,,,,,47.69460075000006,go,squareblack.png,right,0.6,47.69464195799992,47.69489870800044,47.69707512500008,47.69956495800034,47.69956495800034,48.18613633299992,48.18613633299992,48.200547458000074,48.79235845800031,49.2887593330006,49.18042091700045,50.183928082999955,50.19121887500023,50.18570266700044,None,0,50.18761408299997,50.19121887500023,50.19121887500023,50.69073850000041,50.69073850000041,50.68575937500009,0.0021888330002184375,0.4869389159994171,1.084473375000016,50.685844833000374,50.686093583,50.68610249999983,practice,1,501672,001,2025-03-11_13h16.06.095,simplestop_skeleton,2024.2.4,None,2025-03-11 13h16.10.576004 -0700,
16,16,3,None,None,50.686245417000464,stop,squareblack.png,right,0.6,None,0,0.0017537499998070416,0.4870104169995102,1.0904138749992853,53.677763000000596,practice,1,0,0,0,0,3,16,16,1,50.69073850000041,,,,,,,,,,,,,,,,,,,50.686245417000464,stop,squareblack.png,right,0.6,50.68628675000036,50.686523999999736,50.688262167000175,50.69073850000041,50.69073850000041,51.17761787500058,51.17761787500058,51.192393207999885,51.78055958300047,52.28042000000005,52.17212925000058,53.175619624999854,53.18211129199972,53.17716674999974,None,0,53.17867291699986,53.18211129199972,53.18211129199972,53.68230329200014,53.68230329200014,53.67738350000036,0.0017537499998070416,0.4870104169995102,1.0904138749992853,53.67747537500054,53.677753375000066,53.677763000000596,practice,1,501672,001,2025-03-11_13h16.06.095,simplestop_skeleton,2024.2.4,None,2025-03-11 13h16.10.576004 -0700,
17,17,4,None,None,53.677907750000486,go,squareblack.png,right,0.65,None,0,0.0016311670005961787,0.48703958300029626,1.1404916250003225,56.66944983299982,practice,1,0,0,0,0,4,17,17,2,53.68230329200014,,,,,,,,,,,,,,,,,,,53.677907750000486,go,squareblack.png,right,0.65,53.6779488330003,53.678191042000435,53.67980941699989,53.68230329200014,53.68230329200014,54.16944112500005,54.16944112500005,54.18411145800019,54.82209433299977,55.310974707999776,55.16731400000026,56.16727045800053,56.174275207999926,56.16888995800036,None,0,56.17079075000038,56.174275207999926,56.174275207999926,56.67456924999988,56.67456924999988,56.6691115829999,0.0016311670005961787,0.48703958300029626,1.1404916250003225,56.669184625000526,56.66944216699994,56.66944983299982,practice,1,501672,001,2025-03-11_13h16.06.095,simplestop_skeleton,2024.2.4,None,2025-03-11 13h16.10.576004 -0700,
18,18,3,$currentCorrectResponse,$currentGoStim,56.66958120799973,go,circleblack.png,left,0.65,None,0,0.0021807920002174797,0.49044237500038435,1.1367069580001044,59.65299995799978,practice,1,0,0,0,0,3,18,18,0,56.67456924999988,,,,,,,,,,,,,,,,,,,56.66958120799973,go,circleblack.png,left,0.65,56.66962245800005,56.669862667000416,56.672030458000336,56.67456924999988,56.67456924999988,57.1640263750005,57.1640263750005,57.1640263750005,57.811907500000416,58.30899604200022,58.152823125000396,59.16403220800021,59.16403220800021,59.160545249999814,None,0,59.160604624999905,59.16403220800021,59.16403220800021,59.65806016700026,59.65806016700026,59.65261575000022,0.0021807920002174797,0.49044237500038435,1.1367069580001044,59.65270887499992,59.652991583000585,59.65299995799978,practice,1,501672,001,2025-03-11_13h16.06.095,simplestop_skeleton,2024.2.4,None,2025-03-11 13h16.10.576004 -0700,
19,19,4,$currentCorrectResponse,$currentGoStim,59.65313666700058,stop,squareblack.png,right,0.65,None,0,0.0022625000001426088,0.4902657909997288,1.1362597500001357,62.64625183299995,practice,1,0,0,0,0,4,19,19,0,59.65806016700026,,,,,,,,,,,,,,,,,,,59.65313666700058,stop,squareblack.png,right,0.65,59.65317649999997,59.653442333000385,59.65568925000025,59.65806016700026,59.65806016700026,60.14747895799974,60.14747895799974,60.14747895799974,60.794806042000346,61.28865570800008,61.147158417000355,62.138340999999855,62.15746804199989,62.15240554200045,None,0,62.15399579200039,62.15746804199989,62.15746804199989,62.65277645800052,62.65277645800052,62.64590854200014,0.0022625000001426088,0.4902657909997288,1.1362597500001357,62.64597604200026,62.64624362500035,62.64625183299995,practice,1,501672,001,2025-03-11_13h16.06.095,simplestop_skeleton,2024.2.4,None,2025-03-11 13h16.10.576004 -0700,
20,20,4,None,None,62.64636883300045,go,circleblack.png,left,0.7,None,0,0.002360624999710126,0.4887449589996322,1.1969275419996848,65.63253704199997,practice,1,0,0,0,0,4,20,20,1,62.65277645800052,,,,,,,,,,,,,,,,,,,62.64636883300045,go,circleblack.png,left,0.7,62.64641825000035,62.64668545800032,62.64903137500005,62.65277645800052,62.65277645800052,63.13919754200015,63.13919754200015,63.14504858300006,63.846931541999766,64.33886037499997,64.13061716700031,65.13411104199986,65.14582299999984,65.1404209580005,None,0,65.14216325000052,65.14582299999984,65.14582299999984,65.63767162499971,65.63767162499971,65.63224195800012,0.002360624999710126,0.4887449589996322,1.1969275419996848,65.63231108299988,65.63252858299984,65.63253704199997,practice,1,501672,001,2025-03-11_13h16.06.095,simplestop_skeleton,2024.2.4,None,2025-03-11 13h16.10.576004 -0700,
21,21,5,None,None,65.63267104199986,go,squareblack.png,right,0.7,None,0,0.002233041999716079,0.48578720899968175,1.1941047089994754,68.61954074999994,practice,1,0,0,0,0,5,21,21,1,65.63767162499971,,,,,,,,,,,,,,,,,,,65.63267104199986,go,squareblack.png,right,0.7,65.6327111669998,65.63293133299976,65.63514924999981,65.63767162499971,65.63767162499971,66.12244616699991,66.12244616699991,66.12800933300059,66.83057995800027,67.32227941700057,67.11742379200041,68.11748870800056,68.12791783300054,68.12388329199985,None,0,68.12393404199975,68.12791783300054,68.12791783300054,68.62477545799993,68.62477545799993,68.61927216700042,0.002233041999716079,0.48578720899968175,1.1941047089994754,68.6193460000004,68.61953258300036,68.61954074999994,practice,1,501672,001,2025-03-11_13h16.06.095,simplestop_skeleton,2024.2.4,None,2025-03-11 13h16.10.576004 -0700,
22,22,5,$currentCorrectResponse,$currentGoStim,68.61969654200038,stop,circleblack.png,left,0.7,None,0,0.0024230420003732434,0.48682158300016454,1.1869288750003761,71.60294708299989,practice,1,0,0,0,0,5,22,22,0,68.62477545799993,,,,,,,,,,,,,,,,,,,68.61969654200038,stop,circleblack.png,left,0.7,68.61973933300033,68.61992779200045,68.62233166700025,68.62477545799993,68.62477545799993,69.11136224999973,69.11136224999973,69.12586937500055,69.81162079200021,70.30560816700017,70.10266745799981,71.10919266700057,71.11582233300032,71.11080000000038,None,0,71.11232199999995,71.11582233300032,71.11582233300032,71.60813779199998,71.60813779199998,71.60261837500002,0.0024230420003732434,0.48682158300016454,1.1869288750003761,71.60273045800022,71.60293691700008,71.60294708299989,practice,1,501672,001,2025-03-11_13h16.06.095,simplestop_skeleton,2024.2.4,None,2025-03-11 13h16.10.576004 -0700,
23,23,5,None,None,71.60309983299976,go,squareblack.png,right,0.75,None,0,0.002372666000155732,0.48420066600010614,1.2344873330002883,74.59473229200012,practice,1,0,0,0,0,5,23,23,2,71.60813779199998,,,,,,,,,,,,,,,,,,,71.60309983299976,go,squareblack.png,right,0.75,71.60314479200042,71.60334720799983,71.60570262500005,71.60813779199998,71.60813779199998,72.10086950000004,72.10086950000004,72.10622299999977,72.8508981670002,73.35079924999991,73.09721487499974,74.09926979200009,74.09926979200009,74.0941564169998,None,0,74.09593091700026,74.09926979200009,74.09926979200009,,,74.59442483299972,0.002372666000155732,0.48420066600010614,1.2344873330002883,74.59450491700045,74.5947229580006,74.59473229200012,practice,1,501672,001,2025-03-11_13h16.06.095,simplestop_skeleton,2024.2.4,None,2025-03-11 13h16.10.576004 -0700,
