thisN,thisTrialN,thisRepN,corrGoResp,shape,StartTrialTimeStamp,trialType,goStim,correctResponse,ssd,goResp.keys,goResp.corr,fixationOnset,goStimOnset,stopSignalOnset,EndTrialTimeStamp,Phase,Block,practiceBlocks.thisRepN,practiceBlocks.thisTrialN,practiceBlocks.thisN,practiceBlocks.thisIndex,practiceTrials.thisRepN,practiceTrials.thisTrialN,practiceTrials.thisN,practiceTrials.thisIndex,thisRow.t,notes,stopPracTrialList,Test Block: 1,start.started,welcome.started,start_exp.started,start.stopped,start_exp.keys,start_exp.rt,start_exp.duration,StimSetup.started,StimSetup.stopped,instructions.started,instrStopText.started,start_prac.started,instructions.stopped,practiceBlockSetup.started,practiceBlockSetup.stopped,practiceTrials.StartTrialTimeStamp,practiceTrials.trialType,practiceTrials.goStim,practiceTrials.correctResponse,practiceTrials.ssd,newPracticeStim.started,newPracticeStim.stopped,trial.started,fixation.started,rules.started,goStim.started,goResp.started,fixation.stopped,stopSignal.started,stopSignal.stopped,goStim.stopped,goResp.stopped,rules.stopped,trial.stopped,practiceTrials.goResp.keys,practiceTrials.goResp.corr,feedback.started,text.started,rules_2.started,text.stopped,rules_2.stopped,feedback.stopped,practiceTrials.fixationOnset,practiceTrials.goStimOnset,practiceTrials.stopSignalOnset,endTrial.started,endTrial.stopped,practiceTrials.EndTrialTimeStamp,practiceTrials.Phase,practiceTrials.Block,participant,session,date,expName,psychopyVersion,frameRate,expStart,
,,,,,,,,,,,,,,,,,,,,,,,,,,,,"[{'fileName': 'squareblack.png', 'correct_response': 'right', 'condition': 'stop'}, {'fileName': 'squareblack.png', 'correct_response': 'right', 'condition': 'stop'}, {'fileName': 'circleblack.png', 'correct_response': 'left', 'condition': 'go'}, {'fileName': 'squareblack.png', 'correct_response': 'right', 'condition': 'go'}, {'fileName': 'circleblack.png', 'correct_response': 'left', 'condition': 'go'}, {'fileName': 'circleblack.png', 'correct_response': 'left', 'condition': 'go'}, {'fileName': 'squareblack.png', 'correct_response': 'right', 'condition': 'go'}, {'fileName': 'circleblack.png', 'correct_response': 'left', 'condition': 'stop'}, {'fileName': 'squareblack.png', 'correct_response': 'right', 'condition': 'go'}, {'fileName': 'circleblack.png', 'correct_response': 'left', 'condition': 'stop'}, {'fileName': 'circleblack.png', 'correct_response': 'left', 'condition': 'go'}, {'fileName': 'squareblack.png', 'correct_response': 'right', 'condition': 'go'}, {'fileName': 'squareblack.png', 'correct_response': 'right', 'condition': 'go'}, {'fileName': 'squareblack.png', 'correct_response': 'right', 'condition': 'go'}, {'fileName': 'circleblack.png', 'correct_response': 'left', 'condition': 'go'}, {'fileName': 'squareblack.png', 'correct_response': 'right', 'condition': 'stop'}, {'fileName': 'circleblack.png', 'correct_response': 'left', 'condition': 'go'}, {'fileName': 'squareblack.png', 'correct_response': 'right', 'condition': 'go'}, {'fileName': 'circleblack.png', 'correct_response': 'left', 'condition': 'stop'}, {'fileName': 'squareblack.png', 'correct_response': 'right', 'condition': 'stop'}, {'fileName': 'squareblack.png', 'correct_response': 'right', 'condition': 'go'}, {'fileName': 'circleblack.png', 'correct_response': 'left', 'condition': 'go'}, {'fileName': 'circleblack.png', 'correct_response': 'left', 'condition': 'stop'}, {'fileName': 'circleblack.png', 'correct_response': 'left', 'condition': 'go'}]","[{'fileName': 'squareblack.png', 'correct_response': 'right', 'condition': 'go'}, {'fileName': 'circleblack.png', 'correct_response': 'left', 'condition': 'go'}, {'fileName': 'circleblack.png', 'correct_response': 'left', 'condition': 'stop'}, {'fileName': 'circleblack.png', 'correct_response': 'left', 'condition': 'stop'}, {'fileName': 'squareblack.png', 'correct_response': 'right', 'condition': 'go'}, {'fileName': 'circleblack.png', 'correct_response': 'left', 'condition': 'go'}, {'fileName': 'squareblack.png', 'correct_response': 'right', 'condition': 'stop'}, {'fileName': 'circleblack.png', 'correct_response': 'left', 'condition': 'go'}, {'fileName': 'squareblack.png', 'correct_response': 'right', 'condition': 'go'}, {'fileName': 'squareblack.png', 'correct_response': 'right', 'condition': 'go'}, {'fileName': 'circleblack.png', 'correct_response': 'left', 'condition': 'go'}, {'fileName': 'squareblack.png', 'correct_response': 'right', 'condition': 'stop'}, {'fileName': 'squareblack.png', 'correct_response': 'right', 'condition': 'go'}, {'fileName': 'circleblack.png', 'correct_response': 'left', 'condition': 'go'}, {'fileName': 'squareblack.png', 'correct_response': 'right', 'condition': 'stop'}, {'fileName': 'squareblack.png', 'correct_response': 'right', 'condition': 'stop'}, {'fileName': 'squareblack.png', 'correct_response': 'right', 'condition': 'go'}, {'fileName': 'squareblack.png', 'correct_response': 'right', 'condition': 'go'}, {'fileName': 'squareblack.png', 'correct_response': 'right', 'condition': 'go'}, {'fileName': 'circleblack.png', 'correct_response': 'left', 'condition': 'go'}, {'fileName': 'circleblack.png', 'correct_response': 'left', 'condition': 'stop'}, {'fileName': 'circleblack.png', 'correct_response': 'left', 'condition': 'go'}, {'fileName': 'circleblack.png', 'correct_response': 'left', 'condition': 'stop'}, {'fileName': 'circleblack.png', 'correct_response': 'left', 'condition': 'go'}, {'fileName': 'squareblack.png', 'correct_response': 'right', 'condition': 'stop'}, {'fileName': 'circleblack.png', 'correct_response': 'left', 'condition': 'stop'}, {'fileName': 'circleblack.png', 'correct_response': 'left', 'condition': 'go'}, {'fileName': 'circleblack.png', 'correct_response': 'left', 'condition': 'go'}, {'fileName': 'squareblack.png', 'correct_response': 'right', 'condition': 'go'}, {'fileName': 'circleblack.png', 'correct_response': 'left', 'condition': 'go'}, {'fileName': 'circleblack.png', 'correct_response': 'left', 'condition': 'go'}, {'fileName': 'squareblack.png', 'correct_response': 'right', 'condition': 'go'}, {'fileName': 'squareblack.png', 'correct_response': 'right', 'condition': 'go'}, {'fileName': 'squareblack.png', 'correct_response': 'right', 'condition': 'go'}, {'fileName': 'squareblack.png', 'correct_response': 'right', 'condition': 'stop'}, {'fileName': 'circleblack.png', 'correct_response': 'left', 'condition': 'stop'}, {'fileName': 'squareblack.png', 'correct_response': 'right', 'condition': 'go'}, {'fileName': 'squareblack.png', 'correct_response': 'right', 'condition': 'stop'}, {'fileName': 'squareblack.png', 'correct_response': 'right', 'condition': 'go'}, {'fileName': 'squareblack.png', 'correct_response': 'right', 'condition': 'stop'}, {'fileName': 'squareblack.png', 'correct_response': 'right', 'condition': 'go'}, {'fileName': 'circleblack.png', 'correct_response': 'left', 'condition': 'go'}, {'fileName': 'squareblack.png', 'correct_response': 'right', 'condition': 'go'}, {'fileName': 'circleblack.png', 'correct_response': 'left', 'condition': 'stop'}, {'fileName': 'circleblack.png', 'correct_response': 'left', 'condition': 'go'}, {'fileName': 'circleblack.png', 'correct_response': 'left', 'condition': 'go'}, {'fileName': 'circleblack.png', 'correct_response': 'left', 'condition': 'go'}, {'fileName': 'circleblack.png', 'correct_response': 'left', 'condition': 'stop'}]",0.009155083000223385,0.014831167000011192,0.014831167000011192,1.5015723329997854,return,1.4614650000003166,None,,,,,,,,,,,,,,,,,,,,,,,,,,,,,,,,,,,,,,,,,,,,617105,001,2025-03-11_13h11.36.597,simplestop_skeleton,2024.2.4,None,2025-03-11 13h11.41.489847 -0700,
,,,,,,,,,,,,,,,,,,,,,,,,,,,,,,,,,,,,,1.5016291250003633,1.501863417000095,,,,,,,,,,,,,,,,,,,,,,,,,,,,,,,,,,,,,,,,,,617105,001,2025-03-11_13h11.36.597,simplestop_skeleton,2024.2.4,None,2025-03-11 13h11.41.489847 -0700,
,,,,,,,,,,,,,,,,,,,,,,,,,,,,,,,,,,,,,,,1.5018795830001181,1.5126253750004253,1.5126253750004253,2.1953735420001976,,,,,,,,,,,,,,,,,,,,,,,,,,,,,,,,,,,,,,617105,001,2025-03-11_13h11.36.597,simplestop_skeleton,2024.2.4,None,2025-03-11 13h11.41.489847 -0700,
0,0,0,$currentCorrectResponse,$currentGoStim,2.2035900829996535,stop,squareblack.png,right,0.35,None,0,0.0030103749995760154,0.4888762079999651,0.838861082999756,5.196702791999996,practice,1,0,0,0,0,0,0,0,0,2.213455750000321,,,,,,,,,,,,,,,,,2.196149792000142,2.196414832999835,2.2035900829996535,stop,squareblack.png,right,0.35,2.2036414579997654,2.204121916999611,2.2071164999997563,2.213455750000321,2.213455750000321,2.7063519169996653,2.7063519169996653,2.711637082999914,3.056483708000087,3.553136374999667,3.703095083000335,4.708335000000261,4.708335000000261,4.699853666999843,None,0,4.704614958000093,4.708335000000261,4.708335000000261,5.201210500000343,5.201210500000343,5.196313458000077,0.0030103749995760154,0.4888762079999651,0.838861082999756,5.196430457999668,5.196693416999551,5.196702791999996,practice,1,617105,001,2025-03-11_13h11.36.597,simplestop_skeleton,2024.2.4,None,2025-03-11 13h11.41.489847 -0700,
1,1,0,None,None,5.1968379580002875,stop,squareblack.png,right,0.4,None,0,0.001631041999644367,0.48792287499964004,0.8854771249998521,8.183878625000034,practice,1,0,0,0,0,0,1,1,1,5.201210500000343,,,,,,,,,,,,,,,,,,,5.1968379580002875,stop,squareblack.png,right,0.4,5.196880708000208,5.197123582999666,5.198734417000196,5.201210500000343,5.201210500000343,5.698178833000384,5.698178833000384,5.698178833000384,6.086043917000097,6.575263832999553,6.694168541999716,7.6862229999997,7.693372583000382,7.687955667000097,None,0,7.688013666999723,7.693372583000382,7.693372583000382,8.189499000000069,8.189499000000069,8.183483083000283,0.001631041999644367,0.48792287499964004,0.8854771249998521,8.183586750000359,8.183868832999906,8.183878625000034,practice,1,617105,001,2025-03-11_13h11.36.597,simplestop_skeleton,2024.2.4,None,2025-03-11 13h11.41.489847 -0700,
2,2,1,$currentCorrectResponse,$currentGoStim,8.18403245799982,go,circleblack.png,left,0.45,None,0,0.002636582999912207,0.4870739579992005,0.9402605409995886,11.180046458000106,practice,1,0,0,0,0,1,2,2,0,8.189499000000069,,,,,,,,,,,,,,,,,,,8.18403245799982,go,circleblack.png,left,0.45,8.184078000000227,8.18432945800032,8.186948083000061,8.189499000000069,8.189499000000069,8.676095666999572,8.676095666999572,8.689678333000302,9.128095166999628,9.627965624999888,9.669577042000128,10.66946787500001,10.691906791999827,10.68316991699976,None,0,10.688555208000253,10.691906791999827,10.691906791999827,11.185031375000108,11.185031375000108,11.179689292000148,0.002636582999912207,0.4870739579992005,0.9402605409995886,11.179786249999779,11.180036499999915,11.180046458000106,practice,1,617105,001,2025-03-11_13h11.36.597,simplestop_skeleton,2024.2.4,None,2025-03-11 13h11.41.489847 -0700,
3,3,0,None,None,11.180185416999848,go,squareblack.png,right,0.45,None,0,0.0024650000004839967,0.49395341699982964,0.9438330000002679,14.175074707999556,practice,1,0,0,0,0,0,3,3,2,11.185031375000108,,,,,,,,,,,,,,,,,,,11.180185416999848,go,squareblack.png,right,0.45,11.18022820799979,11.180485333000433,11.18292745800045,11.185031375000108,11.185031375000108,11.6782249580001,11.6782249580001,11.6782249580001,12.127907375000177,12.616947542000162,12.677469833000032,13.673110749999978,13.67821479200029,13.674761041999773,None,0,13.674821249999695,13.67821479200029,13.67821479200029,14.180221249999704,14.180221249999704,14.174725457999557,0.0024650000004839967,0.49395341699982964,0.9438330000002679,14.17481725000016,14.175065999999788,14.175074707999556,practice,1,617105,001,2025-03-11_13h11.36.597,simplestop_skeleton,2024.2.4,None,2025-03-11 13h11.41.489847 -0700,
4,4,2,$currentCorrectResponse,$currentGoStim,14.175202291999994,go,circleblack.png,left,0.45,None,0,0.002297166000062134,0.49069329099984316,0.9371127499998693,17.163489333000143,practice,1,0,0,0,0,2,4,4,0,14.180221249999704,,,,,,,,,,,,,,,,,,,14.175202291999994,go,circleblack.png,left,0.45,14.175240624999788,14.17546024999956,14.177744374999747,14.180221249999704,14.180221249999704,14.669890500000292,14.669890500000292,14.669890500000292,15.117090749999988,15.608717707999858,15.660862499999894,16.661225625000043,16.678069708000294,16.674786167000093,None,0,16.67483770800027,16.678069708000294,16.678069708000294,17.167935874999785,17.167935874999785,17.16316587500023,0.002297166000062134,0.49069329099984316,0.9371127499998693,17.163224457999604,17.163480457999867,17.163489333000143,practice,1,617105,001,2025-03-11_13h11.36.597,simplestop_skeleton,2024.2.4,None,2025-03-11 13h11.41.489847 -0700,
5,5,0,None,None,17.163616458000433,go,circleblack.png,left,0.45,None,0,0.001944583000295097,0.48544037500050763,0.9439904580003713,20.15025795800011,practice,1,0,0,0,0,0,5,5,3,17.167935874999785,,,,,,,,,,,,,,,,,,,17.163616458000433,go,circleblack.png,left,0.45,17.163654250000036,17.163869042000442,17.165797042000122,17.167935874999785,17.167935874999785,17.65296295799999,17.65296295799999,17.658866832999593,18.11168620799981,18.600804708000396,18.644811541999843,19.642031874999702,19.661561332999554,19.658056999999644,None,0,19.65810183299982,19.661561332999554,19.661561332999554,20.155202541999643,20.155202541999643,20.149921000000177,0.001944583000295097,0.48544037500050763,0.9439904580003713,20.150002291999954,20.15024783300032,20.15025795800011,practice,1,617105,001,2025-03-11_13h11.36.597,simplestop_skeleton,2024.2.4,None,2025-03-11 13h11.41.489847 -0700,
6,6,1,None,None,20.15039125000021,go,squareblack.png,right,0.45,None,0,0.0021964580000712886,0.4868797499993889,0.9404244580000523,23.142148042000372,practice,1,0,0,0,0,1,6,6,1,20.155202541999643,,,,,,,,,,,,,,,,,,,20.15039125000021,go,squareblack.png,right,0.45,20.15043095799956,20.15064262499982,20.15282366700012,20.155202541999643,20.155202541999643,20.642172832999677,20.642172832999677,20.656548124999972,21.094735208000202,21.583561792000182,21.633486249999805,22.635665124999832,22.65315974999976,22.649763708000137,None,0,22.64981095799976,22.65315974999976,22.65315974999976,23.147289792000265,23.147289792000265,23.14178449999963,0.0021964580000712886,0.4868797499993889,0.9404244580000523,23.141862749999746,23.14213783299965,23.142148042000372,practice,1,617105,001,2025-03-11_13h11.36.597,simplestop_skeleton,2024.2.4,None,2025-03-11 13h11.41.489847 -0700,
7,7,2,None,None,23.142284208000092,stop,circleblack.png,left,0.45,None,0,0.0023584160007885657,0.4903711660008412,0.9368020000001707,26.13344799999959,practice,1,0,0,0,0,2,7,7,1,23.147289792000265,,,,,,,,,,,,,,,,,,,23.142284208000092,stop,circleblack.png,left,0.45,23.142325875000097,23.142551791999722,23.14489487500032,23.147289792000265,23.147289792000265,23.63652812500004,23.63652812500004,23.63652812500004,24.083694957999796,24.581621583000015,24.62799025000004,25.627875916999983,25.647139833000438,25.641912791999857,None,0,25.64348237499962,25.647139833000438,25.647139833000438,26.13849866700002,26.13849866700002,26.133132416999615,0.0023584160007885657,0.4903711660008412,0.9368020000001707,26.133208166999793,26.133439541999905,26.13344799999959,practice,1,617105,001,2025-03-11_13h11.36.597,simplestop_skeleton,2024.2.4,None,2025-03-11 13h11.41.489847 -0700,
8,8,1,None,None,26.133576207999795,go,squareblack.png,right,0.5,None,0,0.0021980420006002532,0.4852295420005248,0.987314167000477,29.117132125000353,practice,1,0,0,0,0,1,8,8,2,26.13849866700002,,,,,,,,,,,,,,,,,,,26.133576207999795,go,squareblack.png,right,0.5,26.133615292000286,26.13381945800029,26.136001333000422,26.13849866700002,26.13849866700002,26.631505166999887,26.631505166999887,26.637047375000293,27.12557391700011,27.623253083000236,27.627791457999592,28.630385041999943,28.630385041999943,28.62493295799959,None,0,28.626746916999764,28.630385041999943,28.630385041999943,29.122433374999673,29.122433374999673,29.116790791999847,0.0021980420006002532,0.4852295420005248,0.987314167000477,29.116874667000047,29.117122417000246,29.117132125000353,practice,1,617105,001,2025-03-11_13h11.36.597,simplestop_skeleton,2024.2.4,None,2025-03-11 13h11.41.489847 -0700,
9,9,1,None,None,29.117263791999903,stop,circleblack.png,left,0.5,None,0,0.002402292000624584,0.4869390840003689,0.9865077920003387,32.10881945799974,practice,1,0,0,0,0,1,9,9,3,29.122433374999673,,,,,,,,,,,,,,,,,,,29.117263791999903,stop,circleblack.png,left,0.5,29.117306500000268,29.1175503329996,29.119936291999693,29.122433374999673,29.122433374999673,29.609008499999618,29.609008499999618,29.623158958000204,30.108410042000287,30.602455792,30.602455792,31.606577917000322,31.613402750000205,31.60829266699966,None,0,31.60976454200045,31.613402750000205,31.613402750000205,32.11343208299968,32.11343208299968,32.108429083000374,0.002402292000624584,0.4869390840003689,0.9865077920003387,32.10851925000043,32.108808916999806,32.10881945799974,practice,1,617105,001,2025-03-11_13h11.36.597,simplestop_skeleton,2024.2.4,None,2025-03-11 13h11.41.489847 -0700,
10,10,2,None,None,32.108953541999654,go,circleblack.png,left,0.55,None,0,0.0018014159995800583,0.49031866599943896,1.0372179579999283,35.1085244169999,practice,1,0,0,0,0,2,10,10,2,32.11343208299968,,,,,,,,,,,,,,,,,,,32.108953541999654,go,circleblack.png,left,0.55,32.10899658299968,32.10923550000007,32.111024499999985,32.11343208299968,32.11343208299968,32.603582417000325,32.603582417000325,32.603582417000325,33.15071458300008,33.644365500000276,33.60301799999979,34.594433166999806,34.61373474999982,34.60833854199973,None,0,34.61016075000043,34.61373474999982,34.61373474999982,35.11351058299988,35.11351058299988,35.10816808300024,0.0018014159995800583,0.49031866599943896,1.0372179579999283,35.10823708299995,35.10851550000007,35.1085244169999,practice,1,617105,001,2025-03-11_13h11.36.597,simplestop_skeleton,2024.2.4,None,2025-03-11 13h11.41.489847 -0700,
11,11,3,None,None,35.108656708000126,go,squareblack.png,right,0.55,None,0,0.002164167000046291,0.4907185000001846,1.0340221669994207,38.09674895799981,practice,1,0,0,0,0,3,11,11,2,35.11351058299988,,,,,,,,,,,,,,,,,,,35.108656708000126,go,squareblack.png,right,0.55,35.108697292000215,35.10892412500016,35.11107479200018,35.11351058299988,35.11351058299988,35.6034156249998,35.6034156249998,35.6034156249998,36.156694917000095,36.64449637500002,36.603078500000265,37.59407120800006,37.611868125,37.60847741700036,None,0,37.608538583000154,37.611868125,37.611868125,38.10142858299969,38.10142858299969,38.09639354200044,0.002164167000046291,0.4907185000001846,1.0340221669994207,38.096473999999944,38.096740207999574,38.09674895799981,practice,1,617105,001,2025-03-11_13h11.36.597,simplestop_skeleton,2024.2.4,None,2025-03-11 13h11.41.489847 -0700,
12,12,3,$currentCorrectResponse,$currentGoStim,38.09688745800031,go,squareblack.png,right,0.55,None,0,0.0017808330003390438,0.4857547500005239,1.0440157080001882,41.09198941700015,practice,1,0,0,0,0,3,12,12,0,38.10142858299969,,,,,,,,,,,,,,,,,,,38.09688745800031,go,squareblack.png,right,0.55,38.09693166699981,38.09715883300032,38.09892412499994,38.10142858299969,38.10142858299969,38.58666774999983,38.58666774999983,38.592636416999994,39.14490208299958,39.63662058299997,39.57809316699968,40.585928417000105,40.598349416999554,40.587582750000365,None,0,40.58764104199963,40.598349416999554,40.598349416999554,,,41.09147358300015,0.0017808330003390438,0.4857547500005239,1.0440157080001882,41.09155420800016,41.09197887499977,41.09198941700015,practice,1,617105,001,2025-03-11_13h11.36.597,simplestop_skeleton,2024.2.4,None,2025-03-11 13h11.41.489847 -0700,
13,13,4,$currentCorrectResponse,$currentGoStim,41.092139708000104,go,squareblack.png,right,0.55,None,0,0.0019259999999121646,0.4841384999999718,1.0363884999997026,44.083690082999965,practice,1,0,0,0,0,4,13,13,0,41.09669974999997,,,,,,,,,,,,,,,,,,,41.092139708000104,go,squareblack.png,right,0.55,41.09218624999994,41.09243583300031,41.094344750000346,41.09669974999997,41.09669974999997,41.59003966700038,41.59003966700038,41.59524020800018,42.140048166999804,42.64001974999974,42.589978916999826,43.5778503749998,43.59507887499967,43.59178675000021,None,0,43.59184812500007,43.59507887499967,43.59507887499967,44.08878879199983,44.08878879199983,44.08333812500041,0.0019259999999121646,0.4841384999999718,1.0363884999997026,44.083416708000186,44.083680042000196,44.083690082999965,practice,1,617105,001,2025-03-11_13h11.36.597,simplestop_skeleton,2024.2.4,None,2025-03-11 13h11.41.489847 -0700,
14,14,2,None,None,44.083819292000044,go,circleblack.png,left,0.55,None,0,0.0023052919996189303,0.49071516699950735,1.036868291999781,47.083962875,practice,1,0,0,0,0,2,14,14,3,44.08878879199983,,,,,,,,,,,,,,,,,,,44.083819292000044,go,circleblack.png,left,0.55,44.083861750000324,44.08411816700027,44.08640733300035,44.08878879199983,44.08878879199983,44.57823904199995,44.57823904199995,44.57823904199995,45.12534874999983,45.623291457999585,45.56692141700023,46.56974120799987,46.58680812500006,46.58346474999962,None,0,46.583516542000325,46.58680812500006,46.58680812500006,47.08911137500036,47.08911137500036,47.08359620800002,0.0023052919996189303,0.49071516699950735,1.036868291999781,47.083684500000345,47.08395287500025,47.083962875,practice,1,617105,001,2025-03-11_13h11.36.597,simplestop_skeleton,2024.2.4,None,2025-03-11 13h11.41.489847 -0700,
15,15,3,None,None,47.084110458000396,stop,squareblack.png,right,0.55,None,0,0.002337666999665089,0.4902865419999216,1.036581291999937,50.075360083000305,practice,1,0,0,0,0,3,15,15,3,47.08911137500036,,,,,,,,,,,,,,,,,,,47.084110458000396,stop,squareblack.png,right,0.55,47.084157625000444,47.084405167000114,47.08672991700041,47.08911137500036,47.08911137500036,47.57829358300023,47.57829358300023,47.57829358300023,48.12532854199981,48.61718204200042,48.577701750000415,49.56961695799964,49.58849879199988,49.58341966700027,None,0,49.58494854200035,49.58849879199988,49.58849879199988,50.080621625000276,50.080621625000276,50.075004416999946,0.002337666999665089,0.4902865419999216,1.036581291999937,50.07509758299966,50.07535162499971,50.075360083000305,practice,1,617105,001,2025-03-11_13h11.36.597,simplestop_skeleton,2024.2.4,None,2025-03-11 13h11.41.489847 -0700,
16,16,3,None,None,50.075490917000025,go,circleblack.png,left,0.6,None,0,0.002267750000100932,0.48405908299992007,1.0841466249994482,53.06689275000008,practice,1,0,0,0,0,3,16,16,1,50.080621625000276,,,,,,,,,,,,,,,,,,,50.075490917000025,go,circleblack.png,left,0.6,50.0755308329999,50.075772625000354,50.07802608299971,50.080621625000276,50.080621625000276,50.57332829200004,50.57332829200004,50.578582707999885,51.17333866700028,51.67347954199977,51.561659916999815,52.573477750000166,52.58035066699995,52.575242541999614,None,0,52.57701220800027,52.58035066699995,52.58035066699995,53.07176320800045,53.07176320800045,53.06663929200022,0.002267750000100932,0.48405908299992007,1.0841466249994482,53.06670670800031,53.06688445799955,53.06689275000008,practice,1,617105,001,2025-03-11_13h11.36.597,simplestop_skeleton,2024.2.4,None,2025-03-11 13h11.41.489847 -0700,
17,17,4,None,None,53.06702333300018,go,squareblack.png,right,0.6,None,0,0.0021097919998283032,0.49117566699987947,1.0906324589996075,56.058537375000014,practice,1,0,0,0,0,4,17,17,3,53.07176320800045,,,,,,,,,,,,,,,,,,,53.06702333300018,go,squareblack.png,right,0.6,53.06706599999961,53.06724324999959,53.06933733299957,53.07176320800045,53.07176320800045,53.56228291699972,53.56228291699972,53.56228291699972,54.161323000000266,54.65060654199988,54.55294820800009,55.55678929199985,55.562134707999576,55.558646583000154,None,0,55.55872266700044,55.562134707999576,55.562134707999576,56.06363337499988,56.06363337499988,56.05824387499979,0.0021097919998283032,0.49117566699987947,1.0906324589996075,56.058314750000136,56.05852975000016,56.058537375000014,practice,1,617105,001,2025-03-11_13h11.36.597,simplestop_skeleton,2024.2.4,None,2025-03-11 13h11.41.489847 -0700,
18,18,4,None,None,56.058663167000304,stop,circleblack.png,left,0.6,None,0,0.0020858749994658865,0.48746729099912045,1.0909134999992602,59.05034716699993,practice,1,0,0,0,0,4,18,18,1,56.06363337499988,,,,,,,,,,,,,,,,,,,56.058663167000304,stop,circleblack.png,left,0.6,56.058696791999864,56.058898666999994,56.0609694169998,56.06363337499988,56.06363337499988,56.550623082999664,56.550623082999664,56.56524604199967,57.15364808300001,57.64440025000022,57.54419304200019,58.54465975000039,58.5639146249996,58.5587961250003,None,0,58.56031858299957,58.5639146249996,58.5639146249996,59.05530795800041,59.05530795800041,59.05001029199957,0.0020858749994658865,0.48746729099912045,1.0909134999992602,59.050105041999814,59.05033850000018,59.05034716699993,practice,1,617105,001,2025-03-11_13h11.36.597,simplestop_skeleton,2024.2.4,None,2025-03-11 13h11.41.489847 -0700,
19,19,5,None,None,59.05047795799965,stop,squareblack.png,right,0.65,None,0,0.0019710420001501916,0.4868479169999773,1.1344244170004458,62.046774874999755,practice,1,0,0,0,0,5,19,19,3,59.05530795800041,,,,,,,,,,,,,,,,,,,59.05047795799965,stop,squareblack.png,right,0.65,59.05051541699959,59.05071895800029,59.05267412499961,59.05530795800041,59.05530795800041,59.542416667,59.542416667,59.55673741699957,60.19844029199976,60.69422820799991,60.55678679199991,61.54421166700013,61.54958029200043,61.54607775000022,None,0,61.54613912500008,61.54958029200043,61.54958029200043,,,62.04619308299971,0.0019710420001501916,0.4868479169999773,1.1344244170004458,62.0463173750004,62.046763833000114,62.046774874999755,practice,1,617105,001,2025-03-11_13h11.36.597,simplestop_skeleton,2024.2.4,None,2025-03-11 13h11.41.489847 -0700,
20,20,5,$currentCorrectResponse,$currentGoStim,62.04694162499982,go,squareblack.png,right,0.7,None,0,0.0018382500002189772,0.4896939999998722,1.1898394170002575,65.03849987499962,practice,1,0,0,0,0,5,20,20,0,62.05173387499963,,,,,,,,,,,,,,,,,,,62.04694162499982,go,squareblack.png,right,0.7,62.046989292000035,62.04729412500001,62.04911254200033,62.05173387499963,62.05173387499963,62.540383833000305,62.540383833000305,62.540383833000305,63.24079312499998,63.740950250000424,63.53000316700036,64.5330437499997,64.54629741699955,64.5404068329999,None,0,64.54256274999989,64.54629741699955,64.54629741699955,65.043977542,65.043977542,65.03811874999974,0.0018382500002189772,0.4896939999998722,1.1898394170002575,65.0382253329999,65.03849329199966,65.03849987499962,practice,1,617105,001,2025-03-11_13h11.36.597,simplestop_skeleton,2024.2.4,None,2025-03-11 13h11.41.489847 -0700,
21,21,5,None,None,65.03860574999999,go,circleblack.png,left,0.7,None,0,0.002643667000484129,0.490149250000286,1.1899118330002239,68.02994512500027,practice,1,0,0,0,0,5,21,21,1,65.043977542,,,,,,,,,,,,,,,,,,,65.03860574999999,go,circleblack.png,left,0.7,65.03863479200027,65.03883124999993,65.04145270800018,65.043977542,65.043977542,65.53266070799964,65.53266070799964,65.53266070799964,66.2322409999997,66.73220004199993,66.524884208,67.5244929999999,67.5443715829997,67.53170454199972,None,0,67.53176579200044,67.5443715829997,67.5443715829997,68.03471333299967,68.03471333299967,68.02965124999992,0.002643667000484129,0.490149250000286,1.1899118330002239,68.02973562500028,68.02993758299999,68.02994512500027,practice,1,617105,001,2025-03-11_13h11.36.597,simplestop_skeleton,2024.2.4,None,2025-03-11 13h11.41.489847 -0700,
22,22,4,None,None,68.03005470799962,stop,circleblack.png,left,0.7,None,0,0.0019250830000601127,0.48477899999943475,1.1839184159998695,71.02098850000039,practice,1,0,0,0,0,4,22,22,2,68.03471333299967,,,,,,,,,,,,,,,,,,,68.03005470799962,stop,circleblack.png,left,0.7,68.03008500000033,68.03024424999967,68.03214754199962,68.03471333299967,68.03471333299967,68.5275945000003,68.5275945000003,68.53157587500027,69.22728312500021,69.71609358299975,69.52447091700014,70.52602020799986,70.52602020799986,70.52080670800024,None,0,70.5223361669996,70.52602020799986,70.52602020799986,71.02554158299972,71.02554158299972,71.02072995799972,0.0019250830000601127,0.48477899999943475,1.1839184159998695,71.02079816700007,71.02098141700026,71.02098850000039,practice,1,617105,001,2025-03-11_13h11.36.597,simplestop_skeleton,2024.2.4,None,2025-03-11 13h11.41.489847 -0700,
23,23,5,None,None,71.02110729200012,go,circleblack.png,left,0.75,None,0,0.0016554160001760465,0.491763582999738,1.2407521249997444,74.00470587499967,practice,1,0,0,0,0,5,23,23,2,71.02554158299972,,,,,,,,,,,,,,,,,,,71.02110729200012,go,circleblack.png,left,0.75,71.02114170799996,71.02136579200032,71.0230074580004,71.02554158299972,71.02554158299972,71.51598645800004,71.51598645800004,71.51598645800004,72.26542891699955,72.7575759170004,72.50719820799986,73.5182612919998,73.5182612919998,73.51282950000041,None,0,73.51465804199961,73.5182612919998,73.5182612919998,,,74.00433975000033,0.0016554160001760465,0.491763582999738,1.2407521249997444,74.00443837500006,74.00469675000022,74.00470587499967,practice,1,617105,001,2025-03-11_13h11.36.597,simplestop_skeleton,2024.2.4,None,2025-03-11 13h11.41.489847 -0700,
