thisN,thisTrialN,thisRepN,corrGoResp,shape,StartTrialTimeStamp,trialType,goStim,correctResponse,ssd,goResp.keys,goResp.corr,fixationOnset,goStimOnset,stopSignalOnset,EndTrialTimeStamp,Phase,Block,practiceBlocks.thisRepN,practiceBlocks.thisTrialN,practiceBlocks.thisN,practiceBlocks.thisIndex,practiceTrials.thisRepN,practiceTrials.thisTrialN,practiceTrials.thisN,practiceTrials.thisIndex,thisRow.t,notes,stopPracTrialList,Test Block: 1,start.started,welcome.started,start_exp.started,start.stopped,start_exp.keys,start_exp.rt,start_exp.duration,StimSetup.started,StimSetup.stopped,instructions.started,instrStopText.started,start_prac.started,instructions.stopped,practiceBlockSetup.started,practiceBlockSetup.stopped,practiceTrials.StartTrialTimeStamp,practiceTrials.trialType,practiceTrials.goStim,practiceTrials.correctResponse,practiceTrials.ssd,newPracticeStim.started,newPracticeStim.stopped,trial.started,fixation.started,rules.started,goStim.started,goResp.started,fixation.stopped,stopSignal.started,stopSignal.stopped,goStim.stopped,goResp.stopped,rules.stopped,trial.stopped,practiceTrials.goResp.keys,practiceTrials.goResp.corr,feedback.started,text.started,rules_2.started,text.stopped,rules_2.stopped,feedback.stopped,practiceTrials.fixationOnset,practiceTrials.goStimOnset,practiceTrials.stopSignalOnset,endTrial.started,endTrial.stopped,practiceTrials.EndTrialTimeStamp,practiceTrials.Phase,practiceTrials.Block,participant,session,date,expName,psychopyVersion,frameRate,expStart,
,,,,,,,,,,,,,,,,,,,,,,,,,,,,"[{'fileName': 'squareblack.png', 'correct_response': 'right', 'condition': 'go'}, {'fileName': 'squareblack.png', 'correct_response': 'right', 'condition': 'stop'}, {'fileName': 'circleblack.png', 'correct_response': 'left', 'condition': 'go'}, {'fileName': 'circleblack.png', 'correct_response': 'left', 'condition': 'go'}, {'fileName': 'squareblack.png', 'correct_response': 'right', 'condition': 'go'}, {'fileName': 'squareblack.png', 'correct_response': 'right', 'condition': 'go'}, {'fileName': 'squareblack.png', 'correct_response': 'right', 'condition': 'go'}, {'fileName': 'circleblack.png', 'correct_response': 'left', 'condition': 'go'}, {'fileName': 'circleblack.png', 'correct_response': 'left', 'condition': 'go'}, {'fileName': 'circleblack.png', 'correct_response': 'left', 'condition': 'stop'}, {'fileName': 'squareblack.png', 'correct_response': 'right', 'condition': 'stop'}, {'fileName': 'circleblack.png', 'correct_response': 'left', 'condition': 'stop'}, {'fileName': 'squareblack.png', 'correct_response': 'right', 'condition': 'go'}, {'fileName': 'circleblack.png', 'correct_response': 'left', 'condition': 'go'}, {'fileName': 'circleblack.png', 'correct_response': 'left', 'condition': 'stop'}, {'fileName': 'circleblack.png', 'correct_response': 'left', 'condition': 'go'}, {'fileName': 'squareblack.png', 'correct_response': 'right', 'condition': 'go'}, {'fileName': 'squareblack.png', 'correct_response': 'right', 'condition': 'stop'}, {'fileName': 'circleblack.png', 'correct_response': 'left', 'condition': 'go'}, {'fileName': 'squareblack.png', 'correct_response': 'right', 'condition': 'go'}, {'fileName': 'squareblack.png', 'correct_response': 'right', 'condition': 'go'}, {'fileName': 'circleblack.png', 'correct_response': 'left', 'condition': 'go'}, {'fileName': 'circleblack.png', 'correct_response': 'left', 'condition': 'stop'}, {'fileName': 'squareblack.png', 'correct_response': 'right', 'condition': 'stop'}]","[{'fileName': 'squareblack.png', 'correct_response': 'right', 'condition': 'go'}, {'fileName': 'circleblack.png', 'correct_response': 'left', 'condition': 'go'}, {'fileName': 'squareblack.png', 'correct_response': 'right', 'condition': 'stop'}, {'fileName': 'circleblack.png', 'correct_response': 'left', 'condition': 'stop'}, {'fileName': 'circleblack.png', 'correct_response': 'left', 'condition': 'go'}, {'fileName': 'squareblack.png', 'correct_response': 'right', 'condition': 'go'}, {'fileName': 'squareblack.png', 'correct_response': 'right', 'condition': 'stop'}, {'fileName': 'squareblack.png', 'correct_response': 'right', 'condition': 'go'}, {'fileName': 'circleblack.png', 'correct_response': 'left', 'condition': 'stop'}, {'fileName': 'squareblack.png', 'correct_response': 'right', 'condition': 'go'}, {'fileName': 'circleblack.png', 'correct_response': 'left', 'condition': 'go'}, {'fileName': 'circleblack.png', 'correct_response': 'left', 'condition': 'go'}, {'fileName': 'squareblack.png', 'correct_response': 'right', 'condition': 'stop'}, {'fileName': 'circleblack.png', 'correct_response': 'left', 'condition': 'go'}, {'fileName': 'circleblack.png', 'correct_response': 'left', 'condition': 'stop'}, {'fileName': 'circleblack.png', 'correct_response': 'left', 'condition': 'go'}, {'fileName': 'squareblack.png', 'correct_response': 'right', 'condition': 'go'}, {'fileName': 'circleblack.png', 'correct_response': 'left', 'condition': 'stop'}, {'fileName': 'circleblack.png', 'correct_response': 'left', 'condition': 'go'}, {'fileName': 'squareblack.png', 'correct_response': 'right', 'condition': 'go'}, {'fileName': 'circleblack.png', 'correct_response': 'left', 'condition': 'go'}, {'fileName': 'squareblack.png', 'correct_response': 'right', 'condition': 'go'}, {'fileName': 'squareblack.png', 'correct_response': 'right', 'condition': 'stop'}, {'fileName': 'squareblack.png', 'correct_response': 'right', 'condition': 'go'}, {'fileName': 'squareblack.png', 'correct_response': 'right', 'condition': 'go'}, {'fileName': 'squareblack.png', 'correct_response': 'right', 'condition': 'go'}, {'fileName': 'circleblack.png', 'correct_response': 'left', 'condition': 'go'}, {'fileName': 'circleblack.png', 'correct_response': 'left', 'condition': 'stop'}, {'fileName': 'circleblack.png', 'correct_response': 'left', 'condition': 'go'}, {'fileName': 'squareblack.png', 'correct_response': 'right', 'condition': 'go'}, {'fileName': 'squareblack.png', 'correct_response': 'right', 'condition': 'stop'}, {'fileName': 'circleblack.png', 'correct_response': 'left', 'condition': 'stop'}, {'fileName': 'squareblack.png', 'correct_response': 'right', 'condition': 'go'}, {'fileName': 'circleblack.png', 'correct_response': 'left', 'condition': 'go'}, {'fileName': 'circleblack.png', 'correct_response': 'left', 'condition': 'go'}, {'fileName': 'squareblack.png', 'correct_response': 'right', 'condition': 'stop'}, {'fileName': 'circleblack.png', 'correct_response': 'left', 'condition': 'go'}, {'fileName': 'circleblack.png', 'correct_response': 'left', 'condition': 'go'}, {'fileName': 'squareblack.png', 'correct_response': 'right', 'condition': 'go'}, {'fileName': 'squareblack.png', 'correct_response': 'right', 'condition': 'go'}, {'fileName': 'squareblack.png', 'correct_response': 'right', 'condition': 'stop'}, {'fileName': 'circleblack.png', 'correct_response': 'left', 'condition': 'stop'}, {'fileName': 'squareblack.png', 'correct_response': 'right', 'condition': 'stop'}, {'fileName': 'circleblack.png', 'correct_response': 'left', 'condition': 'stop'}, {'fileName': 'circleblack.png', 'correct_response': 'left', 'condition': 'go'}, {'fileName': 'circleblack.png', 'correct_response': 'left', 'condition': 'go'}, {'fileName': 'squareblack.png', 'correct_response': 'right', 'condition': 'go'}, {'fileName': 'squareblack.png', 'correct_response': 'right', 'condition': 'go'}]",0.008658833000026789,0.014580458000182261,0.014580458000182261,2.270747666999796,return,2.2325093750000633,None,,,,,,,,,,,,,,,,,,,,,,,,,,,,,,,,,,,,,,,,,,,,697784,001,2025-03-13_10h30.20.760,simplestop_skeleton,2022.2.2,None,2025-03-13 10h30.25.194669 -0700,
,,,,,,,,,,,,,,,,,,,,,,,,,,,,,,,,,,,,,2.2707985830002144,2.27106566700013,,,,,,,,,,,,,,,,,,,,,,,,,,,,,,,,,,,,,,,,,,697784,001,2025-03-13_10h30.20.760,simplestop_skeleton,2022.2.2,None,2025-03-13 10h30.25.194669 -0700,
,,,,,,,,,,,,,,,,,,,,,,,,,,,,,,,,,,,,,,,2.2710816670000895,2.282532917000026,2.282532917000026,2.8305419170001187,,,,,,,,,,,,,,,,,,,,,,,,,,,,,,,,,,,,,,697784,001,2025-03-13_10h30.20.760,simplestop_skeleton,2022.2.2,None,2025-03-13 10h30.25.194669 -0700,
0,0,0,None,None,2.838428749999821,go,squareblack.png,right,0.35,None,0,0.0027939579999838315,0.48683299999993324,0.8340610830000514,5.846627875000195,practice,1,0,0,0,0,0,0,0,1,2.851342082999963,,,,,,,,,,,,,,,,,2.831058000000212,2.8313657499998044,2.838428749999821,go,squareblack.png,right,0.35,2.8384876670002086,2.838809625000067,2.8415890000001127,2.851342082999963,2.851342082999963,3.330645542000184,3.330645542000184,3.3497464170000057,3.6861497079999026,4.186150292000093,4.327834499999881,5.331425542000034,5.358398416999989,5.3467784999998,None,0,5.354226833000212,5.358398416999989,5.358398416999989,5.851142250000066,5.851142250000066,5.846359499999835,0.0027939579999838315,0.48683299999993324,0.8340610830000514,5.846443207999982,5.846619458000077,5.846627875000195,practice,1,697784,001,2025-03-13_10h30.20.760,simplestop_skeleton,2022.2.2,None,2025-03-13 10h30.25.194669 -0700,
1,1,0,None,None,5.846753207999882,stop,squareblack.png,right,0.35,None,0,0.0016550000000279397,0.487344082999698,0.8405055829998673,8.839103875000092,practice,1,0,0,0,0,0,1,1,3,5.851142250000066,,,,,,,,,,,,,,,,,,,5.846753207999882,stop,squareblack.png,right,0.35,5.846800082999835,5.846968416999971,5.848606749999817,5.851142250000066,5.851142250000066,6.338968999999906,6.338968999999906,6.352747583000109,6.690955542000211,7.180246500000067,7.329933916999835,8.336222542000087,8.344698792000145,8.338194458000089,None,0,8.341475249999803,8.344698792000145,8.344698792000145,,,8.838321416999861,0.0016550000000279397,0.487344082999698,0.8405055829998673,8.83843724999997,8.83909520799989,8.839103875000092,practice,1,697784,001,2025-03-13_10h30.20.760,simplestop_skeleton,2022.2.2,None,2025-03-13 10h30.25.194669 -0700,
2,2,0,$currentCorrectResponse,$currentGoStim,8.839230000000043,go,circleblack.png,left,0.4,None,0,0.002732708999701572,0.49811241699990205,0.8869982920000439,11.83805908300019,practice,1,0,0,0,0,0,2,2,0,8.845733333000226,,,,,,,,,,,,,,,,,,,8.839230000000043,go,circleblack.png,left,0.4,8.839274916999784,8.839527707999878,8.842239832999894,8.845733333000226,8.845733333000226,9.341302917000121,9.341302917000121,9.341302917000121,9.730197792000126,10.221739832999901,10.332526042000154,11.332397000000128,11.339423291999992,11.33424500000001,None,0,11.335940875000233,11.339423291999992,11.339423291999992,,,11.837619792000169,0.002732708999701572,0.49811241699990205,0.8869982920000439,11.837697708000178,11.838050249999924,11.83805908300019,practice,1,697784,001,2025-03-13_10h30.20.760,simplestop_skeleton,2022.2.2,None,2025-03-13 10h30.25.194669 -0700,
3,3,1,None,None,11.838188042000183,go,circleblack.png,left,0.4,None,0,0.0016639169998597936,0.4846589590001713,0.8876256250000552,14.829975749999903,practice,1,0,0,0,0,1,3,3,3,11.842599874999905,,,,,,,,,,,,,,,,,,,11.838188042000183,go,circleblack.png,left,0.4,11.838236874999893,11.838444208000055,11.840097541999967,11.842599874999905,11.842599874999905,12.336245583000164,12.336245583000164,12.341634583000086,12.730120083000202,13.222006500000134,13.324396667000201,14.333050000000185,14.333050000000185,14.329697749999923,None,0,14.329752749999898,14.333050000000185,14.333050000000185,14.834755124999901,14.834755124999901,14.829664917000173,0.0016639169998597936,0.4846589590001713,0.8876256250000552,14.82974087499997,14.829967125000167,14.829975749999903,practice,1,697784,001,2025-03-13_10h30.20.760,simplestop_skeleton,2022.2.2,None,2025-03-13 10h30.25.194669 -0700,
4,4,1,None,None,14.830095583000002,go,squareblack.png,right,0.4,None,0,0.0020407080000950373,0.4866133330001503,0.8905977910003458,17.830152375000125,practice,1,0,0,0,0,1,4,4,1,14.834755124999901,,,,,,,,,,,,,,,,,,,14.830095583000002,go,squareblack.png,right,0.4,14.830141124999955,14.83037937500012,14.832408166999812,14.834755124999901,14.834755124999901,15.32789966700011,15.32789966700011,15.333340582999881,15.724656583000069,16.224832500000048,16.32472579200021,17.3157849170002,17.333528042000125,17.33000674999994,None,0,17.33006937500022,17.333528042000125,17.333528042000125,17.834651916999974,17.834651916999974,17.829850666999846,0.0020407080000950373,0.4866133330001503,0.8905977910003458,17.829934958000194,17.83014354199986,17.830152375000125,practice,1,697784,001,2025-03-13_10h30.20.760,simplestop_skeleton,2022.2.2,None,2025-03-13 10h30.25.194669 -0700,
5,5,0,None,None,17.830276167000193,go,squareblack.png,right,0.4,None,0,0.001683041999967827,0.4905597920001128,0.8869426670003122,20.82158579199995,practice,1,0,0,0,0,0,5,5,2,17.834651916999974,,,,,,,,,,,,,,,,,,,17.830276167000193,go,squareblack.png,right,0.4,17.83032591700021,17.830589916999998,17.83226191699987,17.834651916999974,17.834651916999974,18.32475729199996,18.32475729199996,18.32475729199996,18.72174437500007,19.213817958000163,19.316231291999884,20.319567083000038,20.324763083000107,20.321429541999805,None,0,20.321486542000002,20.324763083000107,20.324763083000107,20.825825583000096,20.825825583000096,20.82128154200018,0.001683041999967827,0.4905597920001128,0.8869426670003122,20.821355208000114,20.821578083000077,20.82158579199995,practice,1,697784,001,2025-03-13_10h30.20.760,simplestop_skeleton,2022.2.2,None,2025-03-13 10h30.25.194669 -0700,
6,6,2,None,None,20.821699666999848,go,squareblack.png,right,0.4,None,0,0.0014702079997732653,0.48733920799986663,0.8872265410000182,23.80714991700006,practice,1,0,0,0,0,2,6,6,3,20.825825583000096,,,,,,,,,,,,,,,,,,,20.821699666999848,go,squareblack.png,right,0.4,20.821743083,20.82195645799993,20.82341683300001,20.825825583000096,20.825825583000096,21.31383704200016,21.31383704200016,21.327872082999875,21.713261417000012,22.20513737500005,22.305139874999895,23.311481749999984,23.31720674999997,23.313622541999848,None,0,23.313673499999823,23.31720674999997,23.31720674999997,23.812979625000025,23.812979625000025,23.80678533299988,0.0014702079997732653,0.48733920799986663,0.8872265410000182,23.80688329199984,23.807141582999975,23.80714991700006,practice,1,697784,001,2025-03-13_10h30.20.760,simplestop_skeleton,2022.2.2,None,2025-03-13 10h30.25.194669 -0700,
7,7,1,$currentCorrectResponse,$currentGoStim,23.807274457999938,go,circleblack.png,left,0.4,None,0,0.002160083000035229,0.48468283300007897,0.8889055409999855,26.79290870800014,practice,1,0,0,0,0,1,7,7,0,23.812979625000025,,,,,,,,,,,,,,,,,,,23.807274457999938,go,circleblack.png,left,0.4,23.80731987499985,23.807728249999855,23.809873457999856,23.812979625000025,23.812979625000025,24.29659700000002,24.29659700000002,24.31132795800022,24.700731542000085,25.190629291999812,25.28859779200002,26.290958749999845,26.30831304200001,26.304841957999997,None,0,26.304904457999783,26.30831304200001,26.30831304200001,26.797364042000027,26.797364042000027,26.792575625000154,0.002160083000035229,0.48468283300007897,0.8889055409999855,26.792667416999848,26.79290058300012,26.79290870800014,practice,1,697784,001,2025-03-13_10h30.20.760,simplestop_skeleton,2022.2.2,None,2025-03-13 10h30.25.194669 -0700,
8,8,3,None,None,26.793033583000124,go,circleblack.png,left,0.4,None,0,0.0017184170001200982,0.4883936249998442,0.8947589589997733,29.780115500000193,practice,1,0,0,0,0,3,8,8,3,26.797364042000027,,,,,,,,,,,,,,,,,,,26.793033583000124,go,circleblack.png,left,0.4,26.79308154199998,26.793287999999848,26.79499587500004,26.797364042000027,26.797364042000027,27.294649417000073,27.294649417000073,27.294649417000073,27.692168666999805,28.192033667000032,28.282382917000177,29.291565167000044,29.291565167000044,29.288061166999796,None,0,29.28812062499992,29.291565167000044,29.291565167000044,29.784498083000017,29.784498083000017,29.779809707999902,0.0017184170001200982,0.4883936249998442,0.8947589589997733,29.77989662500022,29.780107042000054,29.780115500000193,practice,1,697784,001,2025-03-13_10h30.20.760,simplestop_skeleton,2022.2.2,None,2025-03-13 10h30.25.194669 -0700,
9,9,2,None,None,29.780241583000134,stop,circleblack.png,left,0.4,None,0,0.0016416250000474975,0.49081875000001673,0.8871454159998393,32.77176629199994,practice,1,0,0,0,0,2,9,9,1,29.784498083000017,,,,,,,,,,,,,,,,,,,29.780241583000134,stop,circleblack.png,left,0.4,29.780289625000023,29.780470125000193,29.782100249999985,29.784498083000017,29.784498083000017,30.274839791999966,30.274839791999966,30.274839791999966,30.67545287499979,31.174828582999908,31.265918083000088,32.265665291999994,32.28524533300015,32.280085708000115,None,0,32.281631082999866,32.28524533300015,32.28524533300015,32.77659462500014,32.77659462500014,32.77140449999979,0.0016416250000474975,0.49081875000001673,0.8871454159998393,32.7715066249998,32.77175820799994,32.77176629199994,practice,1,697784,001,2025-03-13_10h30.20.760,simplestop_skeleton,2022.2.2,None,2025-03-13 10h30.25.194669 -0700,
10,10,1,None,None,32.77188858299996,stop,squareblack.png,right,0.45,None,0,0.002093417000196496,0.4907644170002641,0.9371674170001825,35.76392600000008,practice,1,0,0,0,0,1,10,10,2,32.77659462500014,,,,,,,,,,,,,,,,,,,32.77188858299996,stop,squareblack.png,right,0.45,32.7719349580002,32.77214429200012,32.77422429199987,32.77659462500014,32.77659462500014,33.2665434999999,33.2665434999999,33.2665434999999,33.71339179200004,34.21149999999989,34.26715608299992,35.26627562500016,35.26627562500016,35.26312254200002,None,0,35.263192249999975,35.26627562500016,35.26627562500016,35.76916062500004,35.76916062500004,35.76341516699995,0.002093417000196496,0.4907644170002641,0.9371674170001825,35.76362854199988,35.76391700000022,35.76392600000008,practice,1,697784,001,2025-03-13_10h30.20.760,simplestop_skeleton,2022.2.2,None,2025-03-13 10h30.25.194669 -0700,
11,11,2,$currentCorrectResponse,$currentGoStim,35.764064999999846,stop,circleblack.png,left,0.5,None,0,0.002315958000053797,0.4901528750001489,0.9906337500001428,38.76358237500017,practice,1,0,0,0,0,2,11,11,0,35.76916062500004,,,,,,,,,,,,,,,,,,,35.764064999999846,stop,circleblack.png,left,0.5,35.764115458000106,35.76443870799994,35.76674112499995,35.76916062500004,35.76916062500004,36.2581771250002,36.2581771250002,36.2581771250002,36.75914116700005,37.25738991700018,37.25738991700018,38.249080333000165,38.26654429200016,38.263078792000215,None,0,38.26314116699996,38.26654429200016,38.26654429200016,38.76858591700011,38.76858591700011,38.763237624999874,0.002315958000053797,0.4901528750001489,0.9906337500001428,38.76333424999984,38.763573666999946,38.76358237500017,practice,1,697784,001,2025-03-13_10h30.20.760,simplestop_skeleton,2022.2.2,None,2025-03-13 10h30.25.194669 -0700,
12,12,4,None,None,38.7637118749999,go,squareblack.png,right,0.55,None,0,0.0022779169999012083,0.4864540419998775,1.0338995419997445,41.755431542000224,practice,1,0,0,0,0,4,12,12,3,38.76858591700011,,,,,,,,,,,,,,,,,,,38.7637118749999,go,squareblack.png,right,0.55,38.76375879199986,38.763968249999834,38.76623341699997,38.76858591700011,38.76858591700011,39.26110758300001,39.26110758300001,39.26656504199991,39.81127816700018,40.31156766699996,40.26165816699995,41.2601911669999,41.2601911669999,41.25490829199998,None,0,41.25678470799994,41.2601911669999,41.2601911669999,41.76055691700003,41.76055691700003,41.75506025000004,0.0022779169999012083,0.4864540419998775,1.0338995419997445,41.75515004199997,41.75542066700018,41.755431542000224,practice,1,697784,001,2025-03-13_10h30.20.760,simplestop_skeleton,2022.2.2,None,2025-03-13 10h30.25.194669 -0700,
13,13,2,None,None,41.7555684580002,go,circleblack.png,left,0.55,None,0,0.002199542000198562,0.4842223750001722,1.0341505840001446,44.746898082999905,practice,1,0,0,0,0,2,13,13,2,41.76055691700003,,,,,,,,,,,,,,,,,,,41.7555684580002,go,circleblack.png,left,0.55,41.75561974999982,41.755891667000014,41.75807900000018,41.76055691700003,41.76055691700003,42.25300941700016,42.25300941700016,42.258606375,42.802993625,43.29080687499982,43.24071175000017,44.24080624999988,44.25813845799985,44.25482425000018,None,0,44.25488154200002,44.25813845799985,44.25813845799985,44.751280250000036,44.751280250000036,44.7466015,0.002199542000198562,0.4842223750001722,1.0341505840001446,44.746677250000175,44.74688983299984,44.746898082999905,practice,1,697784,001,2025-03-13_10h30.20.760,simplestop_skeleton,2022.2.2,None,2025-03-13 10h30.25.194669 -0700,
14,14,3,None,None,44.747021916999984,stop,circleblack.png,left,0.55,None,0,0.001566333000027953,0.49072995799997443,1.03424641599986,47.74678262499992,practice,1,0,0,0,0,3,14,14,1,44.751280250000036,,,,,,,,,,,,,,,,,,,44.747021916999984,stop,circleblack.png,left,0.55,44.7470683749998,44.74727237500019,44.74882808299981,44.751280250000036,44.751280250000036,45.24160562499992,45.24160562499992,45.24160562499992,45.79466183300019,46.28268054199998,46.23332574999995,47.23247433300003,47.25179433299991,47.246702542000094,None,0,47.24829987500016,47.25179433299991,47.25179433299991,47.75111916700007,47.75111916700007,47.74648424999987,0.001566333000027953,0.49072995799997443,1.03424641599986,47.746571541999856,47.74677433299985,47.74678262499992,practice,1,697784,001,2025-03-13_10h30.20.760,simplestop_skeleton,2022.2.2,None,2025-03-13 10h30.25.194669 -0700,
15,15,3,None,None,47.746898667000096,go,circleblack.png,left,0.6,None,0,0.00151808299960976,0.4910040409999965,1.087380999999823,50.73861087500018,practice,1,0,0,0,0,3,15,15,2,47.75111916700007,,,,,,,,,,,,,,,,,,,47.746898667000096,go,circleblack.png,left,0.6,47.74694308300013,47.74715104200004,47.74865850000015,47.75111916700007,47.75111916700007,48.24169891700012,48.24169891700012,48.24169891700012,48.83857437500001,49.33635474999983,49.232721958000184,50.24250145799988,50.24250145799988,50.23796270799994,None,0,50.239569458000005,50.24250145799988,50.24250145799988,50.743648499999836,50.743648499999836,50.73833716699983,0.00151808299960976,0.4910040409999965,1.087380999999823,50.73842337499991,50.738600332999795,50.73861087500018,practice,1,697784,001,2025-03-13_10h30.20.760,simplestop_skeleton,2022.2.2,None,2025-03-13 10h30.25.194669 -0700,
16,16,4,None,None,50.7387373749998,go,squareblack.png,right,0.6,None,0,0.002158499999950436,0.4905007500001375,1.0908125410001048,53.7185761249998,practice,1,0,0,0,0,4,16,16,1,50.743648499999836,,,,,,,,,,,,,,,,,,,50.7387373749998,go,squareblack.png,right,0.6,50.7387852920001,50.73895649999986,50.74109783299991,50.743648499999836,50.743648499999836,51.232924750000166,51.232924750000166,51.232924750000166,51.83372712500022,52.33310120799979,52.22512133300006,53.22818462499981,53.233807999999954,53.23018345799983,None,0,53.23023275000014,53.233807999999954,53.233807999999954,53.72292558300023,53.72292558300023,53.71825725000008,0.002158499999950436,0.4905007500001375,1.0908125410001048,53.71834345800016,53.71856854199996,53.7185761249998,practice,1,697784,001,2025-03-13_10h30.20.760,simplestop_skeleton,2022.2.2,None,2025-03-13 10h30.25.194669 -0700,
17,17,3,$currentCorrectResponse,$currentGoStim,53.71869466699991,stop,squareblack.png,right,0.6,None,0,0.001607250000233762,0.48570708400029616,1.0938450840003497,56.70185787499986,practice,1,0,0,0,0,3,17,17,0,53.72292558300023,,,,,,,,,,,,,,,,,,,53.71869466699991,stop,squareblack.png,right,0.6,53.71873887499987,53.7189598330001,53.72055429200009,53.72292558300023,53.72292558300023,54.20821966699987,54.20821966699987,54.21444204199997,54.81665529200018,55.31616483300013,55.20312991699984,56.20315375000018,56.21468783299997,56.209292874999846,None,0,56.210842125,56.21468783299997,56.21468783299997,56.70673454200005,56.70673454200005,56.70150720799984,0.001607250000233762,0.48570708400029616,1.0938450840003497,56.70159154200019,56.70184970799983,56.70185787499986,practice,1,697784,001,2025-03-13_10h30.20.760,simplestop_skeleton,2022.2.2,None,2025-03-13 10h30.25.194669 -0700,
18,18,4,None,None,56.701979875000234,go,circleblack.png,left,0.65,None,0,0.002165334000437724,0.4939317920002395,1.1440103750001072,59.69711945800009,practice,1,0,0,0,0,4,18,18,2,56.70673454200005,,,,,,,,,,,,,,,,,,,56.701979875000234,go,circleblack.png,left,0.65,56.702024291999805,56.70228029200007,56.70442566700012,56.70673454200005,56.70673454200005,57.19987904199979,57.19987904199979,57.19987904199979,57.850014208000175,58.34151804200019,58.199950457999876,59.19494270799987,59.202119375000166,59.19677229199988,None,0,59.19862554200017,59.202119375000166,59.202119375000166,59.70206420800014,59.70206420800014,59.696805208000114,0.002165334000437724,0.4939317920002395,1.1440103750001072,59.69687829199984,59.69711112499999,59.69711945800009,practice,1,697784,001,2025-03-13_10h30.20.760,simplestop_skeleton,2022.2.2,None,2025-03-13 10h30.25.194669 -0700,
19,19,5,None,None,59.69723670800022,go,squareblack.png,right,0.65,None,0,0.002090291999593319,0.4904048339999463,1.1404429999997774,62.68876379199992,practice,1,0,0,0,0,5,19,19,3,59.70206420800014,,,,,,,,,,,,,,,,,,,59.69723670800022,go,squareblack.png,right,0.65,59.69728295799996,59.69752341699996,59.69959995799991,59.70206420800014,59.70206420800014,60.191129875000115,60.191129875000115,60.191129875000115,60.84170141699997,61.341126124999846,61.19146037500013,62.18017020800016,62.2001587499999,62.196714749999956,None,0,62.19677575000014,62.2001587499999,62.2001587499999,62.69315537500006,62.69315537500006,62.6884567080001,0.002090291999593319,0.4904048339999463,1.1404429999997774,62.6885456670002,62.6887552080002,62.68876379199992,practice,1,697784,001,2025-03-13_10h30.20.760,simplestop_skeleton,2022.2.2,None,2025-03-13 10h30.25.194669 -0700,
20,20,4,$currentCorrectResponse,$currentGoStim,62.68888991699987,go,squareblack.png,right,0.65,None,0,0.0015470000003006135,0.49061233300017193,1.1365282080000725,65.68042000000014,practice,1,0,0,0,0,4,20,20,0,62.69315537500006,,,,,,,,,,,,,,,,,,,62.68888991699987,go,squareblack.png,right,0.65,62.68893716699995,62.68916841700002,62.69070433300021,62.69315537500006,62.69315537500006,63.18343416700009,63.18343416700009,63.18343416700009,63.83030883299989,64.32819474999997,64.1721312499999,65.18324666699982,65.18324666699982,65.17993616700005,None,0,65.17999537500009,65.18324666699982,65.18324666699982,65.68543816700003,65.68543816700003,65.68009879200008,0.0015470000003006135,0.49061233300017193,1.1365282080000725,65.68017941700009,65.68041183300011,65.68042000000014,practice,1,697784,001,2025-03-13_10h30.20.760,simplestop_skeleton,2022.2.2,None,2025-03-13 10h30.25.194669 -0700,
21,21,5,None,None,65.68054358300014,go,circleblack.png,left,0.65,None,0,0.002158875000077387,0.48707170799980304,1.1408302499999081,68.67217287499989,practice,1,0,0,0,0,5,21,21,1,65.68543816700003,,,,,,,,,,,,,,,,,,,65.68054358300014,go,circleblack.png,left,0.65,65.68058941700019,65.68080575000022,65.68295145799993,65.68543816700003,65.68543816700003,66.17190854199998,66.17190854199998,66.18658025000013,66.82552570799999,67.314046125,67.16986779199988,68.16360629200017,68.18376641699979,68.1801784170002,None,0,68.18024112500007,68.18376641699979,68.18376641699979,68.6766640830001,68.6766640830001,68.67185304199984,0.002158875000077387,0.48707170799980304,1.1408302499999081,68.67194937500017,68.67216445800022,68.67217287499989,practice,1,697784,001,2025-03-13_10h30.20.760,simplestop_skeleton,2022.2.2,None,2025-03-13 10h30.25.194669 -0700,
22,22,5,$currentCorrectResponse,$currentGoStim,68.67230116700011,stop,circleblack.png,left,0.65,None,0,0.0016179579997697147,0.4839409999999589,1.136884167000062,71.66376245799984,practice,1,0,0,0,0,5,22,22,0,68.6766640830001,,,,,,,,,,,,,,,,,,,68.67230116700011,stop,circleblack.png,left,0.65,68.67234899999994,68.67258745800018,68.67419358300003,68.6766640830001,68.6766640830001,69.16985583299993,69.16985583299993,69.17500449999989,69.81406216699997,70.30575370799988,70.16662554200002,71.15791466700011,71.17717966700002,71.17179654199981,None,0,71.17355029200007,71.17717966700002,71.17717966700002,71.66857149999987,71.66857149999987,71.66344970799992,0.0016179579997697147,0.4839409999999589,1.136884167000062,71.66354416700005,71.66375441699984,71.66376245799984,practice,1,697784,001,2025-03-13_10h30.20.760,simplestop_skeleton,2022.2.2,None,2025-03-13 10h30.25.194669 -0700,
23,23,5,None,None,71.66388745799986,stop,squareblack.png,right,0.7,None,0,0.00200025000003734,0.4904762500000288,1.184419374999834,74.64724566699988,practice,1,0,0,0,0,5,23,23,2,71.66857149999987,,,,,,,,,,,,,,,,,,,71.66388745799986,stop,squareblack.png,right,0.7,71.66393529200013,71.66413975000023,71.66612762500017,71.66857149999987,71.66857149999987,72.15825170800008,72.15825170800008,72.15825170800008,72.86148670800003,73.34969799999999,73.15812774999995,74.15849416699984,74.15849416699984,74.15515487499988,None,0,74.15521479200015,74.15849416699984,74.15849416699984,,,74.64691870800016,0.00200025000003734,0.4904762500000288,1.184419374999834,74.6470106669999,74.64723716700018,74.64724566699988,practice,1,697784,001,2025-03-13_10h30.20.760,simplestop_skeleton,2022.2.2,None,2025-03-13 10h30.25.194669 -0700,
