thisN,thisTrialN,thisRepN,corrGoResp,shape,StartTrialTimeStamp,trialType,goStim,correctResponse,ssd,goResp.keys,goResp.corr,fixationOnset,goStimOnset,stopSignalOnset,EndTrialTimeStamp,Phase,Block,practiceBlocks.thisRepN,practiceBlocks.thisTrialN,practiceBlocks.thisN,practiceBlocks.thisIndex,practiceTrials.thisRepN,practiceTrials.thisTrialN,practiceTrials.thisN,practiceTrials.thisIndex,thisRow.t,notes,stopPracTrialList,Test Block: 1,start.started,welcome.started,start_exp.started,start.stopped,start_exp.keys,start_exp.rt,start_exp.duration,StimSetup.started,StimSetup.stopped,instructions.started,instrStopText.started,start_prac.started,instructions.stopped,practiceBlockSetup.started,practiceBlockSetup.stopped,practiceTrials.StartTrialTimeStamp,practiceTrials.trialType,practiceTrials.goStim,practiceTrials.correctResponse,practiceTrials.ssd,newPracticeStim.started,newPracticeStim.stopped,trial.started,fixation.started,rules.started,goStim.started,goResp.started,fixation.stopped,stopSignal.started,stopSignal.stopped,goStim.stopped,goResp.stopped,rules.stopped,trial.stopped,practiceTrials.goResp.keys,practiceTrials.goResp.corr,feedback.started,text.started,rules_2.started,feedback.stopped,practiceTrials.fixationOnset,practiceTrials.goStimOnset,practiceTrials.stopSignalOnset,endTrial.started,endTrial.stopped,practiceTrials.EndTrialTimeStamp,practiceTrials.Phase,practiceTrials.Block,text.stopped,rules_2.stopped,participant,session,date,expName,psychopyVersion,frameRate,expStart,
,,,,,,,,,,,,,,,,,,,,,,,,,,,,"[{'fileName': 'squareblack.png', 'correct_response': 'right', 'condition': 'go'}, {'fileName': 'circleblack.png', 'correct_response': 'left', 'condition': 'go'}, {'fileName': 'circleblack.png', 'correct_response': 'left', 'condition': 'go'}, {'fileName': 'squareblack.png', 'correct_response': 'right', 'condition': 'stop'}, {'fileName': 'circleblack.png', 'correct_response': 'left', 'condition': 'stop'}, {'fileName': 'squareblack.png', 'correct_response': 'right', 'condition': 'go'}, {'fileName': 'squareblack.png', 'correct_response': 'right', 'condition': 'go'}, {'fileName': 'circleblack.png', 'correct_response': 'left', 'condition': 'go'}, {'fileName': 'circleblack.png', 'correct_response': 'left', 'condition': 'go'}, {'fileName': 'circleblack.png', 'correct_response': 'left', 'condition': 'stop'}, {'fileName': 'squareblack.png', 'correct_response': 'right', 'condition': 'stop'}, {'fileName': 'squareblack.png', 'correct_response': 'right', 'condition': 'go'}, {'fileName': 'circleblack.png', 'correct_response': 'left', 'condition': 'go'}, {'fileName': 'circleblack.png', 'correct_response': 'left', 'condition': 'go'}, {'fileName': 'squareblack.png', 'correct_response': 'right', 'condition': 'stop'}, {'fileName': 'squareblack.png', 'correct_response': 'right', 'condition': 'go'}, {'fileName': 'circleblack.png', 'correct_response': 'left', 'condition': 'stop'}, {'fileName': 'squareblack.png', 'correct_response': 'right', 'condition': 'go'}, {'fileName': 'squareblack.png', 'correct_response': 'right', 'condition': 'go'}, {'fileName': 'squareblack.png', 'correct_response': 'right', 'condition': 'stop'}, {'fileName': 'circleblack.png', 'correct_response': 'left', 'condition': 'stop'}, {'fileName': 'squareblack.png', 'correct_response': 'right', 'condition': 'go'}, {'fileName': 'circleblack.png', 'correct_response': 'left', 'condition': 'go'}, {'fileName': 'circleblack.png', 'correct_response': 'left', 'condition': 'go'}]","[{'fileName': 'circleblack.png', 'correct_response': 'left', 'condition': 'go'}, {'fileName': 'circleblack.png', 'correct_response': 'left', 'condition': 'go'}, {'fileName': 'squareblack.png', 'correct_response': 'right', 'condition': 'stop'}, {'fileName': 'circleblack.png', 'correct_response': 'left', 'condition': 'stop'}, {'fileName': 'squareblack.png', 'correct_response': 'right', 'condition': 'go'}, {'fileName': 'circleblack.png', 'correct_response': 'left', 'condition': 'go'}, {'fileName': 'squareblack.png', 'correct_response': 'right', 'condition': 'go'}, {'fileName': 'squareblack.png', 'correct_response': 'right', 'condition': 'stop'}, {'fileName': 'squareblack.png', 'correct_response': 'right', 'condition': 'go'}, {'fileName': 'squareblack.png', 'correct_response': 'right', 'condition': 'go'}, {'fileName': 'circleblack.png', 'correct_response': 'left', 'condition': 'stop'}, {'fileName': 'circleblack.png', 'correct_response': 'left', 'condition': 'go'}, {'fileName': 'squareblack.png', 'correct_response': 'right', 'condition': 'go'}, {'fileName': 'squareblack.png', 'correct_response': 'right', 'condition': 'stop'}, {'fileName': 'squareblack.png', 'correct_response': 'right', 'condition': 'stop'}, {'fileName': 'squareblack.png', 'correct_response': 'right', 'condition': 'go'}, {'fileName': 'circleblack.png', 'correct_response': 'left', 'condition': 'go'}, {'fileName': 'circleblack.png', 'correct_response': 'left', 'condition': 'go'}, {'fileName': 'squareblack.png', 'correct_response': 'right', 'condition': 'go'}, {'fileName': 'circleblack.png', 'correct_response': 'left', 'condition': 'go'}, {'fileName': 'circleblack.png', 'correct_response': 'left', 'condition': 'stop'}, {'fileName': 'squareblack.png', 'correct_response': 'right', 'condition': 'go'}, {'fileName': 'circleblack.png', 'correct_response': 'left', 'condition': 'go'}, {'fileName': 'circleblack.png', 'correct_response': 'left', 'condition': 'stop'}, {'fileName': 'squareblack.png', 'correct_response': 'right', 'condition': 'go'}, {'fileName': 'squareblack.png', 'correct_response': 'right', 'condition': 'go'}, {'fileName': 'circleblack.png', 'correct_response': 'left', 'condition': 'stop'}, {'fileName': 'squareblack.png', 'correct_response': 'right', 'condition': 'stop'}, {'fileName': 'circleblack.png', 'correct_response': 'left', 'condition': 'go'}, {'fileName': 'squareblack.png', 'correct_response': 'right', 'condition': 'go'}, {'fileName': 'circleblack.png', 'correct_response': 'left', 'condition': 'go'}, {'fileName': 'circleblack.png', 'correct_response': 'left', 'condition': 'go'}, {'fileName': 'circleblack.png', 'correct_response': 'left', 'condition': 'go'}, {'fileName': 'circleblack.png', 'correct_response': 'left', 'condition': 'stop'}, {'fileName': 'squareblack.png', 'correct_response': 'right', 'condition': 'go'}, {'fileName': 'squareblack.png', 'correct_response': 'right', 'condition': 'stop'}, {'fileName': 'squareblack.png', 'correct_response': 'right', 'condition': 'stop'}, {'fileName': 'circleblack.png', 'correct_response': 'left', 'condition': 'go'}, {'fileName': 'squareblack.png', 'correct_response': 'right', 'condition': 'go'}, {'fileName': 'squareblack.png', 'correct_response': 'right', 'condition': 'go'}, {'fileName': 'circleblack.png', 'correct_response': 'left', 'condition': 'go'}, {'fileName': 'circleblack.png', 'correct_response': 'left', 'condition': 'stop'}, {'fileName': 'squareblack.png', 'correct_response': 'right', 'condition': 'go'}, {'fileName': 'squareblack.png', 'correct_response': 'right', 'condition': 'go'}, {'fileName': 'squareblack.png', 'correct_response': 'right', 'condition': 'stop'}, {'fileName': 'circleblack.png', 'correct_response': 'left', 'condition': 'stop'}, {'fileName': 'circleblack.png', 'correct_response': 'left', 'condition': 'go'}, {'fileName': 'circleblack.png', 'correct_response': 'left', 'condition': 'go'}]",0.008714874999895983,0.014033667000148853,0.014033667000148853,1.367843209000057,return,1.3483031250002568,None,,,,,,,,,,,,,,,,,,,,,,,,,,,,,,,,,,,,,,,,,,,,800886,001,2025-03-13_10h25.49.396,simplestop_skeleton,2024.2.4,None,2025-03-13 10h25.54.011469 -0700,
,,,,,,,,,,,,,,,,,,,,,,,,,,,,,,,,,,,,,1.3678871669999353,1.368113834000269,,,,,,,,,,,,,,,,,,,,,,,,,,,,,,,,,,,,,,,,,,800886,001,2025-03-13_10h25.49.396,simplestop_skeleton,2024.2.4,None,2025-03-13 10h25.54.011469 -0700,
,,,,,,,,,,,,,,,,,,,,,,,,,,,,,,,,,,,,,,,1.3681292500000382,1.3727015419999589,1.3727015419999589,2.149007250000068,,,,,,,,,,,,,,,,,,,,,,,,,,,,,,,,,,,,,,800886,001,2025-03-13_10h25.49.396,simplestop_skeleton,2024.2.4,None,2025-03-13 10h25.54.011469 -0700,
0,0,0,None,None,2.1569594590000634,go,squareblack.png,right,0.35,None,0,0.0027048329998251575,0.4877304159999767,0.8375816660000055,5.170746834000056,practice,1,0,0,0,0,0,0,0,1,2.1663572500001465,,,,,,,,,,,,,,,,,2.1495257920000768,2.149876709000182,2.1569594590000634,go,squareblack.png,right,0.35,2.1570163750002393,2.1574977089999265,2.160189583999909,2.1663572500001465,2.1663572500001465,2.6502439999999297,2.6502439999999297,2.6553791670003193,2.999012292000316,3.510490459000266,3.65197845900002,4.648078167000222,4.673545209000167,4.662198167000042,None,0,4.669558417000189,4.673545209000167,4.673545209000167,5.1703156250000575,0.0027048329998251575,0.4877304159999767,0.8375816660000055,5.170421167000313,5.170735583999885,5.170746834000056,practice,1,,,800886,001,2025-03-13_10h25.49.396,simplestop_skeleton,2024.2.4,None,2025-03-13 10h25.54.011469 -0700,
1,1,1,None,None,5.170889709000221,go,circleblack.png,left,0.35,None,0,0.002214459000242641,0.4873715420003464,0.8345517920001839,8.16247204199999,practice,1,0,0,0,0,1,1,1,1,5.175851334000072,,,,,,,,,,,,,,,,,,,5.170889709000221,go,circleblack.png,left,0.35,5.17094249999991,5.171133374999954,5.173331792000226,5.175851334000072,5.175851334000072,5.662456584000211,5.662456584000211,5.67697225000029,6.018245708999984,6.515240000000176,6.654263459000049,7.660367709000184,7.665931625000212,7.662403333999919,None,0,7.662464167000053,7.665931625000212,7.665931625000212,8.162182459000178,0.002214459000242641,0.4873715420003464,0.8345517920001839,8.162251917000049,8.162462333999883,8.16247204199999,practice,1,8.166906875000222,8.166906875000222,800886,001,2025-03-13_10h25.49.396,simplestop_skeleton,2024.2.4,None,2025-03-13 10h25.54.011469 -0700,
2,2,0,None,None,8.162599209000291,go,circleblack.png,left,0.35,None,0,0.001617833000182145,0.49071195800024725,0.8405734580001081,11.145685041999968,practice,1,0,0,0,0,0,2,2,3,8.166906875000222,,,,,,,,,,,,,,,,,,,8.162599209000291,go,circleblack.png,left,0.35,8.162647500000276,8.162867875000302,8.164472334000038,8.166906875000222,8.166906875000222,8.657220584000243,8.657220584000243,8.657220584000243,9.007138667000163,9.49560058399993,9.648218709000048,10.652028334000079,10.657406249999894,10.6539361250002,None,0,10.65399083400007,10.657406249999894,10.657406249999894,11.145408667000083,0.001617833000182145,0.49071195800024725,0.8405734580001081,11.145474917000229,11.145675499999925,11.145685041999968,practice,1,11.150557875000231,11.150557875000231,800886,001,2025-03-13_10h25.49.396,simplestop_skeleton,2024.2.4,None,2025-03-13 10h25.54.011469 -0700,
3,3,0,None,None,11.145807500000046,stop,squareblack.png,right,0.35,None,0,0.0019326249998812273,0.4869792919998872,0.8372847499999807,14.137720833999992,practice,1,0,0,0,0,0,3,3,2,11.150557875000231,,,,,,,,,,,,,,,,,,,11.145807500000046,stop,squareblack.png,right,0.35,11.145856999999978,11.146107792000294,11.148026166999898,11.150557875000231,11.150557875000231,11.637812334000046,11.637812334000046,11.651993417000085,11.98749399999997,12.479135958999905,12.631646792000083,13.635333209000237,13.643109584000285,13.637137042000177,None,0,13.640106291999928,13.643109584000285,13.643109584000285,14.137361916999907,0.0019326249998812273,0.4869792919998872,0.8372847499999807,14.137456834000204,14.137710834000245,14.137720833999992,practice,1,14.142715667000175,14.142715667000175,800886,001,2025-03-13_10h25.49.396,simplestop_skeleton,2024.2.4,None,2025-03-13 10h25.54.011469 -0700,
4,4,0,$currentCorrectResponse,$currentGoStim,14.137852792000103,stop,circleblack.png,left,0.4,None,0,0.0022092499998507265,0.49043624999967506,0.8904924169996775,17.137404792000325,practice,1,0,0,0,0,0,4,4,0,14.142715667000175,,,,,,,,,,,,,,,,,,,14.137852792000103,stop,circleblack.png,left,0.4,14.137903542000004,14.138121167000008,14.140316750000238,14.142715667000175,14.142715667000175,14.632138834000216,14.632138834000216,14.632138834000216,15.032214000000295,15.523256834000222,15.62164570899995,16.623041667000052,16.64076683400026,16.63730858400004,None,0,16.637379250000322,16.64076683400026,16.64076683400026,17.13713854200023,0.0022092499998507265,0.49043624999967506,0.8904924169996775,17.137211666999974,17.137394875000155,17.137404792000325,practice,1,17.142331834000288,17.142331834000288,800886,001,2025-03-13_10h25.49.396,simplestop_skeleton,2024.2.4,None,2025-03-13 10h25.54.011469 -0700,
5,5,1,$currentCorrectResponse,$currentGoStim,17.137537042000076,go,squareblack.png,right,0.45,None,0,0.0020411249997778214,0.4852381669998067,0.9350752499999544,20.12277162500004,practice,1,0,0,0,0,1,5,5,0,17.142331834000288,,,,,,,,,,,,,,,,,,,17.137537042000076,go,squareblack.png,right,0.45,17.137587791999977,17.13782108400028,17.139848709000034,17.142331834000288,17.142331834000288,17.63533550000011,17.63533550000011,17.640846250000322,18.085393208999903,18.585360084000058,18.62324029199999,19.6340163750001,19.6340163750001,19.62883416700015,None,0,19.630564958999912,19.6340163750001,19.6340163750001,20.122463125000195,0.0020411249997778214,0.4852381669998067,0.9350752499999544,20.122516917000212,20.122761667000304,20.12277162500004,practice,1,20.13544150000007,20.13544150000007,800886,001,2025-03-13_10h25.49.396,simplestop_skeleton,2024.2.4,None,2025-03-13 10h25.54.011469 -0700,
6,6,1,None,None,20.122886708999886,go,squareblack.png,right,0.45,None,0,0.0014365410002028511,0.4886597909999182,0.9469662500000595,23.129355709000265,practice,1,0,0,0,0,1,6,6,2,20.13544150000007,,,,,,,,,,,,,,,,,,,20.122886708999886,go,squareblack.png,right,0.45,20.122932209000282,20.123175875000015,20.12460137500011,20.13544150000007,20.13544150000007,20.615211458999966,20.615211458999966,20.6353787500002,21.07380404200012,21.565230666999923,21.614897750000182,22.614769209000315,22.632314709000184,22.629028625000046,None,0,22.629075374999957,22.632314709000184,22.632314709000184,23.12904495900011,0.0014365410002028511,0.4886597909999182,0.9469662500000595,23.12913137500027,23.129345959000148,23.129355709000265,practice,1,23.13430016700022,23.13430016700022,800886,001,2025-03-13_10h25.49.396,simplestop_skeleton,2024.2.4,None,2025-03-13 10h25.54.011469 -0700,
7,7,2,None,None,23.129482167000333,go,circleblack.png,left,0.45,None,0,0.0020732500001940934,0.48487075000002733,0.9366944580001473,26.112599375000173,practice,1,0,0,0,0,2,7,7,2,23.13430016700022,,,,,,,,,,,,,,,,,,,23.129482167000333,go,circleblack.png,left,0.45,23.12953225000001,23.12977733400021,23.131837959000222,23.13430016700022,23.13430016700022,23.627069292000215,23.627069292000215,23.632148250000228,24.070975209000153,24.568709084000147,24.61542687500014,25.62390008400007,25.62390008400007,25.620521917000133,None,0,25.620581167000182,25.62390008400007,25.62390008400007,26.112321584000256,0.0020732500001940934,0.48487075000002733,0.9366944580001473,26.11239329199998,26.11258904200031,26.112599375000173,practice,1,26.117125042000225,26.117125042000225,800886,001,2025-03-13_10h25.49.396,simplestop_skeleton,2024.2.4,None,2025-03-13 10h25.54.011469 -0700,
8,8,2,$currentCorrectResponse,$currentGoStim,26.112733083999956,go,circleblack.png,left,0.45,None,0,0.001627082999675622,0.48667604199999914,0.9406507919998148,29.10429083400004,practice,1,0,0,0,0,2,8,8,0,26.117125042000225,,,,,,,,,,,,,,,,,,,26.112733083999956,go,circleblack.png,left,0.45,26.11278279199996,26.11297874999991,26.114592834000177,26.117125042000225,26.117125042000225,26.604810917000123,26.604810917000123,26.6187521249999,27.057363875000192,27.54588104200002,27.60218974999998,28.598521625000103,28.615577916999882,28.61238187500021,None,0,28.61243179200028,28.615577916999882,28.615577916999882,29.103972625000097,0.001627082999675622,0.48667604199999914,0.9406507919998148,29.104054459000054,29.1042809999999,29.10429083400004,practice,1,29.108831834000284,29.108831834000284,800886,001,2025-03-13_10h25.49.396,simplestop_skeleton,2024.2.4,None,2025-03-13 10h25.54.011469 -0700,
9,9,1,None,None,29.10442354199995,stop,circleblack.png,left,0.45,None,0,0.0016561669999646256,0.4905384580001737,0.9406217920000017,32.1045720420002,practice,1,0,0,0,0,1,9,9,3,29.108831834000284,,,,,,,,,,,,,,,,,,,29.10442354199995,stop,circleblack.png,left,0.45,29.104474250000294,29.104696875000172,29.106338792000315,29.108831834000284,29.108831834000284,29.598744334000003,29.598744334000003,29.598744334000003,30.049035999999887,30.53755529199998,30.5876279590002,31.58997774999989,31.609100459000274,31.604035042000305,None,0,31.60554987500018,31.609100459000274,31.609100459000274,32.10414958399997,0.0016561669999646256,0.4905384580001737,0.9406217920000017,32.10433345899992,32.10455991700019,32.1045720420002,practice,1,32.10935154200024,32.10935154200024,800886,001,2025-03-13_10h25.49.396,simplestop_skeleton,2024.2.4,None,2025-03-13 10h25.54.011469 -0700,
10,10,3,None,None,32.104699750000236,stop,squareblack.png,right,0.5,None,0,0.002004500000111875,0.4903145829998721,0.9840956660000302,35.08424695900021,practice,1,0,0,0,0,3,10,10,2,32.10935154200024,,,,,,,,,,,,,,,,,,,32.104699750000236,stop,squareblack.png,right,0.5,32.104749084000105,32.10497595900006,32.106967624999925,32.10935154200024,32.10935154200024,32.598955166999986,32.598955166999986,32.598955166999986,33.102270124999905,33.59046162499999,33.59046162499999,34.5991952090003,34.5991952090003,34.59582829200008,None,0,34.595884667000064,34.5991952090003,34.5991952090003,35.08391800000027,0.002004500000111875,0.4903145829998721,0.9840956660000302,35.08400000000029,35.08423770900026,35.08424695900021,practice,1,35.088344959000096,35.088344959000096,800886,001,2025-03-13_10h25.49.396,simplestop_skeleton,2024.2.4,None,2025-03-13 10h25.54.011469 -0700,
11,11,3,$currentCorrectResponse,$currentGoStim,35.0843728750001,go,squareblack.png,right,0.55,None,0,0.0014652499999101565,0.4876217500000166,1.0439336670001467,38.07901687499998,practice,1,0,0,0,0,3,11,11,0,35.088344959000096,,,,,,,,,,,,,,,,,,,35.0843728750001,go,squareblack.png,right,0.55,35.0844202090002,35.084665249999944,35.08610479200024,35.088344959000096,35.088344959000096,35.58551279199992,35.58551279199992,35.58551279199992,36.13204945899997,36.62398616700011,36.573899084000004,37.585502041999916,37.585502041999916,37.57247491699991,None,0,37.57411687500007,37.585502041999916,37.585502041999916,38.078584500000034,0.0014652499999101565,0.4876217500000166,1.0439336670001467,38.078651000000264,38.079007834000095,38.07901687499998,practice,1,,,800886,001,2025-03-13_10h25.49.396,simplestop_skeleton,2024.2.4,None,2025-03-13 10h25.54.011469 -0700,
12,12,2,None,None,38.079145042000164,go,circleblack.png,left,0.55,None,0,0.0021492920000127924,0.48444016700022985,1.0408517089999805,41.079344624999976,practice,1,0,0,0,0,2,12,12,3,38.0840217089999,,,,,,,,,,,,,,,,,,,38.079145042000164,go,circleblack.png,left,0.55,38.07919149999998,38.07942229199989,38.081558374999986,38.0840217089999,38.0840217089999,38.577204833999986,38.577204833999986,38.582554625000284,39.123938834,39.62382729199999,39.574039542000264,40.57720558400024,40.582352291999996,40.57902954200017,None,0,40.57908354200026,40.582352291999996,40.582352291999996,41.07902679200015,0.0021492920000127924,0.48444016700022985,1.0408517089999805,41.079093042000295,41.079335291999996,41.079344624999976,practice,1,41.0837028750002,41.0837028750002,800886,001,2025-03-13_10h25.49.396,simplestop_skeleton,2024.2.4,None,2025-03-13 10h25.54.011469 -0700,
13,13,3,None,None,41.07946791700033,go,circleblack.png,left,0.55,None,0,0.0015596660000483098,0.4841553749997729,1.0405290829999103,44.07940633399994,practice,1,0,0,0,0,3,13,13,3,41.0837028750002,,,,,,,,,,,,,,,,,,,41.07946791700033,go,circleblack.png,left,0.55,41.07951329200023,41.079743834000055,41.08129041700022,41.0837028750002,41.0837028750002,41.577319875000285,41.577319875000285,41.58265987499999,42.124005833999945,42.612547666999944,42.57720462499992,43.57727174999991,43.58261845900006,43.579151208999974,None,0,43.57920408400014,43.58261845900006,43.58261845900006,44.0791206670001,0.0015596660000483098,0.4841553749997729,1.0405290829999103,44.07919358400022,44.07939687499993,44.07940633399994,practice,1,44.084207333999984,44.084207333999984,800886,001,2025-03-13_10h25.49.396,simplestop_skeleton,2024.2.4,None,2025-03-13 10h25.54.011469 -0700,
14,14,4,$currentCorrectResponse,$currentGoStim,44.0795284589999,stop,squareblack.png,right,0.55,None,0,0.0019805840001936303,0.49065504200007126,1.037162250000165,47.07111162499996,practice,1,0,0,0,0,4,14,14,0,44.084207333999984,,,,,,,,,,,,,,,,,,,44.0795284589999,stop,squareblack.png,right,0.55,44.079575750000004,44.07976333400029,44.08173054200006,44.084207333999984,44.084207333999984,44.57409945900008,44.57409945900008,44.57409945900008,45.121181084,45.618955500000084,45.573953042000085,46.5758626249999,46.5758626249999,46.57077045899996,None,0,46.572304667000026,46.5758626249999,46.5758626249999,47.07078579200015,0.0019805840001936303,0.49065504200007126,1.037162250000165,47.070883917000174,47.071102124999925,47.07111162499996,practice,1,47.07544454200024,47.07544454200024,800886,001,2025-03-13_10h25.49.396,simplestop_skeleton,2024.2.4,None,2025-03-13 10h25.54.011469 -0700,
15,15,4,None,None,47.07124308399989,go,squareblack.png,right,0.6,None,0,0.0015625410001121054,0.49057120799989207,1.0904883329999393,50.06285654200019,practice,1,0,0,0,0,4,15,15,3,47.07544454200024,,,,,,,,,,,,,,,,,,,47.07124308399989,go,squareblack.png,right,0.6,47.07129108400022,47.071498667000014,47.07304766700008,47.07544454200024,47.07544454200024,47.565706667000086,47.565706667000086,47.565706667000086,48.16540054200004,48.65419900000006,48.55428358400013,49.556737083999906,49.57611229200029,49.57081275000019,None,0,49.57266091700012,49.57611229200029,49.57611229200029,50.062577459000295,0.0015625410001121054,0.49057120799989207,1.0904883329999393,50.06265133400029,50.062847375000274,50.06285654200019,practice,1,50.067784458999995,50.067784458999995,800886,001,2025-03-13_10h25.49.396,simplestop_skeleton,2024.2.4,None,2025-03-13 10h25.54.011469 -0700,
16,16,4,None,None,50.06298270900015,stop,circleblack.png,left,0.6,None,0,0.002121125000030588,0.48704462500018053,1.0865567499999997,53.05439654200018,practice,1,0,0,0,0,4,16,16,2,50.067784458999995,,,,,,,,,,,,,,,,,,,50.06298270900015,stop,circleblack.png,left,0.6,50.06302912499996,50.06323266700019,50.06534250000004,50.067784458999995,50.067784458999995,50.554315333999966,50.554315333999966,50.56892208399995,51.154740459000095,51.6459678340002,51.54629625000007,52.5460236670001,52.5675249169999,52.56249316699996,None,0,52.56407008399992,52.5675249169999,52.5675249169999,53.05409499999996,0.002121125000030588,0.48704462500018053,1.0865567499999997,53.05417875000012,53.05438725000022,53.05439654200018,practice,1,53.05902962500022,53.05902962500022,800886,001,2025-03-13_10h25.49.396,simplestop_skeleton,2024.2.4,None,2025-03-13 10h25.54.011469 -0700,
17,17,2,None,None,53.054516917,go,squareblack.png,right,0.65,None,0,0.0018828329998541449,0.4842983749999803,1.1406831250001233,56.04822045900028,practice,1,0,0,0,0,2,17,17,1,53.05902962500022,,,,,,,,,,,,,,,,,,,53.054516917,go,squareblack.png,right,0.65,53.05456054200022,53.0547624589999,53.056632416999946,53.05902962500022,53.05902962500022,53.55220025000017,53.55220025000017,53.557533666999916,54.199041459,54.690588667000156,54.54057629199997,55.552201375000095,55.559744708999915,55.554242583999894,None,0,55.55615454200006,55.559744708999915,55.559744708999915,56.0478982919999,0.0018828329998541449,0.4842983749999803,1.1406831250001233,56.04797966700016,56.048211000000265,56.04822045900028,practice,1,56.05379045900008,56.05379045900008,800886,001,2025-03-13_10h25.49.396,simplestop_skeleton,2024.2.4,None,2025-03-13 10h25.54.011469 -0700,
18,18,3,None,None,56.04835450000019,go,squareblack.png,right,0.65,None,0,0.0015564999998787243,0.48849141599976065,1.138480540999808,59.034139959000186,practice,1,0,0,0,0,3,18,18,1,56.05379045900008,,,,,,,,,,,,,,,,,,,56.04835450000019,go,squareblack.png,right,0.65,56.04840145900016,56.04863741700001,56.0501804999999,56.05379045900008,56.05379045900008,56.54099695900004,56.54099695900004,56.546360625000034,57.190781416999926,57.67951025000002,57.529385291999915,58.540319167000234,58.546224749999965,58.54210058400031,None,0,58.54215550000026,58.546224749999965,58.546224749999965,59.03382254200005,0.0015564999998787243,0.48849141599976065,1.138480540999808,59.03391645900001,59.03412937500025,59.034139959000186,practice,1,59.038820834000035,59.038820834000035,800886,001,2025-03-13_10h25.49.396,simplestop_skeleton,2024.2.4,None,2025-03-13 10h25.54.011469 -0700,
19,19,4,None,None,59.03427629199996,stop,squareblack.png,right,0.65,None,0,0.0016283330000987917,0.4859434580002926,1.1359502079999402,62.02309620899996,practice,1,0,0,0,0,4,19,19,1,59.038820834000035,,,,,,,,,,,,,,,,,,,59.03427629199996,stop,squareblack.png,right,0.65,59.03432758400004,59.03454499999998,59.036157125000045,59.038820834000035,59.038820834000035,59.52425870900015,59.52425870900015,59.53015154200011,60.17419354200001,60.66276304200028,60.51301304200024,61.512664416999996,61.53444475000015,61.529222708999896,None,0,61.530894875000286,61.53444475000015,61.53444475000015,62.02278945900025,0.0016283330000987917,0.4859434580002926,1.1359502079999402,62.02287079200005,62.023087750000286,62.02309620899996,practice,1,62.02890404200025,62.02890404200025,800886,001,2025-03-13_10h25.49.396,simplestop_skeleton,2024.2.4,None,2025-03-13 10h25.54.011469 -0700,
20,20,5,$currentCorrectResponse,$currentGoStim,62.02321162499993,stop,circleblack.png,left,0.7,None,0,0.0020252920003258623,0.49290925000013885,1.192833999999948,65.02535029199998,practice,1,0,0,0,0,5,20,20,0,62.02890404200025,,,,,,,,,,,,,,,,,,,62.02321162499993,stop,circleblack.png,left,0.7,62.02325629200004,62.023458417000256,62.02547162500014,62.02890404200025,62.02890404200025,62.52007437500015,62.52007437500015,62.52007437500015,63.21983487500029,63.70876750000025,63.508730125000056,64.51092700000027,64.5286097090002,64.52518429200018,None,0,64.5252472090001,64.5286097090002,64.5286097090002,65.02499783400026,0.0020252920003258623,0.49290925000013885,1.192833999999948,65.02508758400018,65.02533991700011,65.02535029199998,practice,1,65.03025750000006,65.03025750000006,800886,001,2025-03-13_10h25.49.396,simplestop_skeleton,2024.2.4,None,2025-03-13 10h25.54.011469 -0700,
21,21,5,None,None,65.02548087500008,go,squareblack.png,right,0.75,None,0,0.0020971669996470155,0.48419237500002055,1.2347454999999172,68.01105000000007,practice,1,0,0,0,0,5,21,21,1,65.03025750000006,,,,,,,,,,,,,,,,,,,65.02548087500008,go,squareblack.png,right,0.75,65.02552850000029,65.02577500000007,65.0278577920003,65.03025750000006,65.03025750000006,65.52321550000033,65.52321550000033,65.52856054199992,66.27323541700025,66.76164770900004,66.51999883400003,67.5220491670002,67.5220491670002,67.51684162500032,None,0,67.51864137500024,67.5220491670002,67.5220491670002,68.01067887499994,0.0020971669996470155,0.48419237500002055,1.2347454999999172,68.01076570900022,68.01104066700009,68.01105000000007,practice,1,68.0167566250002,68.0167566250002,800886,001,2025-03-13_10h25.49.396,simplestop_skeleton,2024.2.4,None,2025-03-13 10h25.54.011469 -0700,
22,22,5,None,None,68.01117254200017,go,circleblack.png,left,0.75,None,0,0.002105707999817241,0.48826370799997676,1.2344075830001202,70.99729829200032,practice,1,0,0,0,0,5,22,22,3,68.0167566250002,,,,,,,,,,,,,,,,,,,68.01117254200017,go,circleblack.png,left,0.75,68.01121975000024,68.01152958400007,68.013622167,68.0167566250002,68.0167566250002,68.50361362500007,68.50361362500007,68.50914250000005,69.25087916700022,69.74820262499998,69.5030713340002,70.50275741699988,70.50915404200032,70.50453066699993,None,0,70.504580584,70.50915404200032,70.50915404200032,70.99699920900002,0.002105707999817241,0.48826370799997676,1.2344075830001202,70.99708445900023,70.99728862500024,70.99729829200032,practice,1,71.00154950000024,71.00154950000024,800886,001,2025-03-13_10h25.49.396,simplestop_skeleton,2024.2.4,None,2025-03-13 10h25.54.011469 -0700,
23,23,5,None,None,70.99743625000019,go,circleblack.png,left,0.75,None,0,0.0017869589996735158,0.4853066669998043,1.237678749999759,73.97998733400027,practice,1,0,0,0,0,5,23,23,2,71.00154950000024,,,,,,,,,,,,,,,,,,,70.99743625000019,go,circleblack.png,left,0.75,70.99748875000023,70.99770416699994,70.99947258400016,71.00154950000024,71.00154950000024,71.48682129200006,71.48682129200006,71.49228350000021,72.24818400000004,72.74481508400004,72.47538170899998,73.47570587500013,73.49506641700009,73.49173833400027,None,0,73.49178658400024,73.49506641700009,73.49506641700009,73.97965387500017,0.0017869589996735158,0.4853066669998043,1.237678749999759,73.97972387500022,73.97997779200023,73.97998733400027,practice,1,,,800886,001,2025-03-13_10h25.49.396,simplestop_skeleton,2024.2.4,None,2025-03-13 10h25.54.011469 -0700,
