corrGoResp,shape,practiceBlocks.thisRepN,practiceBlocks.thisTrialN,practiceBlocks.thisN,practiceBlocks.thisIndex,practiceTrials.thisRepN,practiceTrials.thisTrialN,practiceTrials.thisN,practiceTrials.thisIndex,stopBlocks.thisRepN,stopBlocks.thisTrialN,stopBlocks.thisN,stopBlocks.thisIndex,testTrials.thisRepN,testTrials.thisTrialN,testTrials.thisN,testTrials.thisIndex,stopPracTrialList,Test Block: 1,welcome.started,start_exp.started,start_exp.keys,start_exp.rt,instrStopText.started,start_prac.started,StartTrialTimeStamp,trialType,goStim,correctResponse,ssd,fixation.started,rules.started,goStim.started,goResp.started,fixation.stopped,stopSignal.started,stopSignal.stopped,goStim.stopped,goResp.stopped,rules.stopped,goResp.keys,goResp.corr,text.started,rules_2.started,fixationOnset,goStimOnset,stopSignalOnset,EndTrialTimeStamp,Phase,Block,text.stopped,rules_2.stopped,goResp.rt,text_5.started,key_resp_3.started,key_resp_3.keys,key_resp_3.rt,key_resp.started,testText.started,test_fixation.started,test_fixation.stopped,goStim_test.started,goResp_test.started,stopSignal_test.started,stopSignal_test.stopped,goStim_test.stopped,goResp_test.stopped,goResp_test.keys,goResp_test.corr,goResp_test.rt,EndingSSD,text_6.started,key_resp_4.started,key_resp_4.keys,key_resp_4.rt,Test Block: 2,Test Block: 3,ending_text.started,end_resp.started,end_resp.keys,end_resp.rt,participant,session,date,expName,psychopyVersion,frameRate,
,,,,,,,,,,,,,,,,,,"[{'fileName': 'circleblack.png', 'correct_response': 'left', 'condition': 'go'}, {'fileName': 'squareblack.png', 'correct_response': 'right', 'condition': 'go'}, {'fileName': 'squareblack.png', 'correct_response': 'right', 'condition': 'go'}, {'fileName': 'circleblack.png', 'correct_response': 'left', 'condition': 'go'}, {'fileName': 'squareblack.png', 'correct_response': 'right', 'condition': 'stop'}, {'fileName': 'circleblack.png', 'correct_response': 'left', 'condition': 'stop'}, {'fileName': 'squareblack.png', 'correct_response': 'right', 'condition': 'go'}, {'fileName': 'circleblack.png', 'correct_response': 'left', 'condition': 'stop'}, {'fileName': 'circleblack.png', 'correct_response': 'left', 'condition': 'go'}, {'fileName': 'circleblack.png', 'correct_response': 'left', 'condition': 'go'}, {'fileName': 'squareblack.png', 'correct_response': 'right', 'condition': 'stop'}, {'fileName': 'squareblack.png', 'correct_response': 'right', 'condition': 'go'}, {'fileName': 'circleblack.png', 'correct_response': 'left', 'condition': 'stop'}, {'fileName': 'squareblack.png', 'correct_response': 'right', 'condition': 'go'}, {'fileName': 'circleblack.png', 'correct_response': 'left', 'condition': 'go'}, {'fileName': 'squareblack.png', 'correct_response': 'right', 'condition': 'go'}, {'fileName': 'squareblack.png', 'correct_response': 'right', 'condition': 'stop'}, {'fileName': 'circleblack.png', 'correct_response': 'left', 'condition': 'go'}, {'fileName': 'squareblack.png', 'correct_response': 'right', 'condition': 'go'}, {'fileName': 'squareblack.png', 'correct_response': 'right', 'condition': 'stop'}, {'fileName': 'circleblack.png', 'correct_response': 'left', 'condition': 'go'}, {'fileName': 'squareblack.png', 'correct_response': 'right', 'condition': 'go'}, {'fileName': 'circleblack.png', 'correct_response': 'left', 'condition': 'stop'}, {'fileName': 'circleblack.png', 'correct_response': 'left', 'condition': 'go'}]","[{'fileName': 'squareblack.png', 'correct_response': 'right', 'condition': 'go'}, {'fileName': 'squareblack.png', 'correct_response': 'right', 'condition': 'stop'}, {'fileName': 'circleblack.png', 'correct_response': 'left', 'condition': 'go'}, {'fileName': 'squareblack.png', 'correct_response': 'right', 'condition': 'go'}, {'fileName': 'circleblack.png', 'correct_response': 'left', 'condition': 'stop'}, {'fileName': 'circleblack.png', 'correct_response': 'left', 'condition': 'go'}, {'fileName': 'squareblack.png', 'correct_response': 'right', 'condition': 'go'}, {'fileName': 'circleblack.png', 'correct_response': 'left', 'condition': 'stop'}, {'fileName': 'circleblack.png', 'correct_response': 'left', 'condition': 'go'}, {'fileName': 'squareblack.png', 'correct_response': 'right', 'condition': 'stop'}, {'fileName': 'squareblack.png', 'correct_response': 'right', 'condition': 'go'}, {'fileName': 'circleblack.png', 'correct_response': 'left', 'condition': 'go'}, {'fileName': 'squareblack.png', 'correct_response': 'right', 'condition': 'stop'}, {'fileName': 'circleblack.png', 'correct_response': 'left', 'condition': 'stop'}, {'fileName': 'circleblack.png', 'correct_response': 'left', 'condition': 'go'}, {'fileName': 'squareblack.png', 'correct_response': 'right', 'condition': 'go'}, {'fileName': 'circleblack.png', 'correct_response': 'left', 'condition': 'go'}, {'fileName': 'squareblack.png', 'correct_response': 'right', 'condition': 'go'}, {'fileName': 'circleblack.png', 'correct_response': 'left', 'condition': 'go'}, {'fileName': 'squareblack.png', 'correct_response': 'right', 'condition': 'go'}, {'fileName': 'circleblack.png', 'correct_response': 'left', 'condition': 'stop'}, {'fileName': 'squareblack.png', 'correct_response': 'right', 'condition': 'stop'}, {'fileName': 'squareblack.png', 'correct_response': 'right', 'condition': 'go'}, {'fileName': 'circleblack.png', 'correct_response': 'left', 'condition': 'go'}, {'fileName': 'circleblack.png', 'correct_response': 'left', 'condition': 'go'}, {'fileName': 'circleblack.png', 'correct_response': 'left', 'condition': 'stop'}, {'fileName': 'circleblack.png', 'correct_response': 'left', 'condition': 'stop'}, {'fileName': 'circleblack.png', 'correct_response': 'left', 'condition': 'go'}, {'fileName': 'circleblack.png', 'correct_response': 'left', 'condition': 'go'}, {'fileName': 'circleblack.png', 'correct_response': 'left', 'condition': 'go'}, {'fileName': 'squareblack.png', 'correct_response': 'right', 'condition': 'go'}, {'fileName': 'squareblack.png', 'correct_response': 'right', 'condition': 'stop'}, {'fileName': 'squareblack.png', 'correct_response': 'right', 'condition': 'go'}, {'fileName': 'squareblack.png', 'correct_response': 'right', 'condition': 'stop'}, {'fileName': 'squareblack.png', 'correct_response': 'right', 'condition': 'go'}, {'fileName': 'squareblack.png', 'correct_response': 'right', 'condition': 'go'}, {'fileName': 'circleblack.png', 'correct_response': 'left', 'condition': 'go'}, {'fileName': 'circleblack.png', 'correct_response': 'left', 'condition': 'go'}, {'fileName': 'squareblack.png', 'correct_response': 'right', 'condition': 'stop'}, {'fileName': 'squareblack.png', 'correct_response': 'right', 'condition': 'go'}, {'fileName': 'circleblack.png', 'correct_response': 'left', 'condition': 'go'}, {'fileName': 'circleblack.png', 'correct_response': 'left', 'condition': 'go'}, {'fileName': 'squareblack.png', 'correct_response': 'right', 'condition': 'go'}, {'fileName': 'circleblack.png', 'correct_response': 'left', 'condition': 'stop'}, {'fileName': 'squareblack.png', 'correct_response': 'right', 'condition': 'go'}, {'fileName': 'squareblack.png', 'correct_response': 'right', 'condition': 'stop'}, {'fileName': 'circleblack.png', 'correct_response': 'left', 'condition': 'stop'}, {'fileName': 'squareblack.png', 'correct_response': 'right', 'condition': 'go'}]",15882.299813069403,15882.299813069403,return,14.60895973443985,,,,,,,,,,,,,,,,,,,,,,,,,,,,,,,,,,,,,,,,,,,,,,,,,,,,,,,,,,,s029,001,2024-08-15_15h14.00.772,simplestop_skeleton,2022.2.2,60.02882971140144,
None,None,0,0,0,0,0,0,0,1,,,,,,,,,,,,,,,15896.9268656075,15896.9268656075,15936.515885964036,go,circleblack.png,left,0.35,15936.538156934083,15936.538156934083,15937.030840732157,15937.030840732157,15937.047561787069,15937.381588682532,15937.881816342473,15938.031974509358,15939.03299947083,15939.052182719111,None,0,15939.052182719111,15939.052182719111,0.0031704530119895935,0.48875220119953156,0.8387984111905098,15939.55134576559,practice,1,,,,,,,,,,,,,,,,,,,,,,,,,,,,,,,,s029,001,2024-08-15_15h14.00.772,simplestop_skeleton,2022.2.2,60.02882971140144,
None,None,0,0,0,0,0,1,1,3,,,,,,,,,,,,,,,,,15939.551881492138,go,squareblack.png,right,0.35,15939.576124608517,15939.576124608517,15940.067689917982,15940.067689917982,15940.084531486034,15940.418012194335,15940.918552689254,15941.068556547165,15942.069867953658,15942.086536765099,None,0,15942.086536765099,15942.086536765099,0.007279723882675171,0.49001870304346085,0.8403051942586899,15942.57134630531,practice,1,,,,,,,,,,,,,,,,,,,,,,,,,,,,,,,,s029,001,2024-08-15_15h14.00.772,simplestop_skeleton,2022.2.2,60.02882971140144,
None,None,0,0,0,0,0,2,2,1,,,,,,,,,,,,,,,,,15942.571767121553,go,squareblack.png,right,0.35,15942.590722464025,15942.590722464025,15943.087827421725,15943.087827421725,15943.10421937704,15943.438383795321,15943.938492543995,15944.08893918246,15945.089972421527,15945.089972421527,None,0,15945.089972421527,15945.089972421527,0.0012462735176086426,0.4900321513414383,0.8405886590480804,15945.574535548687,practice,1,15945.594383053482,15945.594383053482,,,,,,,,,,,,,,,,,,,,,,,,,,,,,,s029,001,2024-08-15_15h14.00.772,simplestop_skeleton,2022.2.2,60.02882971140144,
None,None,0,0,0,0,0,3,3,3,,,,,,,,,,,,,,,,,15945.574953787029,go,circleblack.png,left,0.35,15945.594383053482,15945.594383053482,15946.09114818275,15946.09114818275,15946.10759537667,15946.441458307207,15946.941794499755,15947.092060931027,15948.091922566295,15948.108450293541,None,0,15948.108450293541,15948.108450293541,0.001889936625957489,0.49026793241500854,0.8406777381896973,15948.594587214291,practice,1,,,,,,,,,,,,,,,,,,,,,,,,,,,,,,,,s029,001,2024-08-15_15h14.00.772,simplestop_skeleton,2022.2.2,60.02882971140144,
None,None,0,0,0,0,1,0,4,1,,,,,,,,,,,,,,,,,15948.595009237528,stop,squareblack.png,right,0.35,15948.615308500826,15948.615308500826,15949.111052580178,15949.111052580178,15949.127522520721,15949.461606763303,15949.961890980601,15950.112234659493,15951.11297571659,15951.129696205258,None,0,15951.129696205258,15951.129696205258,0.0018735826015472412,0.48927418887615204,0.8397801965475082,15951.61443234235,practice,1,,,,,,,,,,,,,,,,,,,,,,,,,,,,,,,,s029,001,2024-08-15_15h14.00.772,simplestop_skeleton,2022.2.2,60.02882971140144,
None,None,0,0,0,0,1,1,5,1,,,,,,,,,,,,,,,,,15951.614881761372,stop,circleblack.png,left,0.4,15951.634550660849,15951.634550660849,15952.131065830588,15952.131065830588,15952.147617690265,15952.531397491693,15953.032080218196,15953.132043518126,15954.133055269718,15954.149997383356,None,0,15954.149997383356,15954.149997383356,0.0019262805581092834,0.49037066102027893,0.8905919343233109,15954.634572707117,practice,1,15954.654454559088,15954.654454559088,,,,,,,,,,,,,,,,,,,,,,,,,,,,,,s029,001,2024-08-15_15h14.00.772,simplestop_skeleton,2022.2.2,60.02882971140144,
None,None,0,0,0,0,1,2,6,1,,,,,,,,,,,,,,,,,15954.634989351034,go,squareblack.png,right,0.45,15954.654454559088,15954.654454559088,15955.15089277178,15955.15089277178,15955.167858168483,15955.600589029491,15956.101796753705,15956.151835903525,15957.152868583798,15957.16964455694,right,1,15957.16964455694,15957.16964455694,0.0017438903450965881,0.49016493558883667,0.9402629137039185,15957.654453247786,practice,1,15957.674513921142,15957.674513921142,0.635469377040863,,,,,,,,,,,,,,,,,,,,,,,,,,,,,s029,001,2024-08-15_15h14.00.772,simplestop_skeleton,2022.2.2,60.02882971140144,
None,None,0,0,0,0,1,3,7,2,,,,,,,,,,,,,,,,,15957.654944188893,stop,circleblack.png,left,0.45,15957.674513921142,15957.674513921142,15958.17072942108,15958.17072942108,15958.187686912715,15958.619821965694,15959.12188590318,15959.17198625207,15960.173062108457,15960.189948804677,left,1,15960.189948804677,15960.189948804677,0.0018071532249450684,0.48991698026657104,0.939037062227726,15960.674594134092,practice,1,,,0.44781752675771713,,,,,,,,,,,,,,,,,,,,,,,,,,,,,s029,001,2024-08-15_15h14.00.772,simplestop_skeleton,2022.2.2,60.02882971140144,
$currentCorrectResponse,$currentGoStim,0,0,0,0,2,0,8,0,,,,,,,,,,,,,,,,,15960.67502477765,go,circleblack.png,left,0.4,15960.694255881011,15960.694255881011,15961.1910578534,15961.1910578534,15961.207661569118,15961.591382779181,15962.091608449817,15962.19152701646,15963.193334206939,15963.209671914577,left,1,15963.209671914577,15963.209671914577,0.001295730471611023,0.4899986460804939,0.8904636427760124,15963.694582432508,practice,1,15963.714216567576,15963.714216567576,0.11583328992128372,,,,,,,,,,,,,,,,,,,,,,,,,,,,,s029,001,2024-08-15_15h14.00.772,simplestop_skeleton,2022.2.2,60.02882971140144,
None,None,0,0,0,0,2,1,9,2,,,,,,,,,,,,,,,,,15963.695001803339,go,circleblack.png,left,0.4,15963.714216567576,15963.714216567576,15964.210928931832,15964.210928931832,15964.227768048644,15964.611612543464,15965.127121306956,15965.210668548942,15966.213062874973,15966.22966426611,left,1,15966.22966426611,15966.22966426611,0.0012760385870933533,0.4901272878050804,0.8904236778616905,15966.714580483735,practice,1,15966.734658308327,15966.734658308327,0.40433981269598007,,,,,,,,,,,,,,,,,,,,,,,,,,,,,s029,001,2024-08-15_15h14.00.772,simplestop_skeleton,2022.2.2,60.02882971140144,
None,None,0,0,0,0,2,2,10,3,,,,,,,,,,,,,,,,,15966.71499029547,stop,squareblack.png,right,0.4,15966.734658308327,15966.734658308327,15967.230735987425,15967.230735987425,15967.24747825414,15967.63138639927,15968.147172473371,15968.231573805213,15969.233115918934,15969.249727651477,right,1,15969.249727651477,15969.249727651477,0.0017753839492797852,0.48988015204668045,0.8907082825899124,15969.73450730741,practice,1,15969.75397528708,15969.75397528708,0.36757829785346985,,,,,,,,,,,,,,,,,,,,,,,,,,,,,s029,001,2024-08-15_15h14.00.772,simplestop_skeleton,2022.2.2,60.02882971140144,
$currentCorrectResponse,$currentGoStim,0,0,0,0,2,3,11,0,,,,,,,,,,,,,,,,,15969.734928645194,go,squareblack.png,right,0.35,15969.75397528708,15969.75397528708,15970.250833846629,15970.250833846629,15970.267412804067,15970.601230718195,15971.100433908403,15971.250550985336,15972.253158159554,15972.253158159554,left,0,15972.253158159554,15972.253158159554,0.0011885687708854675,0.49006926268339157,0.8405431807041168,15972.738007076085,practice,1,15972.758036382496,15972.758036382496,0.44444721937179565,,,,,,,,,,,,,,,,,,,,,,,,,,,,,s029,001,2024-08-15_15h14.00.772,simplestop_skeleton,2022.2.2,60.02882971140144,
None,None,0,0,0,0,3,0,12,3,,,,,,,,,,,,,,,,,15972.738429501653,stop,circleblack.png,left,0.35,15972.758036382496,15972.758036382496,15973.254158683121,15973.254158683121,15973.271163254976,15973.604737713933,15974.120330132544,15974.256384171546,15975.256418377161,15975.273128032684,left,1,15975.273128032684,15975.273128032684,0.0018398836255073547,0.4899163916707039,0.8404171541333199,15975.75786857307,practice,1,15975.777605123818,15975.777605123818,0.3850988298654556,,,,,,,,,,,,,,,,,,,,,,,,,,,,,s029,001,2024-08-15_15h14.00.772,simplestop_skeleton,2022.2.2,60.02882971140144,
$currentCorrectResponse,$currentGoStim,0,0,0,0,3,1,13,0,,,,,,,,,,,,,,,,,15975.758286260068,go,squareblack.png,right,0.3,15975.777605123818,15975.777605123818,15976.27421232313,15976.27421232313,15976.291198983788,15976.57453840971,15977.07376461476,15977.273878112435,15978.27655851841,15978.293183229864,right,1,15978.293183229864,15978.293183229864,0.001671813428401947,0.48999346047639847,0.7902877479791641,15978.777845956385,practice,1,15978.797720618546,15978.797720618546,0.487088106572628,,,,,,,,,,,,,,,,,,,,,,,,,,,,,s029,001,2024-08-15_15h14.00.772,simplestop_skeleton,2022.2.2,60.02882971140144,
None,None,0,0,0,0,3,2,14,2,,,,,,,,,,,,,,,,,15978.778284959495,go,circleblack.png,left,0.3,15978.797720618546,15978.797720618546,15979.29437854886,15979.29437854886,15979.310758665204,15979.59453509748,15980.093854278326,15980.294065244496,15981.296498663723,15981.313413538039,left,1,15981.313413538039,15981.313413538039,0.0018368363380432129,0.4901210516691208,0.7907244935631752,15981.797982439399,practice,1,15981.81794859469,15981.81794859469,0.4408707469701767,,,,,,,,,,,,,,,,,,,,,,,,,,,,,s029,001,2024-08-15_15h14.00.772,simplestop_skeleton,2022.2.2,60.02882971140144,
None,None,0,0,0,0,3,3,15,3,,,,,,,,,,,,,,,,,15981.798397555947,go,squareblack.png,right,0.3,15981.81794859469,15981.81794859469,15982.314198128879,15982.314198128879,15982.330896496773,15982.614960700274,15983.114782243967,15983.315344914794,15984.316413521767,15984.333593860269,right,1,15984.333593860269,15984.333593860269,0.0016704797744750977,0.4901220053434372,0.7902404740452766,15984.81802175194,practice,1,15984.83764988929,15984.83764988929,0.44150756299495697,,,,,,,,,,,,,,,,,,,,,,,,,,,,,s029,001,2024-08-15_15h14.00.772,simplestop_skeleton,2022.2.2,60.02882971140144,
None,None,0,0,0,0,4,0,16,2,,,,,,,,,,,,,,,,,15984.818460069597,stop,squareblack.png,right,0.3,15984.83764988929,15984.83764988929,15985.332849152386,15985.332849152386,15985.349423840642,15985.633975818753,15986.135137148201,15986.335235856473,15987.33618979901,15987.352907627821,left,0,15987.352907627821,15987.352907627821,0.0012084469199180603,0.48840852081775665,0.7894280180335045,15987.83764076233,practice,1,15987.857765644789,15987.857765644789,0.39818644523620605,,,,,,,,,,,,,,,,,,,,,,,,,,,,,s029,001,2024-08-15_15h14.00.772,simplestop_skeleton,2022.2.2,60.02882971140144,
None,None,0,0,0,0,4,1,17,2,,,,,,,,,,,,,,,,,15987.838050194085,go,circleblack.png,left,0.25,15987.857765644789,15987.857765644789,15988.354136615992,15988.354136615992,15988.370645217597,15988.604633674026,15989.103736333549,15989.353744573891,15990.356529980898,15990.37318316847,left,1,15990.37318316847,15990.37318316847,0.001903146505355835,0.49030740559101105,0.7405291274189949,15990.857906132936,practice,1,15990.87810268253,15990.87810268253,0.4601264223456383,,,,,,,,,,,,,,,,,,,,,,,,,,,,,s029,001,2024-08-15_15h14.00.772,simplestop_skeleton,2022.2.2,60.02882971140144,
$currentCorrectResponse,$currentGoStim,0,0,0,0,4,2,18,0,,,,,,,,,,,,,,,,,15990.858358561993,go,squareblack.png,right,0.25,15990.87810268253,15990.87810268253,15991.374260865152,15991.374260865152,15991.39112342149,15991.624563448131,15992.124988481402,15992.373986408114,15993.376584611833,15993.392960257828,right,1,15993.392960257828,15993.392960257828,0.0016703158617019653,0.48998111486434937,0.7403255626559258,15993.878103263676,practice,1,15993.897608272731,15993.897608272731,0.5514179095625877,,,,,,,,,,,,,,,,,,,,,,,,,,,,,s029,001,2024-08-15_15h14.00.772,simplestop_skeleton,2022.2.2,60.02882971140144,
None,None,0,0,0,0,4,3,19,2,,,,,,,,,,,,,,,,,15993.878527320921,stop,squareblack.png,right,0.25,15993.897608272731,15993.897608272731,15994.394564926624,15994.394564926624,15994.410942696035,15994.644588753581,15995.144994921982,15995.395665451884,15996.396323271096,15996.41326637566,None,0,15996.41326637566,15996.41326637566,0.001233614981174469,0.48997967690229416,0.7400517612695694,15996.897914379835,practice,1,15996.918053209782,15996.918053209782,,,,,,,,,,,,,,,,,,,,,,,,,,,,,,s029,001,2024-08-15_15h14.00.772,simplestop_skeleton,2022.2.2,60.02882971140144,
$currentCorrectResponse,$currentGoStim,0,0,0,0,5,0,20,0,,,,,,,,,,,,,,,,,15996.89833112806,go,circleblack.png,left,0.3,15996.918053209782,15996.918053209782,15997.414205409586,15997.414205409586,15997.431160733104,15997.714591667056,15998.213778935373,15998.413924358785,15999.416477791965,15999.433274298906,left,1,15999.433274298906,15999.433274298906,0.0018195509910583496,0.4897308722138405,0.7902833521366119,15999.917738161981,practice,1,15999.937638007104,15999.937638007104,0.4467247799038887,,,,,,,,,,,,,,,,,,,,,,,,,,,,,s029,001,2024-08-15_15h14.00.772,simplestop_skeleton,2022.2.2,60.02882971140144,
None,None,0,0,0,0,5,1,21,1,,,,,,,,,,,,,,,,,15999.918149895966,go,squareblack.png,right,0.3,15999.937638007104,15999.937638007104,16000.434101387858,16000.434101387858,16000.451143451035,16000.734498731792,16001.234014861286,16001.433767400682,16002.4364778772,16002.453206248581,right,1,16002.453206248581,16002.453206248581,0.0016834959387779236,0.4899784028530121,0.7902184501290321,16002.937829047441,practice,1,16002.957547813654,16002.957547813654,0.4401128515601158,,,,,,,,,,,,,,,,,,,,,,,,,,,,,s029,001,2024-08-15_15h14.00.772,simplestop_skeleton,2022.2.2,60.02882971140144,
$currentCorrectResponse,$currentGoStim,0,0,0,0,5,2,22,0,,,,,,,,,,,,,,,,,16002.93826290965,stop,circleblack.png,left,0.3,16002.957547813654,16002.957547813654,16003.454277902842,16003.454277902842,16003.471243008971,16003.754923902452,16004.25534196198,16004.45568240434,16005.45647328347,16005.45647328347,left,1,16005.45647328347,16005.45647328347,0.0018738731741905212,0.4901072457432747,0.789133720099926,16005.941396906972,practice,1,16005.960749909282,16005.960749909282,0.41022051870822906,,,,,,,,,,,,,,,,,,,,,,,,,,,,,s029,001,2024-08-15_15h14.00.772,simplestop_skeleton,2022.2.2,60.02882971140144,
None,None,0,0,0,0,5,3,23,3,,,,,,,,,,,,,,,,,16005.94181637466,go,circleblack.png,left,0.25,16005.960749909282,16005.960749909282,16006.457616873085,16006.457616873085,16006.474225863814,16006.707706779242,16007.20837701112,16007.457197196782,16008.459674492478,16008.47684635967,left,1,16008.47684635967,16008.47684635967,0.0012382790446281433,0.4899454116821289,0.7403761222958565,16008.961322404444,practice,1,16008.979065261781,16008.979065261781,0.5726745501160622,,,,,,,,,,,,,,,,,,,,,,,,,,,,,s029,001,2024-08-15_15h14.00.772,simplestop_skeleton,2022.2.2,60.02882971140144,
,,0,0,0,0,,,,,,,,,,,,,"[{'fileName': 'circleblack.png', 'correct_response': 'left', 'condition': 'stop'}, {'fileName': 'circleblack.png', 'correct_response': 'left', 'condition': 'stop'}, {'fileName': 'circleblack.png', 'correct_response': 'left', 'condition': 'go'}, {'fileName': 'squareblack.png', 'correct_response': 'right', 'condition': 'go'}, {'fileName': 'squareblack.png', 'correct_response': 'right', 'condition': 'stop'}, {'fileName': 'squareblack.png', 'correct_response': 'right', 'condition': 'go'}, {'fileName': 'circleblack.png', 'correct_response': 'left', 'condition': 'go'}, {'fileName': 'circleblack.png', 'correct_response': 'left', 'condition': 'go'}, {'fileName': 'squareblack.png', 'correct_response': 'right', 'condition': 'stop'}, {'fileName': 'squareblack.png', 'correct_response': 'right', 'condition': 'go'}, {'fileName': 'squareblack.png', 'correct_response': 'right', 'condition': 'go'}, {'fileName': 'circleblack.png', 'correct_response': 'left', 'condition': 'go'}, {'fileName': 'circleblack.png', 'correct_response': 'left', 'condition': 'go'}, {'fileName': 'squareblack.png', 'correct_response': 'right', 'condition': 'stop'}, {'fileName': 'circleblack.png', 'correct_response': 'left', 'condition': 'go'}, {'fileName': 'squareblack.png', 'correct_response': 'right', 'condition': 'go'}, {'fileName': 'squareblack.png', 'correct_response': 'right', 'condition': 'go'}, {'fileName': 'circleblack.png', 'correct_response': 'left', 'condition': 'go'}, {'fileName': 'squareblack.png', 'correct_response': 'right', 'condition': 'go'}, {'fileName': 'squareblack.png', 'correct_response': 'right', 'condition': 'go'}, {'fileName': 'circleblack.png', 'correct_response': 'left', 'condition': 'stop'}, {'fileName': 'squareblack.png', 'correct_response': 'right', 'condition': 'stop'}, {'fileName': 'circleblack.png', 'correct_response': 'left', 'condition': 'stop'}, {'fileName': 'circleblack.png', 'correct_response': 'left', 'condition': 'go'}]",,,,,,,,,,,,,,,,,,,,,,,,,,,,,,,,,,,,16008.979065261781,16008.979065261781,return,1.6914684176445007,,,,,,,,,,,,,,,,,,,,,,,,,s029,001,2024-08-15_15h14.00.772,simplestop_skeleton,2022.2.2,60.02882971140144,
None,None,,,,,,,,,0,0,0,0,0,0,0,3,,,,,,,,,16019.864463955164,go,squareblack.png,right,0.25,,,,,,,,,,,,,,,0.002002216875553131,0.4984525814652443,,16022.376294605434,test,1,,,,,,,,16010.695718213916,16010.695718213916,16019.883548475802,16020.38936214149,16020.38936214149,16020.38936214149,16020.639782138169,16021.14039284736,16021.39060728252,16022.3949040398,right,1,0.4563160166144371,0.25,,,,,,,,,,,s029,001,2024-08-15_15h14.00.772,simplestop_skeleton,2022.2.2,60.02882971140144,
None,None,,,,,,,,,0,0,0,0,0,1,1,3,,,,,,,,,16022.376839064062,stop,squareblack.png,right,0.25,,,,,,,,,,,,,,,0.0012101531028747559,0.4900389015674591,0.7398879826068878,16024.878945633769,test,1,,,,,,,,,,16022.3949040398,16022.909028053284,16022.892199091613,16022.892199091613,16023.142395071685,16023.641643993556,16023.891870968044,16024.897962667048,right,1,0.42300716787576675,0.2,,,,,,,,,,,s029,001,2024-08-15_15h14.00.772,simplestop_skeleton,2022.2.2,60.02882971140144,
None,None,,,,,,,,,0,0,0,0,0,2,2,1,,,,,,,,,16024.87938207388,go,circleblack.png,left,0.2,,,,,,,,,,,,,,,0.0018665194511413574,0.4893999770283699,,16027.38186314702,test,1,,,,,,,,,,16024.897962667048,16025.411759659648,16025.395012900233,16025.395012900233,16025.595412567258,16026.094613485038,16026.39547394216,16027.401174537838,left,1,0.34996210038661957,0.2,,,,,,,,,,,s029,001,2024-08-15_15h14.00.772,simplestop_skeleton,2022.2.2,60.02882971140144,
$currentCorrectResponse,$currentGoStim,,,,,,,,,0,0,0,0,0,3,3,0,,,,,,,,,16027.382293738425,go,squareblack.png,right,0.2,,,,,,,,,,,,,,,0.001741267740726471,0.4898560419678688,,16029.884709469974,test,1,,,,,,,,,,16027.401174537838,16027.914464481175,16027.897820979357,16027.897820979357,16028.098152600229,16028.59856068343,16028.897542700171,16029.903916195035,right,1,0.4581499397754669,0.2,,,,,,,,,,,s029,001,2024-08-15_15h14.00.772,simplestop_skeleton,2022.2.2,60.02882971140144,
None,None,,,,,,,,,0,0,0,0,1,0,4,1,,,,,,,,,16029.885145276785,stop,circleblack.png,left,0.2,,,,,,,,,,,,,,,0.0017400309443473816,0.4898839741945267,0.6899906322360039,16032.387443713844,test,1,,,,,,,,,,16029.903916195035,16030.417359985411,16030.40076161921,16030.40076161921,16030.600797377527,16031.100155897439,16031.400372676551,16032.406505130231,left,1,0.4019710272550583,0.15,,,,,,,,,,,s029,001,2024-08-15_15h14.00.772,simplestop_skeleton,2022.2.2,60.02882971140144,
$currentCorrectResponse,$currentGoStim,,,,,,,,,0,0,0,0,1,1,5,0,,,,,,,,,16032.387882754207,go,circleblack.png,left,0.15,,,,,,,,,,,,,,,0.0014746785163879395,0.4878891333937645,,16034.890101373196,test,1,,,,,,,,,,16032.406505130231,16032.918558128178,16032.901936806738,16032.901936806738,16033.053135894239,16033.553949944675,16033.904613792896,16034.909306950867,left,1,0.42325398325920105,0.15,,,,,,,,,,,s029,001,2024-08-15_15h14.00.772,simplestop_skeleton,2022.2.2,60.02882971140144,
$currentCorrectResponse,$currentGoStim,,,,,,,,,0,0,0,0,1,2,6,0,,,,,,,,,16034.890543788671,go,squareblack.png,right,0.15,,,,,,,,,,,,,,,0.001622118055820465,0.489620141685009,,16037.393075980246,test,1,,,,,,,,,,16034.909306950867,16035.422853082418,16035.406435474753,16035.406435474753,16035.556624308228,16036.057229422033,16036.405789606273,16037.412147402763,right,1,0.5907663255929947,0.15,,,,,,,,,,,s029,001,2024-08-15_15h14.00.772,simplestop_skeleton,2022.2.2,60.02882971140144,
None,None,,,,,,,,,0,0,0,0,1,3,7,2,,,,,,,,,16037.39352556318,stop,circleblack.png,left,0.15,,,,,,,,,,,,,,,0.0019355863332748413,0.4898030236363411,0.639887809753418,16039.895744092762,test,1,,,,,,,,,,16037.412147402763,16037.925649188459,16037.908898599446,16037.908898599446,16038.058943606913,16038.558147497475,16038.909277312458,16039.914510950446,None,0,,0.2,,,,,,,,,,,s029,001,2024-08-15_15h14.00.772,simplestop_skeleton,2022.2.2,60.02882971140144,
None,None,,,,,,,,,0,0,0,0,2,0,8,3,,,,,,,,,16039.896200299263,go,circleblack.png,left,0.2,,,,,,,,,,,,,,,0.0014458075165748596,0.48983193933963776,,16042.39833587408,test,1,,,,,,,,,,16039.914510950446,16040.42818429321,16040.411557346582,16040.411557346582,16040.611834056675,16041.112399101257,16041.412900850177,16042.417637191713,left,1,0.9449222013354301,0.2,,,,,,,,,,,s029,001,2024-08-15_15h14.00.772,simplestop_skeleton,2022.2.2,60.02882971140144,
None,None,,,,,,,,,0,0,0,0,2,1,9,3,,,,,,,,,16042.398787520826,stop,squareblack.png,right,0.2,,,,,,,,,,,,,,,0.0016695186495780945,0.48945073783397675,0.689763255417347,16044.899930089712,test,1,,,,,,,,,,16042.417637191713,16042.93094021082,16042.914357796311,16042.914357796311,16043.1145741269,16043.615190058947,16043.915651723742,16044.91661195457,None,0,,0.25,,,,,,,,,,,s029,001,2024-08-15_15h14.00.772,simplestop_skeleton,2022.2.2,60.02882971140144,
None,None,,,,,,,,,0,0,0,0,2,2,10,1,,,,,,,,,16044.900380067527,go,squareblack.png,right,0.25,,,,,,,,,,,,,,,0.001138538122177124,0.49096111208200455,,16047.40367666632,test,1,,,,,,,,,,16044.91661195457,16045.417232505977,16045.417232505977,16045.417232505977,16045.665995202959,16046.167253948748,16046.418124131858,16047.423221036792,right,1,0.5352795496582985,0.25,,,,,,,,,,,s029,001,2024-08-15_15h14.00.772,simplestop_skeleton,2022.2.2,60.02882971140144,
$currentCorrectResponse,$currentGoStim,,,,,,,,,0,0,0,0,2,3,11,0,,,,,,,,,16047.404112748802,go,circleblack.png,left,0.25,,,,,,,,,,,,,,,0.0019332170486450195,0.48983732610940933,,16049.906579740345,test,1,,,,,,,,,,16047.423221036792,16047.936585500836,16047.919867530465,16047.919867530465,16048.170165248215,16048.670725010335,16048.919405810535,16049.92568898946,left,1,0.555243656039238,0.25,,,,,,,,,,,s029,001,2024-08-15_15h14.00.772,simplestop_skeleton,2022.2.2,60.02882971140144,
None,None,,,,,,,,,0,0,0,0,3,0,12,1,,,,,,,,,16049.90701545775,stop,squareblack.png,right,0.25,,,,,,,,,,,,,,,0.0016930624842643738,0.4896324649453163,0.7399610951542854,16052.4093170017,test,1,,,,,,,,,,16049.92568898946,16050.439700178802,16050.422649107873,16050.422649107873,16050.672922477126,16051.172196559608,16051.422392107546,16052.428588993847,right,1,0.45291417837142944,0.2,,,,,,,,,,,s029,001,2024-08-15_15h14.00.772,simplestop_skeleton,2022.2.2,60.02882971140144,
None,None,,,,,,,,,0,0,0,0,3,1,13,3,,,,,,,,,16052.409761890769,stop,circleblack.png,left,0.2,,,,,,,,,,,,,,,0.001674555242061615,0.4898470640182495,0.6902265921235085,16054.91240644455,test,1,,,,,,,,,,16052.428588993847,16052.942218005657,16052.92561377585,16052.92561377585,16053.125707022846,16053.624898508191,16053.925303906202,16054.931164897978,left,1,0.3635164797306061,0.15,,,,,,,,,,,s029,001,2024-08-15_15h14.00.772,simplestop_skeleton,2022.2.2,60.02882971140144,
None,None,,,,,,,,,0,0,0,0,3,2,14,3,,,,,,,,,16054.912849776447,go,circleblack.png,left,0.15,,,,,,,,,,,,,,,0.0013561993837356567,0.48962925374507904,,16057.414795204997,test,1,,,,,,,,,,16054.931164897978,16055.444715745747,16055.428181037307,16055.428181037307,16055.578277692199,16056.078825771809,16056.427820920944,16057.434256777167,left,1,0.3999039754271507,0.15,,,,,,,,,,,s029,001,2024-08-15_15h14.00.772,simplestop_skeleton,2022.2.2,60.02882971140144,
$currentCorrectResponse,$currentGoStim,,,,,,,,,0,0,0,0,3,3,15,0,,,,,,,,,16057.415234930813,go,squareblack.png,right,0.15,,,,,,,,,,,,,,,0.0017317384481430054,0.4896899089217186,,16059.917510919273,test,1,,,,,,,,,,16057.434256777167,16057.947696357965,16057.930949874222,16057.930949874222,16058.08113835752,16058.581909701228,16058.930612571537,16059.936780028045,right,1,0.4086043909192085,0.15,,,,,,,,,,,s029,001,2024-08-15_15h14.00.772,simplestop_skeleton,2022.2.2,60.02882971140144,
$currentCorrectResponse,$currentGoStim,,,,,,,,,0,0,0,0,4,0,16,0,,,,,,,,,16059.917947910726,go,circleblack.png,left,0.15,,,,,,,,,,,,,,,0.0017226189374923706,0.49004051834344864,,16062.420556746423,test,1,,,,,,,,,,16059.936780028045,16060.45060634613,16060.43381909281,16060.43381909281,16060.583781607449,16061.083182230592,16061.434496298432,16062.439651444554,left,1,0.3455633372068405,0.15,,,,,,,,,,,s029,001,2024-08-15_15h14.00.772,simplestop_skeleton,2022.2.2,60.02882971140144,
None,None,,,,,,,,,0,0,0,0,4,1,17,3,,,,,,,,,16062.421034298837,go,squareblack.png,right,0.15,,,,,,,,,,,,,,,0.0017196610569953918,0.4894298240542412,,16064.92302583903,test,1,,,,,,,,,,16062.439651444554,16062.953102223575,16062.936809152365,16062.936809152365,16063.086664617062,16063.587334543467,16063.936061315238,16064.942376710474,right,1,0.543730840086937,0.15,,,,,,,,,,,s029,001,2024-08-15_15h14.00.772,simplestop_skeleton,2022.2.2,60.02882971140144,
$currentCorrectResponse,$currentGoStim,,,,,,,,,0,0,0,0,4,2,18,0,,,,,,,,,16064.923469640315,go,circleblack.png,left,0.15,,,,,,,,,,,,,,,0.0018686950206756592,0.4901764690876007,,16067.425878874958,test,1,,,,,,,,,,16064.942376710474,16065.455820530653,16065.439168676734,16065.439168676734,16065.589297309518,16066.089815177023,16066.438771620393,16067.444972157478,left,1,0.5629783123731613,0.15,,,,,,,,,,,s029,001,2024-08-15_15h14.00.772,simplestop_skeleton,2022.2.2,60.02882971140144,
None,None,,,,,,,,,0,0,0,0,4,3,19,2,,,,,,,,,16067.42632073164,go,squareblack.png,right,0.15,,,,,,,,,,,,,,,0.0015646666288375854,0.4895686209201813,,16069.928599528968,test,1,,,,,,,,,,16067.444972157478,16067.958542630076,16067.942104183137,16067.942104183137,16068.091996625066,16068.59265703708,16068.94152803719,16069.947881028056,right,1,0.5680328011512756,0.15,,,,,,,,,,,s029,001,2024-08-15_15h14.00.772,simplestop_skeleton,2022.2.2,60.02882971140144,
$currentCorrectResponse,$currentGoStim,,,,,,,,,0,0,0,0,5,0,20,0,,,,,,,,,16069.929038107395,stop,circleblack.png,left,0.15,,,,,,,,,,,,,,,0.0017657577991485596,0.489873431622982,0.6400720849633217,16072.431606009603,test,1,,,,,,,,,,16069.947881028056,16070.461573034525,16070.444966427982,16070.444966427982,16070.59504084289,16071.095684915781,16071.445937693119,16072.450699545443,None,0,,0.2,,,,,,,,,,,s029,001,2024-08-15_15h14.00.772,simplestop_skeleton,2022.2.2,60.02882971140144,
None,None,,,,,,,,,0,0,0,0,5,1,21,3,,,,,,,,,16072.432054147124,stop,squareblack.png,right,0.2,,,,,,,,,,,,,,,0.0016279667615890503,0.48989614844322205,0.6898404061794281,16074.934385672212,test,1,,,,,,,,,,16072.450699545443,16072.964132517576,16072.947676993906,16072.947676993906,16073.14769589901,16073.648254729807,16073.948488019407,16074.953733988106,None,0,,0.25,,,,,,,,,,,s029,001,2024-08-15_15h14.00.772,simplestop_skeleton,2022.2.2,60.02882971140144,
None,None,,,,,,,,,0,0,0,0,5,2,22,3,,,,,,,,,16074.934881351888,go,squareblack.png,right,0.25,,,,,,,,,,,,,,,0.0013266801834106445,0.48821844160556793,,16077.436853431165,test,1,,,,,,,,,,16074.953733988106,16075.4654879421,16075.44871236384,16075.44871236384,16075.700288042426,16076.201139263809,16076.45133151114,16077.456484310329,right,1,0.5404687896370888,0.25,,,,,,,,,,,s029,001,2024-08-15_15h14.00.772,simplestop_skeleton,2022.2.2,60.02882971140144,
None,None,,,,,,,,,0,0,0,0,5,3,23,1,,,,,,,,,16077.437291361392,go,circleblack.png,left,0.25,,,,,,,,,,,,,,,0.0019208043813705444,0.49002765119075775,,16079.93975572288,test,1,,,,,,,,,,16077.456484310329,16077.96951097995,16077.95284742862,16077.95284742862,16078.203248783946,16078.703716591,16078.952625773847,16079.958746865392,left,1,0.4891839176416397,0.25,,,,,,,,,,,s029,001,2024-08-15_15h14.00.772,simplestop_skeleton,2022.2.2,60.02882971140144,
None,None,,,,,,,,,0,0,0,0,6,0,24,1,,,,,,,,,16079.940205834806,go,circleblack.png,left,0.25,,,,,,,,,,,,,,,0.0013546198606491089,0.48948318511247635,,16082.442939080298,test,1,,,,,,,,,,16079.958746865392,16080.47248647362,16080.456083349884,16080.456083349884,16080.70614848286,16081.206588380039,16081.45586372912,16082.461794286966,left,1,0.5222273990511894,0.25,,,,,,,,,,,s029,001,2024-08-15_15h14.00.772,simplestop_skeleton,2022.2.2,60.02882971140144,
$currentCorrectResponse,$currentGoStim,,,,,,,,,0,0,0,0,6,1,25,0,,,,,,,,,16082.443383343518,stop,circleblack.png,left,0.25,,,,,,,,,,,,,,,0.0014188960194587708,0.48926573246717453,0.739467017352581,16084.94539437443,test,1,,,,,,,,,,16082.461794286966,16082.975340478122,16082.958510234952,16082.958510234952,16083.20879599452,16083.709326468408,16083.95975676924,16084.964036531746,None,0,,0.3,,,,,,,,,,,s029,001,2024-08-15_15h14.00.772,simplestop_skeleton,2022.2.2,60.02882971140144,
None,None,,,,,,,,,0,0,0,0,6,2,26,1,,,,,,,,,16084.945824474096,stop,circleblack.png,left,0.3,,,,,,,,,,,,,,,0.0013880357146263123,0.48964139074087143,0.7898343354463577,16087.447915501893,test,1,,,,,,,,,,16084.964036531746,16085.47799783945,16085.461325779557,16085.461325779557,16085.76197256893,16086.262420706451,16086.462475329638,16087.46669305116,None,0,,0.35,,,,,,,,,,,s029,001,2024-08-15_15h14.00.772,simplestop_skeleton,2022.2.2,60.02882971140144,
None,None,,,,,,,,,0,0,0,0,6,3,27,1,,,,,,,,,16087.448347873986,go,circleblack.png,left,0.35,,,,,,,,,,,,,,,0.001253560185432434,0.48995909839868546,,16089.95054730028,test,1,,,,,,,,,,16087.46669305116,16087.980866231024,16087.964152283967,16087.964152283967,16088.31446249783,16088.830616988242,16088.96372050792,16089.969940967858,left,1,0.4938196986913681,0.35,,,,,,,,,,,s029,001,2024-08-15_15h14.00.772,simplestop_skeleton,2022.2.2,60.02882971140144,
None,None,,,,,,,,,0,0,0,0,7,0,28,2,,,,,,,,,16089.95097798109,go,circleblack.png,left,0.35,,,,,,,,,,,,,,,0.0013666674494743347,0.4898379296064377,,16092.453693583608,test,1,,,,,,,,,,16089.969940967858,16090.483503818512,16090.466832906008,16090.466832906008,16090.817172951996,16091.316744565964,16091.466413475573,16092.472593314946,left,1,0.44298774003982544,0.35,,,,,,,,,,,s029,001,2024-08-15_15h14.00.772,simplestop_skeleton,2022.2.2,60.02882971140144,
None,None,,,,,,,,,0,0,0,0,7,1,29,3,,,,,,,,,16092.454144716263,go,circleblack.png,left,0.35,,,,,,,,,,,,,,,0.0013918578624725342,0.48952925205230713,,16094.95651384443,test,1,,,,,,,,,,16092.472593314946,16092.986397385597,16092.969757512212,16092.969757512212,16093.32005765289,16093.835717387497,16093.96971333772,16094.980649836361,left,1,0.37183351069688797,0.35,,,,,,,,,,,s029,001,2024-08-15_15h14.00.772,simplestop_skeleton,2022.2.2,60.02882971140144,
None,None,,,,,,,,,0,0,0,0,7,2,30,2,,,,,,,,,16094.956969432533,go,squareblack.png,right,0.35,,,,,,,,,,,,,,,0.007337212562561035,0.4896635338664055,,16097.459224440157,test,1,,,,,,,,,,16094.980649836361,16095.488879665732,16095.472213380039,16095.472213380039,16095.822608828545,16096.322530977428,16096.47186896205,16097.4815223068,right,1,0.4892491102218628,0.35,,,,,,,,,,,s029,001,2024-08-15_15h14.00.772,simplestop_skeleton,2022.2.2,60.02882971140144,
None,None,,,,,,,,,0,0,0,0,7,3,31,2,,,,,,,,,16097.459786690772,stop,squareblack.png,right,0.35,,,,,,,,,,,,,,,0.0013425424695014954,0.4868107885122299,0.8369578346610069,16099.96171079576,test,1,,,,,,,,,,16097.4815223068,16097.991570793092,16097.975177943707,16097.975177943707,16098.325440309942,16098.824528753757,16098.97523470968,16099.980636447668,right,1,0.4343404620885849,0.3,,,,,,,,,,,s029,001,2024-08-15_15h14.00.772,simplestop_skeleton,2022.2.2,60.02882971140144,
$currentCorrectResponse,$currentGoStim,,,,,,,,,0,0,0,0,8,0,32,0,,,,,,,,,16099.96214736998,go,squareblack.png,right,0.3,,,,,,,,,,,,,,,0.0012894794344902039,0.4895082712173462,,16102.464570619166,test,1,,,,,,,,,,16099.980636447668,16100.49455883354,16100.47782485187,16100.47782485187,16100.778292030096,16101.27744666487,16101.477556332946,16102.483433693647,right,1,0.5025495663285255,0.3,,,,,,,,,,,s029,001,2024-08-15_15h14.00.772,simplestop_skeleton,2022.2.2,60.02882971140144,
None,None,,,,,,,,,0,0,0,0,8,1,33,2,,,,,,,,,16102.46502263099,stop,squareblack.png,right,0.3,,,,,,,,,,,,,,,0.0013059452176094055,0.48963911831378937,0.7900566607713699,16104.967243358493,test,1,,,,,,,,,,16102.483433693647,16102.997319161892,16102.980773352087,16102.980773352087,16103.28089144826,16103.796963222325,16103.980369269848,16104.98659671843,right,1,0.45358334481716156,0.25,,,,,,,,,,,s029,001,2024-08-15_15h14.00.772,simplestop_skeleton,2022.2.2,60.02882971140144,
$currentCorrectResponse,$currentGoStim,,,,,,,,,0,0,0,0,8,2,34,0,,,,,,,,,16104.967684879899,go,squareblack.png,right,0.25,,,,,,,,,,,,,,,0.0014860555529594421,0.489605076611042,,16107.4704240039,test,1,,,,,,,,,,16104.98659671843,16105.500183679163,16105.483254171908,16105.483254171908,16105.73385528475,16106.23424820602,16106.48322957009,16107.490560777485,right,1,0.5720131024718285,0.25,,,,,,,,,,,s029,001,2024-08-15_15h14.00.772,simplestop_skeleton,2022.2.2,60.02882971140144,
None,None,,,,,,,,,0,0,0,0,8,3,35,1,,,,,,,,,16107.470936536789,go,squareblack.png,right,0.25,,,,,,,,,,,,,,,0.0022270306944847107,0.48856230825185776,,16109.972978129983,test,1,,,,,,,,,,16107.490560777485,16108.002820327878,16107.986256249249,16107.986256249249,16108.236453741789,16108.736979492009,16108.985850296915,16109.993032820523,right,1,0.4766068607568741,0.25,,,,,,,,,,,s029,001,2024-08-15_15h14.00.772,simplestop_skeleton,2022.2.2,60.02882971140144,
None,None,,,,,,,,,0,0,0,0,9,0,36,2,,,,,,,,,16109.973437845707,go,circleblack.png,left,0.25,,,,,,,,,,,,,,,0.0031506940722465515,0.48964764177799225,,16112.475436076522,test,1,,,,,,,,,,16109.993032820523,16110.505606986582,16110.48889733851,16110.48889733851,16110.739126890898,16111.23975367099,16111.488895505667,16112.494341000915,left,1,0.5179736614227295,0.25,,,,,,,,,,,s029,001,2024-08-15_15h14.00.772,simplestop_skeleton,2022.2.2,60.02882971140144,
None,None,,,,,,,,,0,0,0,0,9,1,37,2,,,,,,,,,16112.475882768631,go,circleblack.png,left,0.25,,,,,,,,,,,,,,,0.0012970119714736938,0.4899337813258171,,16114.978419065475,test,1,,,,,,,,,,16112.494341000915,16113.008399292827,16112.991661921144,16112.991661921144,16113.241989716887,16113.742486447096,16113.991486556828,16114.997998826206,left,1,0.5812065154314041,0.25,,,,,,,,,,,s029,001,2024-08-15_15h14.00.772,simplestop_skeleton,2022.2.2,60.02882971140144,
None,None,,,,,,,,,0,0,0,0,9,2,38,3,,,,,,,,,16114.9788524881,stop,squareblack.png,right,0.25,,,,,,,,,,,,,,,0.0017632320523262024,0.4893624782562256,0.7398693636059761,16117.481431804597,test,1,,,,,,,,,,16114.997998826206,16115.511392720044,16115.494453400373,16115.494453400373,16115.744879364967,16116.245531640947,16116.495694853365,16117.500172428787,None,0,,0.3,,,,,,,,,,,s029,001,2024-08-15_15h14.00.772,simplestop_skeleton,2022.2.2,60.02882971140144,
None,None,,,,,,,,,0,0,0,0,9,3,39,2,,,,,,,,,16117.481875792146,go,squareblack.png,right,0.3,,,,,,,,,,,,,,,0.001440390944480896,0.4894917905330658,,16119.983778454363,test,1,,,,,,,,,,16117.500172428787,16118.013774879277,16117.997062601149,16117.997062601149,16118.29739098996,16118.797923192382,16118.996965415776,16120.003344908357,right,1,0.5889137908816338,0.3,,,,,,,,,,,s029,001,2024-08-15_15h14.00.772,simplestop_skeleton,2022.2.2,60.02882971140144,
None,None,,,,,,,,,0,0,0,0,10,0,40,2,,,,,,,,,16119.984208978713,go,circleblack.png,left,0.3,,,,,,,,,,,,,,,0.001919075846672058,0.48986124992370605,,16122.486653372645,test,1,,,,,,,,,,16120.003344908357,16120.516613543034,16120.499859981239,16120.499859981239,16120.80029412359,16121.316227219999,16121.499688014388,16122.505611471832,left,1,0.47655917704105377,0.3,,,,,,,,,,,s029,001,2024-08-15_15h14.00.772,simplestop_skeleton,2022.2.2,60.02882971140144,
None,None,,,,,,,,,0,0,0,0,10,1,41,2,,,,,,,,,16122.487105622888,go,circleblack.png,left,0.3,,,,,,,,,,,,,,,0.001445859670639038,0.48959219455718994,,16124.989492483437,test,1,,,,,,,,,,16122.505611471832,16123.019720092416,16123.00261067599,16123.00261067599,16123.303066067398,16123.80354899913,16124.002399362624,16125.008549027145,left,1,0.5420184507966042,0.3,,,,,,,,,,,s029,001,2024-08-15_15h14.00.772,simplestop_skeleton,2022.2.2,60.02882971140144,
None,None,,,,,,,,,0,0,0,0,10,2,42,1,,,,,,,,,16124.989941254258,go,squareblack.png,right,0.3,,,,,,,,,,,,,,,0.0016010180115699768,0.48950526118278503,,16127.492057137191,test,1,,,,,,,,,,16125.008549027145,16125.52217555046,16125.505369611084,16125.505369611084,16125.805788181722,16126.32158254087,16126.505168788135,16127.511608019471,right,1,0.46801288425922394,0.3,,,,,,,,,,,s029,001,2024-08-15_15h14.00.772,simplestop_skeleton,2022.2.2,60.02882971140144,
None,None,,,,,,,,,0,0,0,0,10,3,43,1,,,,,,,,,16127.49249702692,stop,circleblack.png,left,0.3,,,,,,,,,,,,,,,0.0018681064248085022,0.48968803882598877,0.790236696600914,16129.995399065316,test,1,,,,,,,,,,16127.511608019471,16128.025079779327,16128.008253119886,16128.008253119886,16128.308649636805,16128.808107569814,16129.007856428623,16130.014395177364,left,1,0.4185033068060875,0.25,,,,,,,,,,,s029,001,2024-08-15_15h14.00.772,simplestop_skeleton,2022.2.2,60.02882971140144,
None,None,,,,,,,,,0,0,0,0,11,0,44,1,,,,,,,,,16129.99582708627,go,squareblack.png,right,0.25,,,,,,,,,,,,,,,0.0016907155513763428,0.4893937483429909,,16132.497496314347,test,1,,,,,,,,,,16130.014395177364,16130.527663238347,16130.51094738394,16130.51094738394,16130.761117301881,16131.26183193922,16131.510680258274,16132.51589962095,right,1,0.46810704469680786,0.25,,,,,,,,,,,s029,001,2024-08-15_15h14.00.772,simplestop_skeleton,2022.2.2,60.02882971140144,
None,None,,,,,,,,,0,0,0,0,11,1,45,2,,,,,,,,,16132.497936494648,stop,squareblack.png,right,0.25,,,,,,,,,,,,,,,0.001200154423713684,0.48984549939632416,0.740160197019577,16135.001699961722,test,1,,,,,,,,,,16132.51589962095,16133.030420549214,16133.01379595697,16133.01379595697,16133.264385640621,16133.76455000788,16134.014907434583,16135.022228568792,None,0,,0.3,,,,,,,,,,,s029,001,2024-08-15_15h14.00.772,simplestop_skeleton,2022.2.2,60.02882971140144,
$currentCorrectResponse,$currentGoStim,,,,,,,,,0,0,0,0,11,2,46,0,,,,,,,,,16135.002142392099,stop,circleblack.png,left,0.3,,,,,,,,,,,,,,,0.002577751874923706,0.48655252903699875,0.7868500649929047,16137.502953127027,test,1,,,,,,,,,,16135.022228568792,16135.531727530062,16135.515014320612,16135.515014320612,16135.815302684903,16136.316854506731,16136.517686352134,16137.522197514772,None,0,,0.35,,,,,,,,,,,s029,001,2024-08-15_15h14.00.772,simplestop_skeleton,2022.2.2,60.02882971140144,
None,None,,,,,,,,,0,0,0,0,11,3,47,3,,,,,,,,,16137.50337999314,go,squareblack.png,right,0.35,,,,,,,,,,,,,,,0.001665160059928894,0.4897548630833626,,16140.005942180753,test,1,,,,,,,,,,16137.522197514772,16138.035952225327,16138.019214183092,16138.019214183092,16138.369673006237,16138.868866614997,16139.018901608884,16140.026421189308,right,1,0.5082430765032768,0.35,,,,,,,,,,,s029,001,2024-08-15_15h14.00.772,simplestop_skeleton,2022.2.2,60.02882971140144,
,,,,,,,,,,0,0,0,0,,,,,,"[{'fileName': 'squareblack.png', 'correct_response': 'right', 'condition': 'go'}, {'fileName': 'squareblack.png', 'correct_response': 'right', 'condition': 'go'}, {'fileName': 'circleblack.png', 'correct_response': 'left', 'condition': 'go'}, {'fileName': 'circleblack.png', 'correct_response': 'left', 'condition': 'go'}, {'fileName': 'squareblack.png', 'correct_response': 'right', 'condition': 'go'}, {'fileName': 'squareblack.png', 'correct_response': 'right', 'condition': 'stop'}, {'fileName': 'circleblack.png', 'correct_response': 'left', 'condition': 'go'}, {'fileName': 'squareblack.png', 'correct_response': 'right', 'condition': 'go'}, {'fileName': 'circleblack.png', 'correct_response': 'left', 'condition': 'stop'}, {'fileName': 'circleblack.png', 'correct_response': 'left', 'condition': 'go'}, {'fileName': 'squareblack.png', 'correct_response': 'right', 'condition': 'stop'}, {'fileName': 'circleblack.png', 'correct_response': 'left', 'condition': 'stop'}, {'fileName': 'circleblack.png', 'correct_response': 'left', 'condition': 'stop'}, {'fileName': 'circleblack.png', 'correct_response': 'left', 'condition': 'go'}, {'fileName': 'circleblack.png', 'correct_response': 'left', 'condition': 'go'}, {'fileName': 'circleblack.png', 'correct_response': 'left', 'condition': 'go'}, {'fileName': 'squareblack.png', 'correct_response': 'right', 'condition': 'stop'}, {'fileName': 'squareblack.png', 'correct_response': 'right', 'condition': 'stop'}, {'fileName': 'circleblack.png', 'correct_response': 'left', 'condition': 'go'}, {'fileName': 'squareblack.png', 'correct_response': 'right', 'condition': 'go'}, {'fileName': 'squareblack.png', 'correct_response': 'right', 'condition': 'go'}, {'fileName': 'circleblack.png', 'correct_response': 'left', 'condition': 'stop'}, {'fileName': 'squareblack.png', 'correct_response': 'right', 'condition': 'go'}, {'fileName': 'squareblack.png', 'correct_response': 'right', 'condition': 'go'}, {'fileName': 'circleblack.png', 'correct_response': 'left', 'condition': 'go'}, {'fileName': 'circleblack.png', 'correct_response': 'left', 'condition': 'go'}, {'fileName': 'circleblack.png', 'correct_response': 'left', 'condition': 'stop'}, {'fileName': 'squareblack.png', 'correct_response': 'right', 'condition': 'go'}, {'fileName': 'squareblack.png', 'correct_response': 'right', 'condition': 'go'}, {'fileName': 'squareblack.png', 'correct_response': 'right', 'condition': 'go'}, {'fileName': 'circleblack.png', 'correct_response': 'left', 'condition': 'go'}, {'fileName': 'squareblack.png', 'correct_response': 'right', 'condition': 'stop'}, {'fileName': 'squareblack.png', 'correct_response': 'right', 'condition': 'go'}, {'fileName': 'squareblack.png', 'correct_response': 'right', 'condition': 'stop'}, {'fileName': 'circleblack.png', 'correct_response': 'left', 'condition': 'stop'}, {'fileName': 'circleblack.png', 'correct_response': 'left', 'condition': 'go'}, {'fileName': 'circleblack.png', 'correct_response': 'left', 'condition': 'stop'}, {'fileName': 'circleblack.png', 'correct_response': 'left', 'condition': 'go'}, {'fileName': 'squareblack.png', 'correct_response': 'right', 'condition': 'stop'}, {'fileName': 'circleblack.png', 'correct_response': 'left', 'condition': 'go'}, {'fileName': 'circleblack.png', 'correct_response': 'left', 'condition': 'go'}, {'fileName': 'squareblack.png', 'correct_response': 'right', 'condition': 'go'}, {'fileName': 'squareblack.png', 'correct_response': 'right', 'condition': 'stop'}, {'fileName': 'circleblack.png', 'correct_response': 'left', 'condition': 'go'}, {'fileName': 'squareblack.png', 'correct_response': 'right', 'condition': 'go'}, {'fileName': 'squareblack.png', 'correct_response': 'right', 'condition': 'go'}, {'fileName': 'circleblack.png', 'correct_response': 'left', 'condition': 'stop'}, {'fileName': 'squareblack.png', 'correct_response': 'right', 'condition': 'go'}]",,,,,,,,,,,,,,,,,,,,,,,,,,,,,,,,,,,,,,,,,,,,,,,,,,,,,16140.026421189308,16140.026421189308,return,3.2020105570554733,,,,,,,s029,001,2024-08-15_15h14.00.772,simplestop_skeleton,2022.2.2,60.02882971140144,
$currentCorrectResponse,$currentGoStim,,,,,,,,,1,0,1,0,0,0,0,0,,,,,,,,,16143.262728065252,go,squareblack.png,right,0.35,,,,,,,,,,,,,,,0.0012627094984054565,0.498462438583374,,16145.779350347817,test,2,,,,,,,,,,16143.285414971411,16143.790938407183,16143.790938407183,16143.790938407183,16144.12547121942,16144.626548141241,16144.793400242925,16145.798634633422,right,1,0.5284717231988907,0.35,,,,,,,,,,,s029,001,2024-08-15_15h14.00.772,simplestop_skeleton,2022.2.2,60.02882971140144,
$currentCorrectResponse,$currentGoStim,,,,,,,,,1,0,1,0,0,1,1,0,,,,,,,,,16145.77989192307,go,squareblack.png,right,0.35,,,,,,,,,,,,,,,0.0014077574014663696,0.4891750440001488,,16148.28180590272,test,2,,,,,,,,,,16145.798634633422,16146.311936169863,16146.295035026968,16146.295035026968,16146.645360410213,16147.144656732678,16147.29473426193,16148.306663282216,right,1,0.3645069822669029,0.35,,,,,,,,,,,s029,001,2024-08-15_15h14.00.772,simplestop_skeleton,2022.2.2,60.02882971140144,
$currentCorrectResponse,$currentGoStim,,,,,,,,,1,0,1,0,0,2,2,0,,,,,,,,,16148.282248854637,go,circleblack.png,left,0.35,,,,,,,,,,,,,,,0.008029915392398834,0.4897834584116936,,16150.784649595618,test,2,,,,,,,,,,16148.306663282216,16148.814584977925,16148.797815777361,16148.797815777361,16149.148273386061,16149.664793804288,16149.797548040748,16150.8036904037,left,1,0.4722107797861099,0.35,,,,,,,,,,,s029,001,2024-08-15_15h14.00.772,simplestop_skeleton,2022.2.2,60.02882971140144,
$currentCorrectResponse,$currentGoStim,,,,,,,,,1,0,1,0,0,3,3,0,,,,,,,,,16150.785090908408,go,circleblack.png,left,0.35,,,,,,,,,,,,,,,0.0013621076941490173,0.4893917441368103,,16153.287361964583,test,2,,,,,,,,,,16150.8036904037,16151.317248143256,16151.300689555705,16151.300689555705,16151.651153482497,16152.151471845806,16152.301947496831,16153.307401023805,left,1,0.6040318235754967,0.35,,,,,,,,,,,s029,001,2024-08-15_15h14.00.772,simplestop_skeleton,2022.2.2,60.02882971140144,
$currentCorrectResponse,$currentGoStim,,,,,,,,,1,0,1,0,1,0,4,0,,,,,,,,,16153.2878594324,go,squareblack.png,right,0.35,,,,,,,,,,,,,,,0.0026291683316230774,0.487759031355381,,16155.790004469454,test,2,,,,,,,,,,16153.307401023805,16153.818902470171,16153.802090667188,16153.802090667188,16154.15345479548,16154.65463962406,16154.804634101689,16155.808944053948,right,1,0.56911351531744,0.35,,,,,,,,,,,s029,001,2024-08-15_15h14.00.772,simplestop_skeleton,2022.2.2,60.02882971140144,
None,None,,,,,,,,,1,0,1,0,1,1,5,1,,,,,,,,,16155.790440812707,stop,squareblack.png,right,0.35,,,,,,,,,,,,,,,0.0012095198035240173,0.4883907288312912,0.838875986635685,16158.29172797501,test,2,,,,,,,,,,16155.808944053948,16156.32134155184,16156.304566629231,16156.304566629231,16156.65508377552,16157.155614078045,16157.305672124028,16158.309704333544,right,1,0.45787759870290756,0.3,,,,,,,,,,,s029,001,2024-08-15_15h14.00.772,simplestop_skeleton,2022.2.2,60.02882971140144,
$currentCorrectResponse,$currentGoStim,,,,,,,,,1,0,1,0,1,2,6,0,,,,,,,,,16158.292194910347,go,circleblack.png,left,0.3,,,,,,,,,,,,,,,0.0017061904072761536,0.4888575077056885,,16160.794379293919,test,2,,,,,,,,,,16158.309704333544,16158.824196763337,16158.807680226862,16158.807680226862,16159.10768545419,16159.608274415135,16159.808637417853,16160.812151432037,left,1,0.3717278242111206,0.3,,,,,,,,,,,s029,001,2024-08-15_15h14.00.772,simplestop_skeleton,2022.2.2,60.02882971140144,
None,None,,,,,,,,,1,0,1,0,1,3,7,3,,,,,,,,,16160.794812716544,go,squareblack.png,right,0.3,,,,,,,,,,,,,,,0.0015210211277008057,0.4889497756958008,,16163.297344237566,test,2,,,,,,,,,,16160.812151432037,16161.326972439885,16161.310295924544,16161.310295924544,16161.610670611262,16162.111130468547,16162.311954505742,16163.314610339701,right,1,0.6530842930078506,0.3,,,,,,,,,,,s029,001,2024-08-15_15h14.00.772,simplestop_skeleton,2022.2.2,60.02882971140144,
None,None,,,,,,,,,1,0,1,0,2,0,8,3,,,,,,,,,16163.297786578536,stop,circleblack.png,left,0.3,,,,,,,,,,,,,,,0.001649312674999237,0.4891490116715431,0.7894379794597626,16165.800069026649,test,2,,,,,,,,,,16163.314610339701,16163.829757273197,16163.813119888306,16163.813119888306,16164.1133755669,16164.613822981715,16164.814070396125,16165.817266136408,left,1,0.4978294149041176,0.25,,,,,,,,,,,s029,001,2024-08-15_15h14.00.772,simplestop_skeleton,2022.2.2,60.02882971140144,
$currentCorrectResponse,$currentGoStim,,,,,,,,,1,0,1,0,2,1,9,0,,,,,,,,,16165.800515964627,go,circleblack.png,left,0.25,,,,,,,,,,,,,,,0.0012771785259246826,0.48913446068763733,,16168.302653051913,test,2,,,,,,,,,,16165.817266136408,16166.332389831543,16166.315680265427,16166.315680265427,16166.565992362797,16167.066570483148,16167.316805511713,16168.319984607399,left,1,0.5994390621781349,0.25,,,,,,,,,,,s029,001,2024-08-15_15h14.00.772,simplestop_skeleton,2022.2.2,60.02882971140144,
$currentCorrectResponse,$currentGoStim,,,,,,,,,1,0,1,0,2,2,10,0,,,,,,,,,16168.303095377982,stop,squareblack.png,right,0.25,,,,,,,,,,,,,,,0.0015662908554077148,0.48928697407245636,0.7395519986748695,16170.80551418662,test,2,,,,,,,,,,16168.319984607399,16168.835191428661,16168.81847525388,16168.81847525388,16169.068769827485,16169.569375798106,16169.819658383727,16170.82279651612,None,0,,0.3,,,,,,,,,,,s029,001,2024-08-15_15h14.00.772,simplestop_skeleton,2022.2.2,60.02882971140144,
None,None,,,,,,,,,1,0,1,0,2,3,11,3,,,,,,,,,16170.806072480977,stop,circleblack.png,left,0.3,,,,,,,,,,,,,,,0.00167083740234375,0.4889744073152542,0.7894367277622223,16173.308395892382,test,2,,,,,,,,,,16170.82279651612,16171.338116876781,16171.321394398808,16171.321394398808,16171.621702462435,16172.12206478417,16172.322390593588,16173.325560249388,left,1,0.3937361314892769,0.25,,,,,,,,,,,s029,001,2024-08-15_15h14.00.772,simplestop_skeleton,2022.2.2,60.02882971140144,
None,None,,,,,,,,,1,0,1,0,3,0,12,1,,,,,,,,,16173.308893471956,stop,circleblack.png,left,0.25,,,,,,,,,,,,,,,0.0013439655303955078,0.48894543945789337,0.7391201332211494,16175.811166062951,test,2,,,,,,,,,,16173.325560249388,16173.84077116102,16173.82398674637,16173.82398674637,16174.074416339397,16174.574882872403,16174.825131356716,16175.828133612871,None,0,,0.3,,,,,,,,,,,s029,001,2024-08-15_15h14.00.772,simplestop_skeleton,2022.2.2,60.02882971140144,
None,None,,,,,,,,,1,0,1,0,3,1,13,1,,,,,,,,,16175.811616234481,go,circleblack.png,left,0.3,,,,,,,,,,,,,,,0.001256890594959259,0.489033468067646,,16178.313805319369,test,2,,,,,,,,,,16175.828133612871,16176.343453221023,16176.326820723712,16176.326820723712,16176.627225674689,16177.12781304121,16177.327719092369,16178.331128895283,left,1,0.5900909602642059,0.3,,,,,,,,,,,s029,001,2024-08-15_15h14.00.772,simplestop_skeleton,2022.2.2,60.02882971140144,
None,None,,,,,,,,,1,0,1,0,3,2,14,1,,,,,,,,,16178.31429925561,go,circleblack.png,left,0.3,,,,,,,,,,,,,,,0.001253277063369751,0.48882414400577545,,16180.816464819014,test,2,,,,,,,,,,16178.331128895283,16178.846315182745,16178.829564578831,16178.829564578831,16179.12985470146,16179.630300357938,16179.830445632339,16180.833812840283,left,1,0.5566654875874519,0.3,,,,,,,,,,,s029,001,2024-08-15_15h14.00.772,simplestop_skeleton,2022.2.2,60.02882971140144,
None,None,,,,,,,,,1,0,1,0,3,3,15,3,,,,,,,,,16180.81690683961,go,circleblack.png,left,0.3,,,,,,,,,,,,,,,0.0012592300772666931,0.48942046612501144,,16183.31918116659,test,2,,,,,,,,,,16180.833812840283,16181.348963908851,16181.332381106913,16181.332381106913,16181.63280274719,16182.133182905614,16182.333436772227,16183.338325582445,None,0,,0.3,,,,,,,,,,,s029,001,2024-08-15_15h14.00.772,simplestop_skeleton,2022.2.2,60.02882971140144,
None,None,,,,,,,,,1,0,1,0,4,0,16,2,,,,,,,,,16183.319626390934,stop,squareblack.png,right,0.3,,,,,,,,,,,,,,,0.004039257764816284,0.48932965099811554,0.7897835522890091,16185.822308599949,test,2,,,,,,,,,,16183.338325582445,16183.85181658715,16183.835184134543,16183.835184134543,16184.135477527976,16184.63590618968,16184.83617798239,16185.838938094676,right,1,0.5027112886309624,0.25,,,,,,,,,,,s029,001,2024-08-15_15h14.00.772,simplestop_skeleton,2022.2.2,60.02882971140144,
None,None,,,,,,,,,1,0,1,0,4,1,17,2,,,,,,,,,16185.822781719267,stop,squareblack.png,right,0.25,,,,,,,,,,,,,,,0.0011795833706855774,0.4886532798409462,0.7390983551740646,16188.324801407754,test,2,,,,,,,,,,16185.838938094676,16186.354486823082,16186.33792386949,16186.33792386949,16186.5883115381,16187.088740088046,16187.338870458305,16188.342002987862,None,0,,0.3,,,,,,,,,,,s029,001,2024-08-15_15h14.00.772,simplestop_skeleton,2022.2.2,60.02882971140144,
None,None,,,,,,,,,1,0,1,0,4,2,18,3,,,,,,,,,16188.325241185725,go,circleblack.png,left,0.3,,,,,,,,,,,,,,,0.0017113164067268372,0.48908205330371857,,16190.827630199492,test,2,,,,,,,,,,16188.342002987862,16188.857442386448,16188.840646736324,16188.840646736324,16189.14095750451,16189.641485087574,16189.84186720103,16190.845232963562,left,1,0.7289056703448296,0.3,,,,,,,,,,,s029,001,2024-08-15_15h14.00.772,simplestop_skeleton,2022.2.2,60.02882971140144,
None,None,,,,,,,,,1,0,1,0,4,3,19,2,,,,,,,,,16190.828081578016,go,squareblack.png,right,0.3,,,,,,,,,,,,,,,0.0014939531683921814,0.4890224263072014,,16193.330363810062,test,2,,,,,,,,,,16190.845232963562,16191.360038287938,16191.343373969197,16191.343373969197,16191.643686197698,16192.144053444266,16192.344581358135,16193.347587019205,right,1,0.5966120287775993,0.3,,,,,,,,,,,s029,001,2024-08-15_15h14.00.772,simplestop_skeleton,2022.2.2,60.02882971140144,
None,None,,,,,,,,,1,0,1,0,5,0,20,3,,,,,,,,,16193.330820806324,go,squareblack.png,right,0.3,,,,,,,,,,,,,,,0.0012052208185195923,0.48902609199285507,,16195.833199679852,test,2,,,,,,,,,,16193.347587019205,16193.862750403583,16193.846088938415,16193.846088938415,16194.146483771503,16194.646899841726,16194.847210891545,16195.850182168186,right,1,0.5545793399214745,0.3,,,,,,,,,,,s029,001,2024-08-15_15h14.00.772,simplestop_skeleton,2022.2.2,60.02882971140144,
None,None,,,,,,,,,1,0,1,0,5,1,21,1,,,,,,,,,16195.83366393298,stop,circleblack.png,left,0.3,,,,,,,,,,,,,,,0.001766599714756012,0.48920024931430817,0.789472185075283,16198.335782282054,test,2,,,,,,,,,,16195.850182168186,16196.365562610328,16196.348950773478,16196.348950773478,16196.64932771027,16197.150017596781,16197.350064337254,16198.353007778525,None,0,,0.35,,,,,,,,,,,s029,001,2024-08-15_15h14.00.772,simplestop_skeleton,2022.2.2,60.02882971140144,
$currentCorrectResponse,$currentGoStim,,,,,,,,,1,0,1,0,5,2,22,0,,,,,,,,,16198.336231030524,go,squareblack.png,right,0.35,,,,,,,,,,,,,,,0.0015233606100082397,0.48927561193704605,,16200.83866585046,test,2,,,,,,,,,,16198.353007778525,16198.868448264897,16198.85166529566,16198.85166529566,16199.202073566616,16199.702533438802,16199.852680653334,16200.85592212528,right,1,0.6902030110359192,0.35,,,,,,,,,,,s029,001,2024-08-15_15h14.00.772,simplestop_skeleton,2022.2.2,60.02882971140144,
None,None,,,,,,,,,1,0,1,0,5,3,23,1,,,,,,,,,16200.839141085744,go,squareblack.png,right,0.35,,,,,,,,,,,,,,,0.0012040138244628906,0.48897574841976166,,16203.341547362506,test,2,,,,,,,,,,16200.85592212528,16201.371129773557,16201.354455403984,16201.354455403984,16201.70492514968,16202.205280892551,16202.355439089239,16203.359370872378,right,1,0.6784941330552101,0.35,,,,,,,,,,,s029,001,2024-08-15_15h14.00.772,simplestop_skeleton,2022.2.2,60.02882971140144,
None,None,,,,,,,,,1,0,1,0,6,0,24,3,,,,,,,,,16203.341995455325,go,circleblack.png,left,0.35,,,,,,,,,,,,,,,0.001698814332485199,0.4889213740825653,,16205.844182893634,test,2,,,,,,,,,,16203.359370872378,16203.873868472874,16203.857274025679,16203.857274025679,16204.207572348416,16204.70831374824,16204.858383901417,16205.861284278333,left,1,0.5913739651441574,0.35,,,,,,,,,,,s029,001,2024-08-15_15h14.00.772,simplestop_skeleton,2022.2.2,60.02882971140144,
None,None,,,,,,,,,1,0,1,0,6,1,25,1,,,,,,,,,16205.844663754106,go,circleblack.png,left,0.35,,,,,,,,,,,,,,,0.001340426504611969,0.48899466544389725,,16208.347009681165,test,2,,,,,,,,,,16205.861284278333,16206.376720577478,16206.36002560705,16206.36002560705,16206.71043317765,16207.210993528366,16207.360909834504,16208.364001639187,left,1,0.5194463655352592,0.35,,,,,,,,,,,s029,001,2024-08-15_15h14.00.772,simplestop_skeleton,2022.2.2,60.02882971140144,
None,None,,,,,,,,,1,0,1,0,6,2,26,1,,,,,,,,,16208.347507469356,stop,circleblack.png,left,0.35,,,,,,,,,,,,,,,0.001253284513950348,0.4890148937702179,0.8393221572041512,16210.849704690278,test,2,,,,,,,,,,16208.364001639187,16208.879391141236,16208.862781509757,16208.862781509757,16209.213158875704,16209.713561974466,16209.863672554493,16210.866884119809,left,1,0.40801238268613815,0.3,,,,,,,,,,,s029,001,2024-08-15_15h14.00.772,simplestop_skeleton,2022.2.2,60.02882971140144,
None,None,,,,,,,,,1,0,1,0,6,3,27,2,,,,,,,,,16210.850160710514,go,squareblack.png,right,0.3,,,,,,,,,,,,,,,0.0015499070286750793,0.4891057386994362,,16213.352262973785,test,2,,,,,,,,,,16210.866884119809,16211.38216535002,16211.365411020815,16211.365411020815,16211.665865898132,16212.166356228292,16212.366706192493,16213.369926393032,right,1,0.6087379530072212,0.3,,,,,,,,,,,s029,001,2024-08-15_15h14.00.772,simplestop_skeleton,2022.2.2,60.02882971140144,
None,None,,,,,,,,,1,0,1,0,7,0,28,2,,,,,,,,,16213.352711252868,go,squareblack.png,right,0.3,,,,,,,,,,,,,,,0.0013628527522087097,0.48873210698366165,,16215.855179838836,test,2,,,,,,,,,,16213.369926393032,16213.884948536754,16213.86836130172,16213.86836130172,16214.168641597033,16214.669133618474,16214.86938868463,16215.872329473495,right,1,0.5960333347320557,0.3,,,,,,,,,,,s029,001,2024-08-15_15h14.00.772,simplestop_skeleton,2022.2.2,60.02882971140144,
None,None,,,,,,,,,1,0,1,0,7,1,29,2,,,,,,,,,16215.855631269515,go,squareblack.png,right,0.3,,,,,,,,,,,,,,,0.0013071894645690918,0.4890018552541733,,16218.357879042625,test,2,,,,,,,,,,16215.872329473495,16216.387728370726,16216.37087649107,16216.37087649107,16216.671329632401,16217.171801052988,16217.37193517387,16218.3754632622,right,1,0.5709176436066628,0.3,,,,,,,,,,,s029,001,2024-08-15_15h14.00.772,simplestop_skeleton,2022.2.2,60.02882971140144,
None,None,,,,,,,,,1,0,1,0,7,2,30,3,,,,,,,,,16218.358334869146,go,circleblack.png,left,0.3,,,,,,,,,,,,,,,0.0017222240567207336,0.4894074350595474,,16220.860724560916,test,2,,,,,,,,,,16218.3754632622,16218.890450656414,16218.873849652708,16218.873849652708,16219.174210131168,16219.67474732548,16219.874814875424,16220.878301627934,left,1,0.5969242081046104,0.3,,,,,,,,,,,s029,001,2024-08-15_15h14.00.772,simplestop_skeleton,2022.2.2,60.02882971140144,
None,None,,,,,,,,,1,0,1,0,7,3,31,1,,,,,,,,,16220.861176654696,stop,squareblack.png,right,0.3,,,,,,,,,,,,,,,0.0015154778957366943,0.48884354531764984,0.7893480807542801,16223.363867878914,test,2,,,,,,,,,,16220.878301627934,16221.39326979965,16221.376556150615,16221.376556150615,16221.676699072123,16222.177508123219,16222.37753714621,16223.380821958184,right,1,0.4643600061535835,0.25,,,,,,,,,,,s029,001,2024-08-15_15h14.00.772,simplestop_skeleton,2022.2.2,60.02882971140144,
None,None,,,,,,,,,1,0,1,0,8,0,32,1,,,,,,,,,16223.364342689514,go,squareblack.png,right,0.25,,,,,,,,,,,,,,,0.0012056753039360046,0.48870115727186203,,16225.86628369242,test,2,,,,,,,,,,16223.380821958184,16223.895931199193,16223.879345715046,16223.879345715046,16224.129558958113,16224.63020016998,16224.88055575639,16225.883510582149,right,1,0.5954738184809685,0.25,,,,,,,,,,,s029,001,2024-08-15_15h14.00.772,simplestop_skeleton,2022.2.2,60.02882971140144,
$currentCorrectResponse,$currentGoStim,,,,,,,,,1,0,1,0,8,1,33,0,,,,,,,,,16225.866886220872,stop,squareblack.png,right,0.25,,,,,,,,,,,,,,,0.0012404024600982666,0.48896457254886627,0.7391966879367828,16228.369055978954,test,2,,,,,,,,,,16225.883510582149,16226.398623555899,16226.381923295557,16226.381923295557,16226.632465302944,16227.132882103324,16227.382963553071,16228.386574409902,None,0,,0.3,,,,,,,,,,,s029,001,2024-08-15_15h14.00.772,simplestop_skeleton,2022.2.2,60.02882971140144,
None,None,,,,,,,,,1,0,1,0,8,2,34,1,,,,,,,,,16228.369485490024,stop,circleblack.png,left,0.3,,,,,,,,,,,,,,,0.0018140822649002075,0.4892466440796852,0.7895840853452682,16230.871980212629,test,2,,,,,,,,,,16228.386574409902,16228.901364989579,16228.884681232274,16228.884681232274,16229.185117468238,16229.68608418852,16229.885705329478,16230.88902489096,left,1,0.4057365208864212,0.25,,,,,,,,,,,s029,001,2024-08-15_15h14.00.772,simplestop_skeleton,2022.2.2,60.02882971140144,
None,None,,,,,,,,,1,0,1,0,8,3,35,3,,,,,,,,,16230.872423611581,go,circleblack.png,left,0.25,,,,,,,,,,,,,,,0.0012432858347892761,0.4888087064027786,,16233.374487809837,test,2,,,,,,,,,,16230.88902489096,16231.404238253832,16231.387563951313,16231.387563951313,16231.637739270926,16232.138606108725,16232.388576976955,16233.392112106085,left,1,0.7348916903138161,0.25,,,,,,,,,,,s029,001,2024-08-15_15h14.00.772,simplestop_skeleton,2022.2.2,60.02882971140144,
None,None,,,,,,,,,1,0,1,0,9,0,36,3,,,,,,,,,16233.37494520843,stop,circleblack.png,left,0.25,,,,,,,,,,,,,,,0.0013579726219177246,0.48914893716573715,0.7392039746046066,16235.877360872924,test,2,,,,,,,,,,16233.392112106085,16233.906937800348,16233.890357218683,16233.890357218683,16234.140704736114,16234.641174316406,16234.891348011792,16235.894366756082,None,0,,0.3,,,,,,,,,,,s029,001,2024-08-15_15h14.00.772,simplestop_skeleton,2022.2.2,60.02882971140144,
None,None,,,,,,,,,1,0,1,0,9,1,37,2,,,,,,,,,16235.87785936147,go,circleblack.png,left,0.3,,,,,,,,,,,,,,,0.0012543052434921265,0.4891233667731285,,16238.379971258342,test,2,,,,,,,,,,16235.894366756082,16236.409791566432,16236.39313352108,16236.39313352108,16236.693594098091,16237.193859651685,16237.394060611725,16238.402248740196,left,1,0.5133784338831902,0.3,,,,,,,,,,,s029,001,2024-08-15_15h14.00.772,simplestop_skeleton,2022.2.2,60.02882971140144,
$currentCorrectResponse,$currentGoStim,,,,,,,,,1,0,1,0,9,2,38,0,,,,,,,,,16238.380416296422,stop,squareblack.png,right,0.3,,,,,,,,,,,,,,,0.007477611303329468,0.48885366320610046,0.7892107218503952,16240.882931783795,test,2,,,,,,,,,,16238.402248740196,16238.912605240941,16238.895875617862,16238.895875617862,16239.196336843073,16239.696931526065,16239.896931946278,16240.900909431279,right,1,0.4696885868906975,0.25,,,,,,,,,,,s029,001,2024-08-15_15h14.00.772,simplestop_skeleton,2022.2.2,60.02882971140144,
None,None,,,,,,,,,1,0,1,0,9,3,39,2,,,,,,,,,16240.883418664336,go,circleblack.png,left,0.25,,,,,,,,,,,,,,,0.0016190707683563232,0.488931342959404,,16243.385554812849,test,2,,,,,,,,,,16240.900909431279,16241.415330156684,16241.398554645479,16241.398554645479,16241.648912347853,16242.149343185127,16242.399606868625,16243.40273553133,left,1,0.4464275687932968,0.25,,,,,,,,,,,s029,001,2024-08-15_15h14.00.772,simplestop_skeleton,2022.2.2,60.02882971140144,
None,None,,,,,,,,,1,0,1,0,10,0,40,2,,,,,,,,,16243.385985225439,go,circleblack.png,left,0.25,,,,,,,,,,,,,,,0.0012728124856948853,0.4892336055636406,,16245.888224631548,test,2,,,,,,,,,,16243.40273553133,16243.91811787337,16243.901407122612,16243.901407122612,16244.151683226228,16244.652107231319,16244.902358107269,16245.91072293371,left,1,0.486125610768795,0.25,,,,,,,,,,,s029,001,2024-08-15_15h14.00.772,simplestop_skeleton,2022.2.2,60.02882971140144,
$currentCorrectResponse,$currentGoStim,,,,,,,,,1,0,1,0,10,1,41,0,,,,,,,,,16245.888699427247,go,squareblack.png,right,0.25,,,,,,,,,,,,,,,0.007313303649425507,0.4891647696495056,,16248.39112971723,test,2,,,,,,,,,,16245.91072293371,16246.420787893236,16246.404177814722,16246.404177814722,16246.654569111764,16247.155005283654,16247.40523840487,16248.408319860697,right,1,0.9367607086896896,0.25,,,,,,,,,,,s029,001,2024-08-15_15h14.00.772,simplestop_skeleton,2022.2.2,60.02882971140144,
None,None,,,,,,,,,1,0,1,0,10,2,42,1,,,,,,,,,16248.391571626067,stop,squareblack.png,right,0.25,,,,,,,,,,,,,,,0.0011951923370361328,0.4889004975557327,0.7390544265508652,16250.893868520856,test,2,,,,,,,,,,16248.408319860697,16248.923588559031,16248.907055802643,16248.907055802643,16249.157043002546,16249.657629333436,16249.907930977643,16250.911655522883,None,0,,0.3,,,,,,,,,,,s029,001,2024-08-15_15h14.00.772,simplestop_skeleton,2022.2.2,60.02882971140144,
None,None,,,,,,,,,1,0,1,0,10,3,43,2,,,,,,,,,16250.894301101565,go,circleblack.png,left,0.3,,,,,,,,,,,,,,,0.0017264485359191895,0.4891107678413391,,16253.396437563002,test,2,,,,,,,,,,16250.911655522883,16251.426407851279,16251.409764707088,16251.409764707088,16251.710261791945,16252.210597351193,16252.410726465285,16253.413842603564,left,1,0.2872161567211151,0.3,,,,,,,,,,,s029,001,2024-08-15_15h14.00.772,simplestop_skeleton,2022.2.2,60.02882971140144,
None,None,,,,,,,,,1,0,1,0,11,0,44,3,,,,,,,,,16253.39687153697,go,squareblack.png,right,0.3,,,,,,,,,,,,,,,0.0015201494097709656,0.4892074540257454,,16255.899409756064,test,2,,,,,,,,,,16253.413842603564,16253.929146438837,16253.912450894713,16253.912450894713,16254.212838076055,16254.713214345276,16254.913455024362,16255.916265904903,right,1,0.5479300990700722,0.3,,,,,,,,,,,s029,001,2024-08-15_15h14.00.772,simplestop_skeleton,2022.2.2,60.02882971140144,
None,None,,,,,,,,,1,0,1,0,11,1,45,2,,,,,,,,,16255.899851821363,go,squareblack.png,right,0.3,,,,,,,,,,,,,,,0.0012451186776161194,0.4888347387313843,,16258.40209940821,test,2,,,,,,,,,,16255.916265904903,16256.431908361614,16256.41517072916,16256.41517072916,16256.715595118701,16257.215994291008,16257.4162870422,16258.419519521296,right,1,0.6499041244387627,0.3,,,,,,,,,,,s029,001,2024-08-15_15h14.00.772,simplestop_skeleton,2022.2.2,60.02882971140144,
None,None,,,,,,,,,1,0,1,0,11,2,46,2,,,,,,,,,16258.40253020823,stop,circleblack.png,left,0.3,,,,,,,,,,,,,,,0.0017316043376922607,0.4891670048236847,0.7893987074494362,16260.90503513068,test,2,,,,,,,,,,16258.419519521296,16258.934599749744,16258.918036743999,16258.918036743999,16259.218354053795,16259.7187256068,16259.91902499646,16260.922422654927,left,1,0.3256841450929642,0.25,,,,,,,,,,,s029,001,2024-08-15_15h14.00.772,simplestop_skeleton,2022.2.2,60.02882971140144,
None,None,,,,,,,,,1,0,1,0,11,3,47,3,,,,,,,,,16260.905505500734,go,squareblack.png,right,0.25,,,,,,,,,,,,,,,0.0014875978231430054,0.48901956528425217,,16263.407682180405,test,2,,,,,,,,,,16260.922422654927,16261.43799380213,16261.42086097598,16261.42086097598,16261.67092885077,16262.171423576772,16262.421764448285,16263.42313670367,right,1,0.5950754135847092,0.25,,,,,,,,,,,s029,001,2024-08-15_15h14.00.772,simplestop_skeleton,2022.2.2,60.02882971140144,
,,,,,,,,,,1,0,1,0,,,,,,,,,,,,,,,,,,,,,,,,,,,,,,,,,,,,,,,,,,,,,,,,,,,,,,,,,,,16263.42313670367,16263.42313670367,return,2.287555046379566,"[{'fileName': 'squareblack.png', 'correct_response': 'right', 'condition': 'go'}, {'fileName': 'squareblack.png', 'correct_response': 'right', 'condition': 'stop'}, {'fileName': 'circleblack.png', 'correct_response': 'left', 'condition': 'stop'}, {'fileName': 'circleblack.png', 'correct_response': 'left', 'condition': 'stop'}, {'fileName': 'squareblack.png', 'correct_response': 'right', 'condition': 'stop'}, {'fileName': 'circleblack.png', 'correct_response': 'left', 'condition': 'go'}, {'fileName': 'circleblack.png', 'correct_response': 'left', 'condition': 'go'}, {'fileName': 'squareblack.png', 'correct_response': 'right', 'condition': 'go'}, {'fileName': 'squareblack.png', 'correct_response': 'right', 'condition': 'go'}, {'fileName': 'circleblack.png', 'correct_response': 'left', 'condition': 'go'}, {'fileName': 'squareblack.png', 'correct_response': 'right', 'condition': 'go'}, {'fileName': 'circleblack.png', 'correct_response': 'left', 'condition': 'go'}, {'fileName': 'squareblack.png', 'correct_response': 'right', 'condition': 'go'}, {'fileName': 'circleblack.png', 'correct_response': 'left', 'condition': 'go'}, {'fileName': 'squareblack.png', 'correct_response': 'right', 'condition': 'go'}, {'fileName': 'squareblack.png', 'correct_response': 'right', 'condition': 'stop'}, {'fileName': 'circleblack.png', 'correct_response': 'left', 'condition': 'go'}, {'fileName': 'squareblack.png', 'correct_response': 'right', 'condition': 'go'}, {'fileName': 'squareblack.png', 'correct_response': 'right', 'condition': 'stop'}, {'fileName': 'squareblack.png', 'correct_response': 'right', 'condition': 'go'}, {'fileName': 'circleblack.png', 'correct_response': 'left', 'condition': 'stop'}, {'fileName': 'circleblack.png', 'correct_response': 'left', 'condition': 'stop'}, {'fileName': 'circleblack.png', 'correct_response': 'left', 'condition': 'go'}, {'fileName': 'circleblack.png', 'correct_response': 'left', 'condition': 'go'}, {'fileName': 'squareblack.png', 'correct_response': 'right', 'condition': 'go'}, {'fileName': 'squareblack.png', 'correct_response': 'right', 'condition': 'stop'}, {'fileName': 'circleblack.png', 'correct_response': 'left', 'condition': 'stop'}, {'fileName': 'circleblack.png', 'correct_response': 'left', 'condition': 'stop'}, {'fileName': 'circleblack.png', 'correct_response': 'left', 'condition': 'go'}, {'fileName': 'circleblack.png', 'correct_response': 'left', 'condition': 'go'}, {'fileName': 'squareblack.png', 'correct_response': 'right', 'condition': 'stop'}, {'fileName': 'circleblack.png', 'correct_response': 'left', 'condition': 'go'}, {'fileName': 'squareblack.png', 'correct_response': 'right', 'condition': 'go'}, {'fileName': 'circleblack.png', 'correct_response': 'left', 'condition': 'go'}, {'fileName': 'squareblack.png', 'correct_response': 'right', 'condition': 'go'}, {'fileName': 'squareblack.png', 'correct_response': 'right', 'condition': 'go'}, {'fileName': 'circleblack.png', 'correct_response': 'left', 'condition': 'go'}, {'fileName': 'squareblack.png', 'correct_response': 'right', 'condition': 'go'}, {'fileName': 'squareblack.png', 'correct_response': 'right', 'condition': 'stop'}, {'fileName': 'circleblack.png', 'correct_response': 'left', 'condition': 'go'}, {'fileName': 'circleblack.png', 'correct_response': 'left', 'condition': 'stop'}, {'fileName': 'squareblack.png', 'correct_response': 'right', 'condition': 'go'}, {'fileName': 'squareblack.png', 'correct_response': 'right', 'condition': 'go'}, {'fileName': 'circleblack.png', 'correct_response': 'left', 'condition': 'go'}, {'fileName': 'circleblack.png', 'correct_response': 'left', 'condition': 'go'}, {'fileName': 'circleblack.png', 'correct_response': 'left', 'condition': 'stop'}, {'fileName': 'squareblack.png', 'correct_response': 'right', 'condition': 'stop'}, {'fileName': 'squareblack.png', 'correct_response': 'right', 'condition': 'go'}]",,,,,,s029,001,2024-08-15_15h14.00.772,simplestop_skeleton,2022.2.2,60.02882971140144,
None,None,,,,,,,,,2,0,2,0,0,0,0,1,,,,,,,,,16265.743211828172,go,squareblack.png,right,0.25,,,,,,,,,,,,,,,0.001259639859199524,0.4890325888991356,,16268.246470399201,test,3,,,,,,,,,,16265.760947607458,16266.276005014777,16266.259332157671,16266.259332157671,16266.509549051523,16267.010585650802,16267.26045742631,16268.2635506168,right,1,0.7470509111881256,0.25,,,,,,,,,,,s029,001,2024-08-15_15h14.00.772,simplestop_skeleton,2022.2.2,60.02882971140144,
None,None,,,,,,,,,2,0,2,0,0,1,1,3,,,,,,,,,16268.247016973794,stop,squareblack.png,right,0.25,,,,,,,,,,,,,,,0.0012034252285957336,0.48882313817739487,0.7391283586621284,16270.749387547374,test,3,,,,,,,,,,16268.2635506168,16268.778862260282,16268.762189149857,16268.762189149857,16269.012428447604,16269.512799322605,16269.763182088733,16270.771757721901,right,1,0.4625708907842636,0.2,,,,,,,,,,,s029,001,2024-08-15_15h14.00.772,simplestop_skeleton,2022.2.2,60.02882971140144,
None,None,,,,,,,,,2,0,2,0,0,2,2,1,,,,,,,,,16270.749848008156,stop,circleblack.png,left,0.2,,,,,,,,,,,,,,,0.007595263421535492,0.4888046681880951,0.6890600323677063,16273.251953028142,test,3,,,,,,,,,,16270.771757721901,16271.281629741192,16271.264938890934,16271.264938890934,16271.465237520635,16271.965663351119,16272.266055479646,16273.26905451715,left,1,0.2924499660730362,0.15,,,,,,,,,,,s029,001,2024-08-15_15h14.00.772,simplestop_skeleton,2022.2.2,60.02882971140144,
None,None,,,,,,,,,2,0,2,0,0,3,3,3,,,,,,,,,16273.252406485379,stop,circleblack.png,left,0.15,,,,,,,,,,,,,,,0.001267462968826294,0.48894568532705307,0.639311820268631,16275.754659235477,test,3,,,,,,,,,,16273.26905451715,16273.78440567851,16273.767612956464,16273.767612956464,16273.917810089886,16274.418556533754,16274.768805108964,16275.771937184036,None,0,,0.2,,,,,,,,,,,s029,001,2024-08-15_15h14.00.772,simplestop_skeleton,2022.2.2,60.02882971140144,
None,None,,,,,,,,,2,0,2,0,1,0,4,3,,,,,,,,,16275.755123227835,stop,squareblack.png,right,0.2,,,,,,,,,,,,,,,0.001502402126789093,0.4892260804772377,0.6893550455570221,16278.257605478168,test,3,,,,,,,,,,16275.771937184036,16276.287040449679,16276.270539321005,16276.270539321005,16276.470555566251,16276.971094712615,16277.271538749337,16278.274860419333,None,0,,0.25,,,,,,,,,,,s029,001,2024-08-15_15h14.00.772,simplestop_skeleton,2022.2.2,60.02882971140144,
$currentCorrectResponse,$currentGoStim,,,,,,,,,2,0,2,0,1,1,5,0,,,,,,,,,16278.258089408278,go,circleblack.png,left,0.25,,,,,,,,,,,,,,,0.0015996918082237244,0.489058755338192,,16280.76007156074,test,3,,,,,,,,,,16278.274860419333,16278.789846479893,16278.773120492697,16278.773120492697,16279.023523688316,16279.523921579123,16279.774218633771,16280.777414187789,left,1,0.4835575744509697,0.25,,,,,,,,,,,s029,001,2024-08-15_15h14.00.772,simplestop_skeleton,2022.2.2,60.02882971140144,
None,None,,,,,,,,,2,0,2,0,1,2,6,3,,,,,,,,,16280.760544113815,go,circleblack.png,left,0.25,,,,,,,,,,,,,,,0.001404598355293274,0.48902569711208344,,16283.263023212552,test,3,,,,,,,,,,16280.777414187789,16281.292637936771,16281.275997921824,16281.275997921824,16281.5262908414,16282.026597589254,16282.276937372983,16283.28128260374,left,1,0.5023826435208321,0.25,,,,,,,,,,,s029,001,2024-08-15_15h14.00.772,simplestop_skeleton,2022.2.2,60.02882971140144,
None,None,,,,,,,,,2,0,2,0,1,3,7,1,,,,,,,,,16283.263463884592,go,squareblack.png,right,0.25,,,,,,,,,,,,,,,0.0017358362674713135,0.4886878877878189,,16285.765641734004,test,3,,,,,,,,,,16283.28128260374,16283.795393392444,16283.77873263508,16283.77873263508,16284.02911991626,16284.529383391142,16284.779714770615,16285.782520793378,right,1,0.5215930715203285,0.25,,,,,,,,,,,s029,001,2024-08-15_15h14.00.772,simplestop_skeleton,2022.2.2,60.02882971140144,
None,None,,,,,,,,,2,0,2,0,2,0,8,1,,,,,,,,,16285.766088090837,go,squareblack.png,right,0.25,,,,,,,,,,,,,,,0.0012482553720474243,0.4892782047390938,,16288.268468774855,test,3,,,,,,,,,,16285.782520793378,16286.298205137253,16286.281471952796,16286.281471952796,16286.53189611435,16287.032227352262,16287.282437197864,16288.286070227623,right,1,0.5186547264456749,0.25,,,,,,,,,,,s029,001,2024-08-15_15h14.00.772,simplestop_skeleton,2022.2.2,60.02882971140144,
$currentCorrectResponse,$currentGoStim,,,,,,,,,2,0,2,0,2,1,9,0,,,,,,,,,16288.268955171108,go,circleblack.png,left,0.25,,,,,,,,,,,,,,,0.0016534775495529175,0.4889034330844879,,16290.771135129035,test,3,,,,,,,,,,16288.286070227623,16288.801102526486,16288.784198537469,16288.784198537469,16289.03452987969,16289.534965962172,16289.785249881446,16290.788744419813,left,1,0.47718458622694016,0.25,,,,,,,,,,,s029,001,2024-08-15_15h14.00.772,simplestop_skeleton,2022.2.2,60.02882971140144,
None,None,,,,,,,,,2,0,2,0,2,2,10,2,,,,,,,,,16290.771577194333,go,squareblack.png,right,0.25,,,,,,,,,,,,,,,0.0015423670411109924,0.4892035722732544,,16293.273796103895,test,3,,,,,,,,,,16290.788744419813,16291.303862303495,16291.286945141852,16291.286945141852,16291.537140481174,16292.03768144548,16292.288030050695,16293.291233927011,right,1,0.46454136073589325,0.25,,,,,,,,,,,s029,001,2024-08-15_15h14.00.772,simplestop_skeleton,2022.2.2,60.02882971140144,
None,None,,,,,,,,,2,0,2,0,2,3,11,1,,,,,,,,,16293.274233780801,go,circleblack.png,left,0.25,,,,,,,,,,,,,,,0.0016110166907310486,0.4892749786376953,,16295.777032904327,test,3,,,,,,,,,,16293.291233927011,16293.806433044374,16293.789742000401,16293.789742000401,16294.040045000613,16294.540449500084,16294.790896557271,16295.794239744544,left,1,0.4311816692352295,0.25,,,,,,,,,,,s029,001,2024-08-15_15h14.00.772,simplestop_skeleton,2022.2.2,60.02882971140144,
$currentCorrectResponse,$currentGoStim,,,,,,,,,2,0,2,0,3,0,12,0,,,,,,,,,16295.7774592489,go,squareblack.png,right,0.25,,,,,,,,,,,,,,,0.001527935266494751,0.48867306113243103,,16298.27946843952,test,3,,,,,,,,,,16295.794239744544,16296.309347681701,16296.292479828,16296.292479828,16296.542717523873,16297.043196454644,16297.293550916016,16298.296710215509,right,1,0.5017495155334473,0.25,,,,,,,,,,,s029,001,2024-08-15_15h14.00.772,simplestop_skeleton,2022.2.2,60.02882971140144,
$currentCorrectResponse,$currentGoStim,,,,,,,,,2,0,2,0,3,1,13,0,,,,,,,,,16298.279911614954,go,circleblack.png,left,0.25,,,,,,,,,,,,,,,0.0016528517007827759,0.48896776884794235,,16300.782224908471,test,3,,,,,,,,,,16298.296710215509,16298.811938010156,16298.795344665647,16298.795344665647,16299.045519798994,16299.545991152525,16299.796181231737,16300.799668125808,left,1,0.4989650994539261,0.25,,,,,,,,,,,s029,001,2024-08-15_15h14.00.772,simplestop_skeleton,2022.2.2,60.02882971140144,
None,None,,,,,,,,,2,0,2,0,3,2,14,2,,,,,,,,,16300.782711006701,go,squareblack.png,right,0.25,,,,,,,,,,,,,,,0.0015223845839500427,0.4889657646417618,,16303.284971795976,test,3,,,,,,,,,,16300.799668125808,16301.314841859043,16301.29800619185,16301.29800619185,16301.548287145793,16302.048717163503,16302.299007296562,16303.302240125835,right,1,0.44281358271837234,0.25,,,,,,,,,,,s029,001,2024-08-15_15h14.00.772,simplestop_skeleton,2022.2.2,60.02882971140144,
None,None,,,,,,,,,2,0,2,0,3,3,15,1,,,,,,,,,16303.285435140133,stop,squareblack.png,right,0.25,,,,,,,,,,,,,,,0.0011521205306053162,0.4890202432870865,0.7393899038434029,16305.787733659148,test,3,,,,,,,,,,16303.302240125835,16303.817478746176,16303.800730653107,16303.800730653107,16304.051111906767,16304.551425978541,16304.801993578672,16305.805433116853,right,1,0.40008312463760376,0.2,,,,,,,,,,,s029,001,2024-08-15_15h14.00.772,simplestop_skeleton,2022.2.2,60.02882971140144,
None,None,,,,,,,,,2,0,2,0,4,0,16,2,,,,,,,,,16305.788161091506,go,circleblack.png,left,0.2,,,,,,,,,,,,,,,0.0017072707414627075,0.48907822370529175,,16308.290642485023,test,3,,,,,,,,,,16305.805433116853,16306.320373557508,16306.303590148687,16306.303590148687,16306.503758579493,16307.004241608083,16307.304501965642,16308.308002538979,left,1,0.37988829612731934,0.2,,,,,,,,,,,s029,001,2024-08-15_15h14.00.772,simplestop_skeleton,2022.2.2,60.02882971140144,
None,None,,,,,,,,,2,0,2,0,4,1,17,2,,,,,,,,,16308.291126906872,go,squareblack.png,right,0.2,,,,,,,,,,,,,,,0.0014961883425712585,0.4891757667064667,,16310.79318561405,test,3,,,,,,,,,,16308.308002538979,16308.822891458869,16308.806273728609,16308.806273728609,16309.006423942745,16309.506970062852,16309.807511024177,16310.810616336763,right,1,0.5664839372038841,0.2,,,,,,,,,,,s029,001,2024-08-15_15h14.00.772,simplestop_skeleton,2022.2.2,60.02882971140144,
None,None,,,,,,,,,2,0,2,0,4,2,18,1,,,,,,,,,16310.793617025018,stop,squareblack.png,right,0.2,,,,,,,,,,,,,,,0.0012073442339897156,0.48910363018512726,0.6894319728016853,16313.296705134213,test,3,,,,,,,,,,16310.810616336763,16311.32584863156,16311.309090606868,16311.309090606868,16311.50931033492,16312.009824834764,16312.310245200992,16313.313839174807,None,0,,0.25,,,,,,,,,,,s029,001,2024-08-15_15h14.00.772,simplestop_skeleton,2022.2.2,60.02882971140144,
None,None,,,,,,,,,2,0,2,0,4,3,19,1,,,,,,,,,16313.29714230448,go,squareblack.png,right,0.25,,,,,,,,,,,,,,,0.0012379959225654602,0.48834480345249176,,16315.798782996833,test,3,,,,,,,,,,16313.313839174807,16313.828492127359,16313.811872243881,16313.811872243881,16314.062147960067,16314.562487199903,16314.813289299607,16315.816384032369,right,1,0.6032345816493034,0.25,,,,,,,,,,,s029,001,2024-08-15_15h14.00.772,simplestop_skeleton,2022.2.2,60.02882971140144,
None,None,,,,,,,,,2,0,2,0,5,0,20,2,,,,,,,,,16315.799237385392,stop,circleblack.png,left,0.25,,,,,,,,,,,,,,,0.0016770213842391968,0.48915089666843414,0.739443801343441,16318.301662251353,test,3,,,,,,,,,,16315.816384032369,16316.331204280257,16316.314592316747,16316.314592316747,16316.564953766763,16317.065340794623,16317.315910696983,16318.319062888622,None,0,,0.3,,,,,,,,,,,s029,001,2024-08-15_15h14.00.772,simplestop_skeleton,2022.2.2,60.02882971140144,
None,None,,,,,,,,,2,0,2,0,5,1,21,3,,,,,,,,,16318.302103966475,stop,circleblack.png,left,0.3,,,,,,,,,,,,,,,0.0012707188725471497,0.48887286335229874,0.7892824113368988,16320.804327562451,test,3,,,,,,,,,,16318.319062888622,16318.834095723927,16318.817253939807,16318.817253939807,16319.117743328214,16319.618613183498,16319.818318210542,16320.821523606777,left,1,0.39718540012836456,0.25,,,,,,,,,,,s029,001,2024-08-15_15h14.00.772,simplestop_skeleton,2022.2.2,60.02882971140144,
None,None,,,,,,,,,2,0,2,0,5,2,22,1,,,,,,,,,16320.804762750864,go,circleblack.png,left,0.25,,,,,,,,,,,,,,,0.001261398196220398,0.4891326576471329,,16323.307031676173,test,3,,,,,,,,,,16320.821523606777,16321.33684232831,16321.32009407878,16321.32009407878,16321.570388235152,16322.070802472532,16322.32109477371,16323.323855489492,left,1,0.5054754018783569,0.25,,,,,,,,,,,s029,001,2024-08-15_15h14.00.772,simplestop_skeleton,2022.2.2,60.02882971140144,
None,None,,,,,,,,,2,0,2,0,5,3,23,1,,,,,,,,,16323.307478517294,go,circleblack.png,left,0.25,,,,,,,,,,,,,,,0.0013095512986183167,0.48898879438638687,,16325.809970587492,test,3,,,,,,,,,,16323.323855489492,16323.839643888175,16323.822771839797,16323.822771839797,16324.07305316627,16324.573642656207,16324.823897384107,16325.832147292793,left,1,0.5325723811984062,0.25,,,,,,,,,,,s029,001,2024-08-15_15h14.00.772,simplestop_skeleton,2022.2.2,60.02882971140144,
$currentCorrectResponse,$currentGoStim,,,,,,,,,2,0,2,0,6,0,24,0,,,,,,,,,16325.81041675061,go,squareblack.png,right,0.25,,,,,,,,,,,,,,,0.006953857839107513,0.4890032187104225,,16328.312709651887,test,3,,,,,,,,,,16325.832147292793,16326.342464335263,16326.32558786869,16326.32558786869,16326.576015539467,16327.076347984374,16327.326877616346,16328.329969331622,right,1,0.6198030412197113,0.25,,,,,,,,,,,s029,001,2024-08-15_15h14.00.772,simplestop_skeleton,2022.2.2,60.02882971140144,
$currentCorrectResponse,$currentGoStim,,,,,,,,,2,0,2,0,6,1,25,0,,,,,,,,,16328.313184790313,stop,squareblack.png,right,0.25,,,,,,,,,,,,,,,0.0012088268995285034,0.488942451775074,0.7393026202917099,16330.815412335098,test,3,,,,,,,,,,16328.329969331622,16328.844989791512,16328.828349292278,16328.828349292278,16329.078588359058,16329.579113461077,16329.829568736255,16330.832460358739,None,0,,0.3,,,,,,,,,,,s029,001,2024-08-15_15h14.00.772,simplestop_skeleton,2022.2.2,60.02882971140144,
None,None,,,,,,,,,2,0,2,0,6,2,26,2,,,,,,,,,16330.815859608352,stop,circleblack.png,left,0.3,,,,,,,,,,,,,,,0.0016671493649482727,0.48917318880558014,0.789491593837738,16333.318205408752,test,3,,,,,,,,,,16330.832460358739,16331.347840584815,16331.331148430705,16331.331148430705,16331.631436184049,16332.13195182383,16332.332190066576,16333.33544356376,left,1,0.3753640577197075,0.25,,,,,,,,,,,s029,001,2024-08-15_15h14.00.772,simplestop_skeleton,2022.2.2,60.02882971140144,
$currentCorrectResponse,$currentGoStim,,,,,,,,,2,0,2,0,6,3,27,0,,,,,,,,,16333.318768464029,stop,circleblack.png,left,0.25,,,,,,,,,,,,,,,0.0012184903025627136,0.4889405816793442,0.7391574904322624,16335.820936746895,test,3,,,,,,,,,,16333.33544356376,16333.85064034909,16333.834005244076,16333.834005244076,16334.08434779942,16334.584696002305,16334.83499186486,16335.838332772255,None,0,,0.3,,,,,,,,,,,s029,001,2024-08-15_15h14.00.772,simplestop_skeleton,2022.2.2,60.02882971140144,
$currentCorrectResponse,$currentGoStim,,,,,,,,,2,0,2,0,7,0,28,0,,,,,,,,,16335.821401536465,go,circleblack.png,left,0.3,,,,,,,,,,,,,,,0.0013609305024147034,0.4889422878623009,,16338.32370685786,test,3,,,,,,,,,,16335.838332772255,16336.353440187871,16336.336598947644,16336.336598947644,16336.637115858495,16337.137422703207,16337.337744943798,16338.340827479959,left,1,0.5493602752685547,0.3,,,,,,,,,,,s029,001,2024-08-15_15h14.00.772,simplestop_skeleton,2022.2.2,60.02882971140144,
None,None,,,,,,,,,2,0,2,0,7,1,29,3,,,,,,,,,16338.324176624417,go,circleblack.png,left,0.3,,,,,,,,,,,,,,,0.0012537464499473572,0.4888547360897064,,16340.826515167952,test,3,,,,,,,,,,16338.340827479959,16338.856086179614,16338.839518457651,16338.839518457651,16339.139810301363,16339.64015147835,16339.84071213752,16340.848671019077,left,1,0.5290451347827911,0.3,,,,,,,,,,,s029,001,2024-08-15_15h14.00.772,simplestop_skeleton,2022.2.2,60.02882971140144,
None,None,,,,,,,,,2,0,2,0,7,2,30,1,,,,,,,,,16340.826956048608,stop,squareblack.png,right,0.3,,,,,,,,,,,,,,,0.006931476294994354,0.48907796293497086,0.7894101738929749,16343.328970827162,test,3,,,,,,,,,,16340.848671019077,16341.359007366002,16341.342276357114,16341.342276357114,16341.642462208867,16342.143008388579,16342.343180820346,16343.346215106547,None,0,,0.35,,,,,,,,,,,s029,001,2024-08-15_15h14.00.772,simplestop_skeleton,2022.2.2,60.02882971140144,
None,None,,,,,,,,,2,0,2,0,7,3,31,2,,,,,,,,,16343.329433135688,go,circleblack.png,left,0.35,,,,,,,,,,,,,,,0.0017639100551605225,0.4891682267189026,,16345.832127578557,test,3,,,,,,,,,,16343.346215106547,16343.861466825008,16343.844836078584,16343.844836078584,16344.195273078978,16344.69587673992,16344.846010036767,16345.84952531755,left,1,0.4460482895374298,0.35,,,,,,,,,,,s029,001,2024-08-15_15h14.00.772,simplestop_skeleton,2022.2.2,60.02882971140144,
None,None,,,,,,,,,2,0,2,0,8,0,32,2,,,,,,,,,16345.83261090517,go,squareblack.png,right,0.35,,,,,,,,,,,,,,,0.0015252083539962769,0.48886367678642273,,16348.334847837687,test,3,,,,,,,,,,16345.84952531755,16346.364187546074,16346.34778535366,16346.34778535366,16346.698098033667,16347.198885843158,16347.348603360355,16348.35242087394,right,1,0.47313516587018967,0.35,,,,,,,,,,,s029,001,2024-08-15_15h14.00.772,simplestop_skeleton,2022.2.2,60.02882971140144,
None,None,,,,,,,,,2,0,2,0,8,1,33,2,,,,,,,,,16348.33533488959,go,circleblack.png,left,0.35,,,,,,,,,,,,,,,0.0016409307718276978,0.48905228078365326,,16350.83745482564,test,3,,,,,,,,,,16348.35242087394,16348.867220543325,16348.85051650554,16348.85051650554,16349.200758591294,16349.70140336454,16349.85141082108,16350.855230778456,left,1,0.39261656254529953,0.35,,,,,,,,,,,s029,001,2024-08-15_15h14.00.772,simplestop_skeleton,2022.2.2,60.02882971140144,
None,None,,,,,,,,,2,0,2,0,8,2,34,2,,,,,,,,,16350.837899126112,go,squareblack.png,right,0.35,,,,,,,,,,,,,,,0.0015309154987335205,0.4889657348394394,,16353.340215481818,test,3,,,,,,,,,,16350.855230778456,16351.369953989983,16351.353214994073,16351.353214994073,16351.703718751669,16352.20441107452,16352.354233026505,16353.357518710196,right,1,0.42818205803632736,0.35,,,,,,,,,,,s029,001,2024-08-15_15h14.00.772,simplestop_skeleton,2022.2.2,60.02882971140144,
None,None,,,,,,,,,2,0,2,0,8,3,35,2,,,,,,,,,16353.34070712328,go,squareblack.png,right,0.35,,,,,,,,,,,,,,,0.0012083649635314941,0.488892138004303,,16355.843999437988,test,3,,,,,,,,,,16353.357518710196,16353.872660793364,16353.856013506651,16353.856013506651,16354.206371769309,16354.706975921988,16354.857752010226,16355.863233491778,right,1,0.5973597764968872,0.35,,,,,,,,,,,s029,001,2024-08-15_15h14.00.772,simplestop_skeleton,2022.2.2,60.02882971140144,
$currentCorrectResponse,$currentGoStim,,,,,,,,,2,0,2,0,9,0,36,0,,,,,,,,,16355.844432137907,go,circleblack.png,left,0.35,,,,,,,,,,,,,,,0.001733042299747467,0.4898938834667206,,16358.346737235785,test,3,,,,,,,,,,16355.863233491778,16356.37672803551,16356.36026865989,16356.36026865989,16356.710634060204,16357.211099006236,16357.359820067883,16358.366003073752,left,1,0.5761502534151077,0.35,,,,,,,,,,,s029,001,2024-08-15_15h14.00.772,simplestop_skeleton,2022.2.2,60.02882971140144,
None,None,,,,,,,,,2,0,2,0,9,1,37,2,,,,,,,,,16358.347204484046,go,squareblack.png,right,0.35,,,,,,,,,,,,,,,0.001689620316028595,0.4897215813398361,,16360.849588267505,test,3,,,,,,,,,,16358.366003073752,16358.879820100963,16358.86328778416,16358.86328778416,16359.21342509985,16359.714430823922,16359.864203944802,16360.868626348674,right,1,0.8157397881150246,0.35,,,,,,,,,,,s029,001,2024-08-15_15h14.00.772,simplestop_skeleton,2022.2.2,60.02882971140144,
None,None,,,,,,,,,2,0,2,0,9,2,38,3,,,,,,,,,16360.850032031536,stop,squareblack.png,right,0.35,,,,,,,,,,,,,,,0.0013175010681152344,0.48967813700437546,0.840096689760685,16363.352582640946,test,3,,,,,,,,,,16360.868626348674,16361.382670551538,16361.365651674569,16361.365651674569,16361.716117478907,16362.216552786529,16362.366876453161,16363.37199780345,None,0,,0.4,,,,,,,,,,,s029,001,2024-08-15_15h14.00.772,simplestop_skeleton,2022.2.2,60.02882971140144,
$currentCorrectResponse,$currentGoStim,,,,,,,,,2,0,2,0,9,3,39,0,,,,,,,,,16363.35302349925,go,circleblack.png,left,0.4,,,,,,,,,,,,,,,0.001960448920726776,0.4897836074233055,,16365.855298623443,test,3,,,,,,,,,,16363.37199780345,16363.885095641017,16363.868337877095,16363.868337877095,16364.268816530704,16364.768051810563,16364.868073835969,16365.874280638993,left,1,0.4680000767111778,0.4,,,,,,,,,,,s029,001,2024-08-15_15h14.00.772,simplestop_skeleton,2022.2.2,60.02882971140144,
None,None,,,,,,,,,2,0,2,0,10,0,40,3,,,,,,,,,16365.85573631525,stop,circleblack.png,left,0.4,,,,,,,,,,,,,,,0.001412227749824524,0.4893804118037224,0.889831505715847,16368.357754603028,test,3,,,,,,,,,,16365.874280638993,16366.387862883508,16366.371147036552,16366.371147036552,16366.77166004479,16367.272402919829,16367.372381046414,16368.376558482647,None,0,,0.45,,,,,,,,,,,s029,001,2024-08-15_15h14.00.772,simplestop_skeleton,2022.2.2,60.02882971140144,
None,None,,,,,,,,,2,0,2,0,10,1,41,3,,,,,,,,,16368.35818464309,go,squareblack.png,right,0.45,,,,,,,,,,,,,,,0.0016304254531860352,0.49022848159074783,,16370.860447838902,test,3,,,,,,,,,,16368.376558482647,16368.890722543001,16368.873984009027,16368.873984009027,16369.32446359843,16369.823666907847,16369.873673290014,16370.879526421428,right,1,0.4736006632447243,0.45,,,,,,,,,,,s029,001,2024-08-15_15h14.00.772,simplestop_skeleton,2022.2.2,60.02882971140144,
None,None,,,,,,,,,2,0,2,0,10,2,42,3,,,,,,,,,16370.860941074789,go,squareblack.png,right,0.45,,,,,,,,,,,,,,,0.0013032406568527222,0.4896464869379997,,16373.363258004189,test,3,,,,,,,,,,16370.879526421428,16371.393742121756,16371.37725237012,16371.37725237012,16371.825907535851,16372.327329792082,16372.377006173134,16373.38280582428,right,1,0.7923769131302834,0.45,,,,,,,,,,,s029,001,2024-08-15_15h14.00.772,simplestop_skeleton,2022.2.2,60.02882971140144,
$currentCorrectResponse,$currentGoStim,,,,,,,,,2,0,2,0,10,3,43,0,,,,,,,,,16373.363685287535,go,circleblack.png,left,0.45,,,,,,,,,,,,,,,0.0019688457250595093,0.48975957185029984,,16375.866213738918,test,3,,,,,,,,,,16373.38280582428,16373.896131940186,16373.879295505583,16373.879295505583,16374.329863131046,16374.829099074006,16374.878973692656,16375.884808599949,left,1,0.5700492858886719,0.45,,,,,,,,,,,s029,001,2024-08-15_15h14.00.772,simplestop_skeleton,2022.2.2,60.02882971140144,
None,None,,,,,,,,,2,0,2,0,11,0,44,3,,,,,,,,,16375.866669997573,go,circleblack.png,left,0.45,,,,,,,,,,,,,,,0.0013293921947479248,0.4895722046494484,,16378.368812642992,test,3,,,,,,,,,,16375.884808599949,16376.398837864399,16376.382056370378,16376.382056370378,16376.832650065422,16377.333236284554,16377.381860628724,16378.387790694833,left,1,0.6950692906975746,0.45,,,,,,,,,,,s029,001,2024-08-15_15h14.00.772,simplestop_skeleton,2022.2.2,60.02882971140144,
None,None,,,,,,,,,2,0,2,0,11,1,45,1,,,,,,,,,16378.369251608849,stop,circleblack.png,left,0.45,,,,,,,,,,,,,,,0.001315869390964508,0.490067794919014,0.9400614947080612,16380.87187501043,test,3,,,,,,,,,,16378.387790694833,16378.901611283422,16378.88509324938,16378.88509324938,16379.335400246084,16379.851171679795,16379.884499549866,16380.891180701554,left,1,0.591357409954071,0.4,,,,,,,,,,,s029,001,2024-08-15_15h14.00.772,simplestop_skeleton,2022.2.2,60.02882971140144,
None,None,,,,,,,,,2,0,2,0,11,2,46,3,,,,,,,,,16380.872319042683,stop,squareblack.png,right,0.4,,,,,,,,,,,,,,,0.0018586516380310059,0.48930760473012924,0.8897357136011124,16383.374548569322,test,3,,,,,,,,,,16380.891180701554,16381.404490821064,16381.387611433864,16381.387611433864,16381.78810672462,16382.287397876382,16382.387574963272,16383.394649811089,right,1,0.489813931286335,0.35,,,,,,,,,,,s029,001,2024-08-15_15h14.00.772,simplestop_skeleton,2022.2.2,60.02882971140144,
$currentCorrectResponse,$currentGoStim,,,,,,,,,2,0,2,0,11,3,47,0,,,,,,,,,16383.374978207052,go,squareblack.png,right,0.35,,,,,,,,,,,,,,,0.0015732944011688232,0.48933207243680954,,16385.87726649642,test,3,,,,,,,,,,16383.394649811089,16383.90729278326,16383.890654474497,16383.890654474497,16384.241383470595,16384.740372240543,16384.890108779073,16385.892768912017,None,0,,0.35,,,,,,,,,,,s029,001,2024-08-15_15h14.00.772,simplestop_skeleton,2022.2.2,60.02882971140144,
