corrGoResp,shape,practiceBlocks.thisRepN,practiceBlocks.thisTrialN,practiceBlocks.thisN,practiceBlocks.thisIndex,practiceTrials.thisRepN,practiceTrials.thisTrialN,practiceTrials.thisN,practiceTrials.thisIndex,stopBlocks.thisRepN,stopBlocks.thisTrialN,stopBlocks.thisN,stopBlocks.thisIndex,testTrials.thisRepN,testTrials.thisTrialN,testTrials.thisN,testTrials.thisIndex,stopPracTrialList,Test Block: 0,welcome.started,start_exp.started,start_exp.keys,start_exp.rt,instrStopText.started,start_prac.started,StartTrialTimeStamp,trialType,goStim,correctResponse,ssd,fixation.started,rules.started,goStim.started,goResp.started,fixation.stopped,stopSignal.started,stopSignal.stopped,goStim.stopped,goResp.stopped,rules.stopped,goResp.keys,goResp.corr,goResp.rt,text.started,rules_2.started,text.stopped,rules_2.stopped,fixationOnset,goStimOnset,stopSignalOnset,EndTrialTimeStamp,text_5.started,key_resp_3.started,key_resp_3.keys,key_resp_3.rt,key_resp.started,testText.started,test_fixation.started,test_fixation.stopped,goStim_test.started,goResp_test.started,stopSignal_test.started,stopSignal_test.stopped,goStim_test.stopped,goResp_test.stopped,goResp_test.keys,goResp_test.corr,goResp_test.rt,EndingSSD,Test Block: 1,text_6.started,key_resp_4.started,key_resp_4.keys,key_resp_4.rt,Test Block: 2,Test Block: 3,ending_text.started,end_resp.started,end_resp.keys,end_resp.rt,participant,session,date,expName,psychopyVersion,frameRate,
,,,,,,,,,,,,,,,,,,"[{'fileName': 'circleblack.png', 'correct_response': 'z', 'condition': 'go'}, {'fileName': 'circleblack.png', 'correct_response': 'z', 'condition': 'stop'}, {'fileName': 'squareblack.png', 'correct_response': 'm', 'condition': 'go'}, {'fileName': 'squareblack.png', 'correct_response': 'm', 'condition': 'stop'}, {'fileName': 'squareblack.png', 'correct_response': 'm', 'condition': 'go'}, {'fileName': 'squareblack.png', 'correct_response': 'm', 'condition': 'go'}, {'fileName': 'circleblack.png', 'correct_response': 'z', 'condition': 'go'}, {'fileName': 'squareblack.png', 'correct_response': 'm', 'condition': 'go'}, {'fileName': 'squareblack.png', 'correct_response': 'm', 'condition': 'stop'}, {'fileName': 'circleblack.png', 'correct_response': 'z', 'condition': 'stop'}, {'fileName': 'circleblack.png', 'correct_response': 'z', 'condition': 'go'}, {'fileName': 'circleblack.png', 'correct_response': 'z', 'condition': 'go'}, {'fileName': 'circleblack.png', 'correct_response': 'z', 'condition': 'stop'}, {'fileName': 'squareblack.png', 'correct_response': 'm', 'condition': 'stop'}, {'fileName': 'circleblack.png', 'correct_response': 'z', 'condition': 'go'}, {'fileName': 'squareblack.png', 'correct_response': 'm', 'condition': 'stop'}, {'fileName': 'squareblack.png', 'correct_response': 'm', 'condition': 'go'}, {'fileName': 'squareblack.png', 'correct_response': 'm', 'condition': 'go'}, {'fileName': 'squareblack.png', 'correct_response': 'm', 'condition': 'go'}, {'fileName': 'circleblack.png', 'correct_response': 'z', 'condition': 'go'}, {'fileName': 'circleblack.png', 'correct_response': 'z', 'condition': 'go'}, {'fileName': 'circleblack.png', 'correct_response': 'z', 'condition': 'go'}, {'fileName': 'squareblack.png', 'correct_response': 'm', 'condition': 'go'}, {'fileName': 'circleblack.png', 'correct_response': 'z', 'condition': 'stop'}]","[{'fileName': 'circleblack.png', 'correct_response': 'z', 'condition': 'stop'}, {'fileName': 'circleblack.png', 'correct_response': 'z', 'condition': 'go'}, {'fileName': 'squareblack.png', 'correct_response': 'm', 'condition': 'go'}, {'fileName': 'squareblack.png', 'correct_response': 'm', 'condition': 'stop'}, {'fileName': 'squareblack.png', 'correct_response': 'm', 'condition': 'go'}, {'fileName': 'squareblack.png', 'correct_response': 'm', 'condition': 'go'}, {'fileName': 'circleblack.png', 'correct_response': 'z', 'condition': 'go'}, {'fileName': 'circleblack.png', 'correct_response': 'z', 'condition': 'go'}, {'fileName': 'circleblack.png', 'correct_response': 'z', 'condition': 'stop'}, {'fileName': 'circleblack.png', 'correct_response': 'z', 'condition': 'go'}, {'fileName': 'squareblack.png', 'correct_response': 'm', 'condition': 'go'}, {'fileName': 'squareblack.png', 'correct_response': 'm', 'condition': 'stop'}, {'fileName': 'squareblack.png', 'correct_response': 'm', 'condition': 'go'}, {'fileName': 'squareblack.png', 'correct_response': 'm', 'condition': 'stop'}, {'fileName': 'circleblack.png', 'correct_response': 'z', 'condition': 'go'}, {'fileName': 'circleblack.png', 'correct_response': 'z', 'condition': 'stop'}, {'fileName': 'squareblack.png', 'correct_response': 'm', 'condition': 'go'}, {'fileName': 'squareblack.png', 'correct_response': 'm', 'condition': 'go'}, {'fileName': 'squareblack.png', 'correct_response': 'm', 'condition': 'go'}, {'fileName': 'circleblack.png', 'correct_response': 'z', 'condition': 'go'}, {'fileName': 'circleblack.png', 'correct_response': 'z', 'condition': 'stop'}, {'fileName': 'circleblack.png', 'correct_response': 'z', 'condition': 'go'}, {'fileName': 'circleblack.png', 'correct_response': 'z', 'condition': 'go'}, {'fileName': 'squareblack.png', 'correct_response': 'm', 'condition': 'stop'}, {'fileName': 'circleblack.png', 'correct_response': 'z', 'condition': 'stop'}, {'fileName': 'circleblack.png', 'correct_response': 'z', 'condition': 'go'}, {'fileName': 'circleblack.png', 'correct_response': 'z', 'condition': 'stop'}, {'fileName': 'squareblack.png', 'correct_response': 'm', 'condition': 'stop'}, {'fileName': 'squareblack.png', 'correct_response': 'm', 'condition': 'go'}, {'fileName': 'squareblack.png', 'correct_response': 'm', 'condition': 'stop'}, {'fileName': 'squareblack.png', 'correct_response': 'm', 'condition': 'go'}, {'fileName': 'circleblack.png', 'correct_response': 'z', 'condition': 'go'}, {'fileName': 'squareblack.png', 'correct_response': 'm', 'condition': 'go'}, {'fileName': 'squareblack.png', 'correct_response': 'm', 'condition': 'go'}, {'fileName': 'circleblack.png', 'correct_response': 'z', 'condition': 'go'}, {'fileName': 'circleblack.png', 'correct_response': 'z', 'condition': 'go'}, {'fileName': 'circleblack.png', 'correct_response': 'z', 'condition': 'go'}, {'fileName': 'squareblack.png', 'correct_response': 'm', 'condition': 'stop'}, {'fileName': 'squareblack.png', 'correct_response': 'm', 'condition': 'go'}, {'fileName': 'circleblack.png', 'correct_response': 'z', 'condition': 'go'}, {'fileName': 'squareblack.png', 'correct_response': 'm', 'condition': 'go'}, {'fileName': 'squareblack.png', 'correct_response': 'm', 'condition': 'stop'}, {'fileName': 'circleblack.png', 'correct_response': 'z', 'condition': 'go'}, {'fileName': 'circleblack.png', 'correct_response': 'z', 'condition': 'stop'}, {'fileName': 'squareblack.png', 'correct_response': 'm', 'condition': 'go'}, {'fileName': 'squareblack.png', 'correct_response': 'm', 'condition': 'go'}, {'fileName': 'circleblack.png', 'correct_response': 'z', 'condition': 'stop'}, {'fileName': 'circleblack.png', 'correct_response': 'z', 'condition': 'go'}]",15.275728795677423,15.275728795677423,return,8.265045057982206,,,,,,,,,,,,,,,,,,,,,,,,,,,,,,,,,,,,,,,,,,,,,,,,,,,,,,,,,,s003,001,2024-04-11_12h58.54.807,simplestop_skeleton,2022.2.2,59.981319761529335,
None,None,0,0,0,0,0,0,0,2,,,,,,,,,,,,,,,23.57324953004718,23.57324953004718,118.10633851960301,go,circleblack.png,z,0.25,118.13026147708297,118.13026147708297,118.62154879420996,118.62154879420996,118.63803622126579,118.87180832028389,119.37223342433572,119.62250487878919,120.62354164198041,120.6401370279491,z,0,1.0898662321269512,120.6401370279491,120.6401370279491,121.14607557654381,121.14607557654381,0.0033210553228855133,0.48856189474463463,0.7388666607439518,121.12553071975708,,,,,,,,,,,,,,,,,,,,,,,,,,,,,,s003,001,2024-04-11_12h58.54.807,simplestop_skeleton,2022.2.2,59.981319761529335,
None,None,0,0,0,0,0,1,1,3,,,,,,,,,,,,,,,,,121.12589452415705,stop,circleblack.png,z,0.25,121.14607557654381,121.14607557654381,121.6411980651319,121.6411980651319,121.6580147780478,121.89141322672367,122.39220259338617,122.64243491366506,123.64389116317034,123.66027543693781,None,1,,123.66027543693781,123.66027543693781,124.16273863613605,124.16273863613605,0.0014543309807777405,0.48897141590714455,0.738973468542099,124.14443799108267,,,,,,,,,,,,,,,,,,,,,,,,,,,,,,s003,001,2024-04-11_12h58.54.807,simplestop_skeleton,2022.2.2,59.981319761529335,
None,None,0,0,0,0,0,2,2,3,,,,,,,,,,,,,,,,,124.14475242421031,go,squareblack.png,m,0.3,124.16273863613605,124.16273863613605,124.66131652891636,124.66131652891636,124.6779996342957,124.96160713583231,125.46080480515957,125.66177852451801,126.66371627524495,126.66371627524495,m,0,0.4569696709513664,126.66371627524495,126.66371627524495,127.16777777299285,127.16777777299285,0.001794707030057907,0.49070801958441734,0.7912187092006207,127.14831872284412,,,,,,,,,,,,,,,,,,,,,,,,,,,,,,s003,001,2024-04-11_12h58.54.807,simplestop_skeleton,2022.2.2,59.981319761529335,
None,None,0,0,0,0,0,3,3,3,,,,,,,,,,,,,,,,,127.14866415411234,stop,squareblack.png,m,0.3,127.16777777299285,127.16777777299285,127.6646593362093,127.6646593362093,127.68154522031546,127.96499697118998,128.4654911234975,128.66571905836463,129.6666570045054,129.6666570045054,None,1,,129.6666570045054,129.6666570045054,,,0.0012004934251308441,0.489900391548872,0.790509007871151,130.1514483653009,,,,,,,,,,,,,,,,,,,,,,,,,,,,,,s003,001,2024-04-11_12h58.54.807,simplestop_skeleton,2022.2.2,59.981319761529335,
$currentCorrectResponse,$currentGoStim,0,0,0,0,1,0,4,0,,,,,,,,,,,,,,,,,130.15176095440984,go,squareblack.png,m,0.35,130.17082101106644,130.17082101106644,130.6682129688561,130.6682129688561,130.68487245589495,131.01825345680118,131.51884386315942,131.66900292783976,132.67022484913468,132.67022484913468,m,0,0.5366167165338993,132.67022484913468,132.67022484913468,133.17412856966257,133.17412856966257,0.0012319087982177734,0.4902068041265011,0.8406156934797764,133.1548992060125,,,,,,,,,,,,,,,,,,,,,,,,,,,,,,s003,001,2024-04-11_12h58.54.807,simplestop_skeleton,2022.2.2,59.981319761529335,
None,None,0,0,0,0,1,1,5,2,,,,,,,,,,,,,,,,,133.1552976667881,go,squareblack.png,m,0.35,133.17412856966257,133.17412856966257,133.67127159237862,133.67127159237862,133.68784536793828,134.02171487361193,134.52210796624422,134.6724211834371,135.6733939908445,135.6733939908445,m,0,0.7402483932673931,135.6733939908445,135.6733939908445,,,0.0011918805539608002,0.49016089364886284,0.8406147547066212,136.15835600718856,,,,,,,,,,,,,,,,,,,,,,,,,,,,,,s003,001,2024-04-11_12h58.54.807,simplestop_skeleton,2022.2.2,59.981319761529335,
None,None,0,0,0,0,1,2,6,1,,,,,,,,,,,,,,,,,136.1586932875216,go,circleblack.png,z,0.35,136.1782273761928,136.1782273761928,136.6743704713881,136.6743704713881,136.69125513359904,137.0248723104596,137.52534154430032,137.67563778162003,138.67680821940303,138.69404938444495,z,0,0.4831991381943226,138.69404938444495,138.69404938444495,139.19593240693212,139.19593240693212,0.001807771623134613,0.48997558280825615,0.8403569757938385,139.17776546999812,,,,,,,,,,,,,,,,,,,,,,,,,,,,,,s003,001,2024-04-11_12h58.54.807,simplestop_skeleton,2022.2.2,59.981319761529335,
$currentCorrectResponse,$currentGoStim,0,0,0,0,1,3,7,0,,,,,,,,,,,,,,,,,139.17808292806149,go,squareblack.png,m,0.35,139.19593240693212,139.19593240693212,139.69469721987844,139.69469721987844,139.71134081855416,140.04565976932645,140.54559200629592,140.69571153447032,141.69712395966053,141.69712395966053,m,0,0.2897167503833771,141.69712395966053,141.69712395966053,,,0.0016540363430976868,0.49076127633452415,0.841126624494791,142.1816920749843,,,,,,,,,,,,,,,,,,,,,,,,,,,,,,s003,001,2024-04-11_12h58.54.807,simplestop_skeleton,2022.2.2,59.981319761529335,
None,None,0,0,0,0,2,0,8,3,,,,,,,,,,,,,,,,,142.182002954185,stop,squareblack.png,m,0.35,142.2009798809886,142.2009798809886,142.69817938283086,142.69817938283086,142.71478629857302,143.04839701205492,143.54774497449398,143.6984123364091,144.70012786611915,144.70012786611915,m,0,0.5311108976602554,144.70012786611915,144.70012786611915,145.20485969632864,145.20485969632864,0.001226663589477539,0.49006248638033867,0.8405160047113895,145.18491046875715,,,,,,,,,,,,,,,,,,,,,,,,,,,,,,s003,001,2024-04-11_12h58.54.807,simplestop_skeleton,2022.2.2,59.981319761529335,
None,None,0,0,0,0,2,1,9,1,,,,,,,,,,,,,,,,,145.18522952497005,stop,circleblack.png,z,0.3,145.20485969632864,145.20485969632864,145.70147702097893,145.70147702097893,145.7180112041533,146.0016174763441,146.50223026052117,146.7024466432631,147.7033767439425,147.7205022946,None,1,,147.7205022946,147.7205022946,148.2241022437811,148.2241022437811,0.0018985532224178314,0.49035559594631195,0.7906859517097473,148.20480492711067,,,,,,,,,,,,,,,,,,,,,,,,,,,,,,s003,001,2024-04-11_12h58.54.807,simplestop_skeleton,2022.2.2,59.981319761529335,
None,None,0,0,0,0,2,2,10,1,,,,,,,,,,,,,,,,,148.20511415228248,go,circleblack.png,z,0.35,148.2241022437811,148.2241022437811,148.72121572867036,148.72121572867036,148.7379433438182,149.07158789411187,149.57213477417827,149.72234427928925,150.72331197187304,150.72331197187304,z,0,0.8428697548806667,150.72331197187304,150.72331197187304,151.22891929373145,151.22891929373145,0.00125880166888237,0.49051642045378685,0.8410142548382282,151.20834620669484,,,,,,,,,,,,,,,,,,,,,,,,,,,,,,s003,001,2024-04-11_12h58.54.807,simplestop_skeleton,2022.2.2,59.981319761529335,
None,None,0,0,0,0,2,3,11,1,,,,,,,,,,,,,,,,,151.20865494012833,go,circleblack.png,z,0.35,151.22891929373145,151.22891929373145,151.72455600649118,151.72455600649118,151.74111435189843,152.07497183978558,152.57506519928575,152.72550915926695,153.7268996015191,153.74350460618734,z,0,0.6990469992160797,153.74350460618734,153.74350460618734,154.24788101762533,154.24788101762533,0.0014771521091461182,0.4897138215601444,0.8400581032037735,154.228180591017,,,,,,,,,,,,,,,,,,,,,,,,,,,,,,s003,001,2024-04-11_12h58.54.807,simplestop_skeleton,2022.2.2,59.981319761529335,
None,None,0,0,0,0,3,0,12,1,,,,,,,,,,,,,,,,,154.22850509732962,stop,circleblack.png,z,0.35,154.24788101762533,154.24788101762533,154.7446348965168,154.7446348965168,154.7612651400268,155.09505624324083,155.59554332867265,155.7456461749971,156.7467631958425,156.76401921734214,None,1,,156.76401921734214,156.76401921734214,,,0.0012765787541866302,0.4903886914253235,0.8407571539282799,157.24854129180312,,,,,,,,,,,,,,,,,,,,,,,,,,,,,,s003,001,2024-04-11_12h58.54.807,simplestop_skeleton,2022.2.2,59.981319761529335,
None,None,0,0,0,0,3,1,13,3,,,,,,,,,,,,,,,,,157.24885281920433,stop,squareblack.png,m,0.4,157.26813735812902,157.26813735812902,157.76460529118776,157.76460529118776,157.7812625952065,158.16520109772682,158.6658938191831,158.765607111156,159.7656640857458,159.7825210429728,None,1,,159.7825210429728,159.7825210429728,160.2864620871842,160.2864620871842,0.0017304010689258575,0.490132674574852,0.8902818262577057,160.267297770828,,,,,,,,,,,,,,,,,,,,,,,,,,,,,,s003,001,2024-04-11_12h58.54.807,simplestop_skeleton,2022.2.2,59.981319761529335,
$currentCorrectResponse,$currentGoStim,0,0,0,0,3,2,14,0,,,,,,,,,,,,,,,,,160.26775128021836,go,circleblack.png,z,0.45,160.2864620871842,160.2864620871842,160.78349459543824,160.78349459543824,160.80026837810874,161.23394219577312,161.73432978242636,161.78534714132547,162.78655092790723,162.78655092790723,z,0,0.7115089483559132,162.78655092790723,162.78655092790723,163.29103615507483,163.29103615507483,0.002062413841485977,0.48932772874832153,0.9399591572582722,163.27148239314556,,,,,,,,,,,,,,,,,,,,,,,,,,,,,,s003,001,2024-04-11_12h58.54.807,simplestop_skeleton,2022.2.2,59.981319761529335,
None,None,0,0,0,0,3,3,15,2,,,,,,,,,,,,,,,,,163.27179181575775,stop,squareblack.png,m,0.45,163.29103615507483,163.29103615507483,163.7878402620554,163.7878402620554,163.80445519462228,164.24081015214324,164.75560921803117,164.78899473324418,165.7900940850377,165.80683902651072,m,0,0.3625802919268608,165.80683902651072,165.80683902651072,166.31045414879918,166.31045414879918,0.0016398131847381592,0.4906318709254265,0.9411206729710102,166.29151856526732,,,,,,,,,,,,,,,,,,,,,,,,,,,,,,s003,001,2024-04-11_12h58.54.807,simplestop_skeleton,2022.2.2,59.981319761529335,
None,None,0,0,0,0,4,0,16,1,,,,,,,,,,,,,,,,,166.29185037314892,go,squareblack.png,m,0.4,166.31045414879918,166.31045414879918,166.80776439979672,166.80776439979672,166.82440117001534,167.208269957453,167.7087662704289,167.80943486839533,168.80982064455748,168.80982064455748,m,0,0.9792883507907391,168.80982064455748,168.80982064455748,,,0.0011827833950519562,0.49014054611325264,0.8907250091433525,169.2950973547995,,,,,,,,,,,,,,,,,,,,,,,,,,,,,,s003,001,2024-04-11_12h58.54.807,simplestop_skeleton,2022.2.2,59.981319761529335,
$currentCorrectResponse,$currentGoStim,0,0,0,0,4,1,17,0,,,,,,,,,,,,,,,,,169.29541217163205,go,squareblack.png,m,0.4,169.31420370191336,169.31420370191336,169.8113527558744,169.8113527558744,169.82798597216606,170.21184745430946,170.712208006531,170.81266487389803,171.81337289512157,171.81337289512157,m,0,0.8488492406904697,171.81337289512157,171.81337289512157,,,0.0012194737792015076,0.4902898296713829,0.8905238099396229,172.2980351820588,,,,,,,,,,,,,,,,,,,,,,,,,,,,,,s003,001,2024-04-11_12h58.54.807,simplestop_skeleton,2022.2.2,59.981319761529335,
None,None,0,0,0,0,4,2,18,2,,,,,,,,,,,,,,,,,172.29836601391435,go,squareblack.png,m,0.4,172.3173307850957,172.3173307850957,172.81481167674065,172.81481167674065,172.83132096007466,173.21508596092463,173.71556717157364,173.81564837694168,174.81646503135562,174.81646503135562,m,0,0.6580117233097553,174.81646503135562,174.81646503135562,,,0.001211412250995636,0.4904428720474243,0.8907997123897076,175.30160759016871,,,,,,,,,,,,,,,,,,,,,,,,,,,,,,s003,001,2024-04-11_12h58.54.807,simplestop_skeleton,2022.2.2,59.981319761529335,
$currentCorrectResponse,$currentGoStim,0,0,0,0,4,3,19,0,,,,,,,,,,,,,,,,,175.30192038416862,go,circleblack.png,z,0.4,175.32144394144416,175.32144394144416,175.8177135400474,175.8177135400474,175.83434324339032,176.21806997060776,176.71799813956022,176.81813111528754,177.8200727701187,177.8367553241551,z,0,0.47467898204922676,177.8367553241551,177.8367553241551,178.34087712317705,178.34087712317705,0.0018803216516971588,0.4902954660356045,0.8907149992883205,178.3215781636536,,,,,,,,,,,,,,,,,,,,,,,,,,,,,,s003,001,2024-04-11_12h58.54.807,simplestop_skeleton,2022.2.2,59.981319761529335,
None,None,0,0,0,0,5,0,20,2,,,,,,,,,,,,,,,,,178.32189779356122,go,circleblack.png,z,0.4,178.34087712317705,178.34087712317705,178.83788237720728,178.83788237720728,178.8543287627399,179.23851497471333,179.73878971487284,179.83921353146434,180.8403584137559,180.8403584137559,z,0,0.7440628372132778,180.8403584137559,180.8403584137559,181.34553045034409,181.34553045034409,0.0012484118342399597,0.48954006657004356,0.8903525583446026,181.32511126995087,,,,,,,,,,,,,,,,,,,,,,,,,,,,,,s003,001,2024-04-11_12h58.54.807,simplestop_skeleton,2022.2.2,59.981319761529335,
None,None,0,0,0,0,5,1,21,3,,,,,,,,,,,,,,,,,181.32545718178153,go,circleblack.png,z,0.4,181.34553045034409,181.34553045034409,181.8412930369377,181.8412930369377,181.85802701488137,182.24160052463412,182.74227492883801,182.8425247259438,183.84347419068217,183.86022888869047,z,0,0.8568653278052807,183.86022888869047,183.86022888869047,184.36428343132138,184.36428343132138,0.0014674477279186249,0.4895603060722351,0.8904352858662605,184.3448243699968,,,,,,,,,,,,,,,,,,,,,,,,,,,,,,s003,001,2024-04-11_12h58.54.807,simplestop_skeleton,2022.2.2,59.981319761529335,
$currentCorrectResponse,$currentGoStim,0,0,0,0,5,2,22,0,,,,,,,,,,,,,,,,,184.34514643251896,go,squareblack.png,m,0.4,184.36428343132138,184.36428343132138,184.861127179116,184.861127179116,184.87751789018512,185.2615957148373,185.7618918567896,185.86202198639512,186.86319432035089,186.87995856255293,m,0,0.6412222981452942,186.87995856255293,186.87995856255293,187.38462829217315,187.38462829217315,0.0016689300537109375,0.4902558997273445,0.8908018581569195,187.3647663332522,,,,,,,,,,,,,,,,,,,,,,,,,,,,,,s003,001,2024-04-11_12h58.54.807,simplestop_skeleton,2022.2.2,59.981319761529335,
None,None,0,0,0,0,5,3,23,2,,,,,,,,,,,,,,,,,187.3650850057602,stop,circleblack.png,z,0.4,187.38462829217315,187.38462829217315,187.8810636922717,187.8810636922717,187.89787669107318,188.28158054500818,188.78211796283722,188.8820871040225,189.88331258296967,189.8999470733106,None,1,,189.8999470733106,189.8999470733106,,,0.001809142529964447,0.49036797881126404,0.8906065039336681,190.38480004295707,,,,,,,,,,,,,,,,,,,,,,,,,,,,,,s003,001,2024-04-11_12h58.54.807,simplestop_skeleton,2022.2.2,59.981319761529335,
,,0,0,0,0,,,,,,,,,,,,,"[{'fileName': 'circleblack.png', 'correct_response': 'z', 'condition': 'go'}, {'fileName': 'squareblack.png', 'correct_response': 'm', 'condition': 'go'}, {'fileName': 'squareblack.png', 'correct_response': 'm', 'condition': 'go'}, {'fileName': 'squareblack.png', 'correct_response': 'm', 'condition': 'go'}, {'fileName': 'circleblack.png', 'correct_response': 'z', 'condition': 'go'}, {'fileName': 'squareblack.png', 'correct_response': 'm', 'condition': 'go'}, {'fileName': 'squareblack.png', 'correct_response': 'm', 'condition': 'stop'}, {'fileName': 'circleblack.png', 'correct_response': 'z', 'condition': 'stop'}, {'fileName': 'circleblack.png', 'correct_response': 'z', 'condition': 'stop'}, {'fileName': 'squareblack.png', 'correct_response': 'm', 'condition': 'stop'}, {'fileName': 'circleblack.png', 'correct_response': 'z', 'condition': 'go'}, {'fileName': 'circleblack.png', 'correct_response': 'z', 'condition': 'go'}, {'fileName': 'circleblack.png', 'correct_response': 'z', 'condition': 'go'}, {'fileName': 'squareblack.png', 'correct_response': 'm', 'condition': 'stop'}, {'fileName': 'circleblack.png', 'correct_response': 'z', 'condition': 'stop'}, {'fileName': 'squareblack.png', 'correct_response': 'm', 'condition': 'stop'}, {'fileName': 'circleblack.png', 'correct_response': 'z', 'condition': 'go'}, {'fileName': 'squareblack.png', 'correct_response': 'm', 'condition': 'go'}, {'fileName': 'circleblack.png', 'correct_response': 'z', 'condition': 'go'}, {'fileName': 'circleblack.png', 'correct_response': 'z', 'condition': 'go'}, {'fileName': 'squareblack.png', 'correct_response': 'm', 'condition': 'go'}, {'fileName': 'squareblack.png', 'correct_response': 'm', 'condition': 'go'}, {'fileName': 'circleblack.png', 'correct_response': 'z', 'condition': 'stop'}, {'fileName': 'squareblack.png', 'correct_response': 'm', 'condition': 'go'}]",,,,,,,,,,,,,,,,,,,,,,,,,,,,,,,,,,190.4027299322188,190.4027299322188,return,5.858688563108444,,,,,,,,,,,,,,,,,,,,,,,,,,s003,001,2024-04-11_12h58.54.807,simplestop_skeleton,2022.2.2,59.981319761529335,
None,None,,,,,,,,,0,0,0,0,0,0,0,2,,,,,,,,,226.26573652029037,stop,circleblack.png,z,0.45,,,,,,,,,,,,,,,,,,0.002213176339864731,0.4982666037976742,0.9489188827574253,228.77763125672936,,,,,196.29069400206208,196.29069400206208,226.28522446379066,226.7905164025724,226.7905164025724,226.7905164025724,227.24098528176546,227.74189360067248,227.7916196025908,228.79618268460035,z,0,0.5674930773675442,0.4,,,,,,,,,,,,s003,001,2024-04-11_12h58.54.807,simplestop_skeleton,2022.2.2,59.981319761529335,
None,None,,,,,,,,,0,0,0,0,0,1,1,2,,,,,,,,,228.77796587347984,go,circleblack.png,z,0.4,,,,,,,,,,,,,,,,,,0.0013591088354587555,0.4895947650074959,0.8899684175848961,231.28030214458704,,,,,,,228.79618268460035,229.30994575843215,229.29345957562327,229.29345957562327,229.69380630925298,230.19434406608343,230.29438456520438,231.29933521524072,z,0,0.7405924536287785,0.4,,,,,,,,,,,,s003,001,2024-04-11_12h58.54.807,simplestop_skeleton,2022.2.2,59.981319761529335,
None,None,,,,,,,,,0,0,0,0,0,2,2,3,,,,,,,,,231.28061402589083,go,squareblack.png,m,0.4,,,,,,,,,,,,,,,,,,0.0017214193940162659,0.4898681789636612,0.8902480006217957,233.78295791521668,,,,,,,231.29933521524072,231.81267731264234,231.79606855288148,231.79606855288148,232.19642773270607,232.69713607430458,232.79706932976842,233.80135936662555,m,0,0.5580572038888931,0.4,,,,,,,,,,,,s003,001,2024-04-11_12h58.54.807,simplestop_skeleton,2022.2.2,59.981319761529335,
$currentCorrectResponse,$currentGoStim,,,,,,,,,0,0,0,0,0,3,3,0,,,,,,,,,233.78336257115006,stop,squareblack.png,m,0.4,,,,,,,,,,,,,,,,,,0.0011870227754116058,0.4898093268275261,0.8902768902480602,236.28563414141536,,,,,,,233.80135936662555,234.3156810067594,234.2990417778492,234.2990417778492,234.6996460966766,235.1987291276455,235.29963694512844,236.30411693826318,m,0,0.5426046773791313,0.35,,,,,,,,,,,,s003,001,2024-04-11_12h58.54.807,simplestop_skeleton,2022.2.2,59.981319761529335,
$currentCorrectResponse,$currentGoStim,,,,,,,,,0,0,0,0,1,0,4,0,,,,,,,,,236.2859431952238,go,squareblack.png,m,0.35,,,,,,,,,,,,,,,,,,0.0011885762214660645,0.4906248115003109,0.8404340483248234,238.78852014616132,,,,,,,236.30411693826318,236.8183881007135,236.8021893389523,236.8021893389523,237.1522879973054,237.65131385996938,237.80169517174363,238.8070390559733,m,0,0.6848007366061211,0.35,,,,,,,,,,,,s003,001,2024-04-11_12h58.54.807,simplestop_skeleton,2022.2.2,59.981319761529335,
None,None,,,,,,,,,0,0,0,0,1,1,5,2,,,,,,,,,238.78883750736713,go,squareblack.png,m,0.35,,,,,,,,,,,,,,,,,,0.0012445859611034393,0.4898713491857052,0.840287622064352,241.29116352647543,,,,,,,238.8070390559733,239.32106755673885,239.30448711290956,239.30448711290956,239.6548453606665,240.15539303049445,240.30561530590057,241.3104466870427,m,0,0.7099256999790668,0.35,,,,,,,,,,,,s003,001,2024-04-11_12h58.54.807,simplestop_skeleton,2022.2.2,59.981319761529335,
None,None,,,,,,,,,0,0,0,0,1,2,6,3,,,,,,,,,241.29147454351187,go,circleblack.png,z,0.35,,,,,,,,,,,,,,,,,,0.0017998330295085907,0.49002356082201004,0.8403518162667751,243.794009052217,,,,,,,241.3104466870427,241.82376953214407,241.8072233274579,241.8072233274579,242.15749486163259,242.65805042535067,242.8083184324205,243.81287753582,z,0,0.9438522532582283,0.35,,,,,,,,,,,,s003,001,2024-04-11_12h58.54.807,simplestop_skeleton,2022.2.2,59.981319761529335,
$currentCorrectResponse,$currentGoStim,,,,,,,,,0,0,0,0,1,3,7,0,,,,,,,,,243.79439908266068,go,circleblack.png,z,0.35,,,,,,,,,,,,,,,,,,0.0013998150825500488,0.4895986244082451,0.8404928743839264,246.29756394028664,,,,,,,243.81287753582,244.3266857266426,244.31019159406424,244.31019159406424,244.66045938432217,245.16084956377745,245.3112675845623,246.31681328639388,z,0,0.8553678207099438,0.35,,,,,,,,,,,,s003,001,2024-04-11_12h58.54.807,simplestop_skeleton,2022.2.2,59.981319761529335,
None,None,,,,,,,,,0,0,0,0,2,0,8,2,,,,,,,,,246.29803938791156,stop,circleblack.png,z,0.35,,,,,,,,,,,,,,,,,,0.0020978935062885284,0.4885369800031185,0.8391953632235527,248.7993855662644,,,,,,,246.31681328639388,246.82956138253212,246.81287923827767,246.81287923827767,247.16343392431736,247.66368647664785,247.81419005990028,248.81827373057604,None,1,,0.4,,,,,,,,,,,,s003,001,2024-04-11_12h58.54.807,simplestop_skeleton,2022.2.2,59.981319761529335,
None,None,,,,,,,,,0,0,0,0,2,1,9,2,,,,,,,,,248.79970140755177,go,circleblack.png,z,0.4,,,,,,,,,,,,,,,,,,0.0013207532465457916,0.48820456117391586,0.8895392380654812,251.30251184105873,,,,,,,248.81827373057604,249.33075681328773,249.31401753425598,249.31401753425598,249.71520799025893,250.21640481427312,250.31647936999798,251.3215162716806,z,0,0.8478489927947521,0.4,,,,,,,,,,,,s003,001,2024-04-11_12h58.54.807,simplestop_skeleton,2022.2.2,59.981319761529335,
None,None,,,,,,,,,0,0,0,0,2,2,10,1,,,,,,,,,251.30283856019378,go,squareblack.png,m,0.4,,,,,,,,,,,,,,,,,,0.0016902349889278412,0.48970409482717514,0.8898061476647854,253.80410559475422,,,,,,,251.3215162716806,251.83508226647973,251.8181186132133,251.8181186132133,252.21882443502545,252.71949493139982,252.81948785111308,253.82187800481915,m,0,0.8319578617811203,0.4,,,,,,,,,,,,s003,001,2024-04-11_12h58.54.807,simplestop_skeleton,2022.2.2,59.981319761529335,
None,None,,,,,,,,,0,0,0,0,2,3,11,3,,,,,,,,,253.80443677306175,stop,squareblack.png,m,0.4,,,,,,,,,,,,,,,,,,0.0013196393847465515,0.4909677244722843,0.8891188688576221,256.3076627291739,,,,,,,253.82187800481915,254.32125701382756,254.32125701382756,254.32125701382756,254.71992545574903,255.22071872651577,255.32104575261474,256.32609121873975,None,1,,0.45,,,,,,,,,,,,s003,001,2024-04-11_12h58.54.807,simplestop_skeleton,2022.2.2,59.981319761529335,
$currentCorrectResponse,$currentGoStim,,,,,,,,,0,0,0,0,3,0,12,0,,,,,,,,,256.30797649919987,go,squareblack.png,m,0.45,,,,,,,,,,,,,,,,,,0.001187894493341446,0.4898471385240555,0.9424198716878891,258.81053886190057,,,,,,,256.32609121873975,256.84031473100185,256.8238781504333,256.8238781504333,257.27433836460114,257.77466782927513,257.824849486351,258.829361602664,m,0,0.779080156236887,0.45,,,,,,,,,,,,s003,001,2024-04-11_12h58.54.807,simplestop_skeleton,2022.2.2,59.981319761529335,
None,None,,,,,,,,,0,0,0,0,3,1,13,1,,,,,,,,,258.81086540594697,stop,squareblack.png,m,0.45,,,,,,,,,,,,,,,,,,0.001275859773159027,0.48981157317757607,0.9404014907777309,261.3135616146028,,,,,,,258.829361602664,259.3439882360399,259.3267195299268,259.3267195299268,259.7771166972816,260.2779131196439,260.3277138546109,261.33275087177753,None,1,,0.5,,,,,,,,,,,,s003,001,2024-04-11_12h58.54.807,simplestop_skeleton,2022.2.2,59.981319761529335,
None,None,,,,,,,,,0,0,0,0,3,2,14,3,,,,,,,,,261.31388936564326,go,circleblack.png,z,0.5,,,,,,,,,,,,,,,,,,0.001905832439661026,0.4891652949154377,0.990147802978754,263.81638461723924,,,,,,,261.33275087177753,261.8456019721925,261.828738193959,261.828738193959,262.33012353256345,262.8306408673525,262.8306408673525,263.83544502034783,z,0,0.7274734042584896,0.5,,,,,,,,,,,,s003,001,2024-04-11_12h58.54.807,simplestop_skeleton,2022.2.2,59.981319761529335,
None,None,,,,,,,,,0,0,0,0,3,3,15,1,,,,,,,,,263.8167017735541,stop,circleblack.png,z,0.5,,,,,,,,,,,,,,,,,,0.0014901123940944672,0.4898201823234558,0.9898464903235435,266.31864991784096,,,,,,,263.83544502034783,264.3489679135382,264.3319787234068,264.3319787234068,264.83296725153923,265.3333548158407,265.3333548158407,266.33801816403866,None,1,,0.55,,,,,,,,,,,,s003,001,2024-04-11_12h58.54.807,simplestop_skeleton,2022.2.2,59.981319761529335,
None,None,,,,,,,,,0,0,0,0,4,0,16,2,,,,,,,,,266.31896214187145,go,squareblack.png,m,0.55,,,,,,,,,,,,,,,,,,0.0017964430153369904,0.49008912593126297,1.0412346199154854,268.82140170410275,,,,,,,266.33801816403866,266.8514691181481,266.83482856303453,266.83482856303453,267.3875198215246,267.9028407409787,267.83583772554994,268.83981305733323,m,0,0.4561520554125309,0.55,,,,,,,,,,,,s003,001,2024-04-11_12h58.54.807,simplestop_skeleton,2022.2.2,59.981319761529335,
None,None,,,,,,,,,0,0,0,0,4,1,17,2,,,,,,,,,268.8217191286385,go,squareblack.png,m,0.55,,,,,,,,,,,,,,,,,,0.0012468509376049042,0.4902176968753338,1.0405132472515106,271.3244436196983,,,,,,,268.83981305733323,269.35421304032207,269.3375535532832,269.3375535532832,269.888256855309,270.38858956843615,270.3388511352241,271.34304221346974,m,0,0.7514509372413158,0.55,,,,,,,,,,,,s003,001,2024-04-11_12h58.54.807,simplestop_skeleton,2022.2.2,59.981319761529335,
None,None,,,,,,,,,0,0,0,0,4,2,18,1,,,,,,,,,271.32476619258523,go,squareblack.png,m,0.55,,,,,,,,,,,,,,,,,,0.0011809729039669037,0.4896843507885933,1.0405915454030037,273.8271989002824,,,,,,,271.34304221346974,271.8570079393685,271.8403788022697,271.8403788022697,272.3909004256129,272.8914676941931,272.841371178627,273.84626488387585,m,0,0.7236151918768883,0.55,,,,,,,,,,,,s003,001,2024-04-11_12h58.54.807,simplestop_skeleton,2022.2.2,59.981319761529335,
None,None,,,,,,,,,0,0,0,0,4,3,19,3,,,,,,,,,273.8275267370045,go,circleblack.png,z,0.55,,,,,,,,,,,,,,,,,,0.0018106624484062195,0.48985346034169197,1.040384080260992,276.32992067188025,,,,,,,273.84626488387585,274.359659999609,274.3431553542614,274.3431553542614,274.89371060952544,275.3943814262748,275.34419560432434,276.348592761904,z,0,0.6733864508569241,0.55,,,,,,,,,,,,s003,001,2024-04-11_12h58.54.807,simplestop_skeleton,2022.2.2,59.981319761529335,
$currentCorrectResponse,$currentGoStim,,,,,,,,,0,0,0,0,5,0,20,0,,,,,,,,,276.3302453830838,stop,circleblack.png,z,0.55,,,,,,,,,,,,,,,,,,0.0012462995946407318,0.48991284146904945,1.0404921025037766,278.8326686024666,,,,,,,276.348592761904,276.8624180108309,276.8458985760808,276.8458985760808,277.3963919468224,277.89701499044895,277.84702803194523,278.8515808843076,m,0,0.6357501037418842,0.5,,,,,,,,,,,,s003,001,2024-04-11_12h58.54.807,simplestop_skeleton,2022.2.2,59.981319761529335,
$currentCorrectResponse,$currentGoStim,,,,,,,,,0,0,0,0,5,1,21,0,,,,,,,,,278.83299734070897,go,circleblack.png,z,0.5,,,,,,,,,,,,,,,,,,0.0013315752148628235,0.48978187143802643,0.9902074262499809,281.33546344563365,,,,,,,278.8515808843076,279.3655378520489,279.34873769804835,279.34873769804835,279.8493360467255,280.34984750673175,280.34984750673175,281.35419154912233,m,0,0.772882591933012,0.5,,,,,,,,,,,,s003,001,2024-04-11_12h58.54.807,simplestop_skeleton,2022.2.2,59.981319761529335,
None,None,,,,,,,,,0,0,0,0,5,2,22,1,,,,,,,,,281.33578446507454,go,circleblack.png,z,0.5,,,,,,,,,,,,,,,,,,0.001369025558233261,0.4897128939628601,0.9902762807905674,283.8384249806404,,,,,,,281.35419154912233,281.8679481372237,281.85154980421066,281.85154980421066,282.3519941084087,282.8523149639368,282.8523149639368,283.8573740720749,m,0,0.6768345907330513,0.5,,,,,,,,,,,,s003,001,2024-04-11_12h58.54.807,simplestop_skeleton,2022.2.2,59.981319761529335,
$currentCorrectResponse,$currentGoStim,,,,,,,,,0,0,0,0,5,3,23,0,,,,,,,,,283.8387421965599,stop,squareblack.png,m,0.5,,,,,,,,,,,,,,,,,,0.0017359927296638489,0.4894614405930042,0.9901492595672607,286.34071685001254,,,,,,,283.8573740720749,284.3710844554007,284.35422974824905,284.35422974824905,284.85458201915026,285.355349868536,285.355349868536,286.3598434329033,None,0,,0.55,,,,,,,,,,,,s003,001,2024-04-11_12h58.54.807,simplestop_skeleton,2022.2.2,59.981319761529335,
None,None,,,,,,,,,0,0,0,0,6,0,24,3,,,,,,,,,286.3410234749317,stop,circleblack.png,z,0.55,,,,,,,,,,,,,,,,,,0.0018622241914272308,0.4901432953774929,1.0407824106514454,288.84397626668215,,,,,,,286.3598434329033,286.87367249652743,286.85706067457795,286.85706067457795,287.40739465877414,287.9082748964429,287.85805390030146,288.8628296069801,None,1,,0.6,,,,,,,,,,,,s003,001,2024-04-11_12h58.54.807,simplestop_skeleton,2022.2.2,59.981319761529335,
None,None,,,,,,,,,0,0,0,0,6,1,25,1,,,,,,,,,288.84431278705597,go,circleblack.png,z,0.6,,,,,,,,,,,,,,,,,,0.0013887472450733185,0.48958657309412956,1.0900819227099419,291.34668469429016,,,,,,,288.8628296069801,289.3762805201113,289.35981621593237,289.35981621593237,289.9601851850748,290.46032405272126,290.36026630550623,291.3655929081142,z,0,1.1259258724749088,0.6,,,,,,,,,,,,s003,001,2024-04-11_12h58.54.807,simplestop_skeleton,2022.2.2,59.981319761529335,
$currentCorrectResponse,$currentGoStim,,,,,,,,,0,0,0,0,6,2,26,0,,,,,,,,,291.34702429920435,stop,circleblack.png,z,0.6,,,,,,,,,,,,,,,,,,0.0013559386134147644,0.48949405178427696,1.089847382158041,293.84966710582376,,,,,,,291.3655929081142,291.8792787976563,291.8625748679042,291.8625748679042,292.4633096270263,292.9637403860688,292.8634658753872,293.86875335499644,z,0,0.620852280408144,0.55,,,,,,,,,,,,s003,001,2024-04-11_12h58.54.807,simplestop_skeleton,2022.2.2,59.981319761529335,
None,None,,,,,,,,,0,0,0,0,6,3,27,2,,,,,,,,,293.8499926738441,stop,squareblack.png,m,0.55,,,,,,,,,,,,,,,,,,0.0017168261110782623,0.48933399841189384,1.0400212928652763,296.35206635296345,,,,,,,293.86875335499644,294.38200357183814,294.3654630072415,294.3654630072415,294.9159413985908,295.41646295040846,295.36665831133723,296.3694830983877,None,1,,0.6,,,,,,,,,,,,s003,001,2024-04-11_12h58.54.807,simplestop_skeleton,2022.2.2,59.981319761529335,
None,None,,,,,,,,,0,0,0,0,7,0,28,1,,,,,,,,,296.3524514846504,go,squareblack.png,m,0.6,,,,,,,,,,,,,,,,,,0.001267939805984497,0.48964155837893486,1.090382307767868,298.854560546577,,,,,,,296.3694830983877,296.88471887633204,296.8682070784271,296.8682070784271,297.4685498178005,297.9693170040846,297.86947705224156,298.8729249238968,None,1,,0.6,,,,,,,,,,,,s003,001,2024-04-11_12h58.54.807,simplestop_skeleton,2022.2.2,59.981319761529335,
None,None,,,,,,,,,0,0,0,0,7,1,29,3,,,,,,,,,298.85486685857177,stop,squareblack.png,m,0.6,,,,,,,,,,,,,,,,,,0.0012033618986606598,0.4900510422885418,1.090858243405819,301.35775477439165,,,,,,,298.8729249238968,299.3873179666698,299.3708481490612,299.3708481490612,299.9714588969946,300.4722193516791,300.3718847632408,301.37637534737587,m,0,0.6218527890741825,0.55,,,,,,,,,,,,s003,001,2024-04-11_12h58.54.807,simplestop_skeleton,2022.2.2,59.981319761529335,
None,None,,,,,,,,,0,0,0,0,7,2,30,1,,,,,,,,,301.35807236656547,go,squareblack.png,m,0.55,,,,,,,,,,,,,,,,,,0.001323062926530838,0.48969004303216934,1.0404825061559677,303.8604860343039,,,,,,,301.37637534737587,301.89022777602077,301.87353579327464,301.87353579327464,302.42421797290444,302.9245123490691,302.87454618886113,303.88001779839396,m,0,0.47760292142629623,0.55,,,,,,,,,,,,s003,001,2024-04-11_12h58.54.807,simplestop_skeleton,2022.2.2,59.981319761529335,
None,None,,,,,,,,,0,0,0,0,7,3,31,1,,,,,,,,,303.8607992567122,go,circleblack.png,z,0.55,,,,,,,,,,,,,,,,,,0.002092719078063965,0.4896012656390667,1.04020282253623,306.36171370744705,,,,,,,303.88001779839396,304.3932932764292,304.37625140696764,304.37625140696764,304.92723401263356,305.42745353654027,305.3774531893432,306.3787923268974,z,0,0.8636464588344097,0.55,,,,,,,,,,,,s003,001,2024-04-11_12h58.54.807,simplestop_skeleton,2022.2.2,59.981319761529335,
None,None,,,,,,,,,0,0,0,0,8,0,32,1,,,,,,,,,306.36203202977777,go,squareblack.png,m,0.55,,,,,,,,,,,,,,,,,,0.001600939780473709,0.4915805980563164,1.0421090759336948,308.8659919016063,,,,,,,306.3787923268974,306.87904323264956,306.87904323264956,306.87904323264956,307.4295542240143,307.9301398023963,307.8801216110587,308.88440565764904,m,0,1.0988403670489788,0.55,,,,,,,,,,,,s003,001,2024-04-11_12h58.54.807,simplestop_skeleton,2022.2.2,59.981319761529335,
None,None,,,,,,,,,0,0,0,0,8,1,33,1,,,,,,,,,308.8663180619478,go,squareblack.png,m,0.55,,,,,,,,,,,,,,,,,,0.001248341053724289,0.48982909694314003,1.0403045192360878,311.3686792925,,,,,,,308.88440565764904,309.3985606096685,309.3818677328527,309.3818677328527,309.93247820436954,310.4328301772475,310.3831533975899,311.3878195285797,m,0,0.7298300825059414,0.55,,,,,,,,,,,,s003,001,2024-04-11_12h58.54.807,simplestop_skeleton,2022.2.2,59.981319761529335,
$currentCorrectResponse,$currentGoStim,,,,,,,,,0,0,0,0,8,2,34,0,,,,,,,,,311.3689851425588,go,circleblack.png,z,0.55,,,,,,,,,,,,,,,,,,0.0018320456147193909,0.4899380952119827,1.0408957190811634,313.87111251428723,,,,,,,311.3878195285797,311.9013048708439,311.8847650028765,311.8847650028765,312.4352761246264,312.93569089472294,312.8857597000897,313.88977751508355,z,0,0.8662057109177113,0.55,,,,,,,,,,,,s003,001,2024-04-11_12h58.54.807,simplestop_skeleton,2022.2.2,59.981319761529335,
None,None,,,,,,,,,0,0,0,0,8,3,35,3,,,,,,,,,313.8714272044599,go,circleblack.png,z,0.55,,,,,,,,,,,,,,,,,,0.0012516379356384277,0.490269023925066,1.040892381221056,316.37439465522766,,,,,,,313.88977751508355,314.40435848385096,314.38738748431206,314.38738748431206,314.9379922412336,315.43853794410825,315.38859847933054,316.393227994442,z,0,1.0918965004384518,0.55,,,,,,,,,,,,s003,001,2024-04-11_12h58.54.807,simplestop_skeleton,2022.2.2,59.981319761529335,
None,None,,,,,,,,,0,0,0,0,9,0,36,3,,,,,,,,,316.3747123107314,go,circleblack.png,z,0.55,,,,,,,,,,,,,,,,,,0.0014205127954483032,0.4896562993526459,1.0404194109141827,318.87690395116806,,,,,,,316.393227994442,316.90707674250007,316.8901012763381,316.8901012763381,317.44070764631033,317.9415549226105,317.8912580013275,318.8960551209748,z,0,0.4957684315741062,0.55,,,,,,,,,,,,s003,001,2024-04-11_12h58.54.807,simplestop_skeleton,2022.2.2,59.981319761529335,
None,None,,,,,,,,,0,0,0,0,9,1,37,1,,,,,,,,,318.87721236795187,stop,squareblack.png,m,0.55,,,,,,,,,,,,,,,,,,0.0016925819218158722,0.4897037446498871,1.0403623431921005,321.3797585070133,,,,,,,318.8960551209748,319.40975223481655,319.39287215843797,319.39287215843797,319.94357212632895,320.4444252625108,320.3942498713732,321.39839117228985,m,0,0.48862966150045395,0.5,,,,,,,,,,,,s003,001,2024-04-11_12h58.54.807,simplestop_skeleton,2022.2.2,59.981319761529335,
None,None,,,,,,,,,0,0,0,0,9,2,38,3,,,,,,,,,321.3800776563585,go,squareblack.png,m,0.5,,,,,,,,,,,,,,,,,,0.0013189055025577545,0.48963313549757004,0.9901136979460716,323.88238552212715,,,,,,,321.39839117228985,321.91223288699985,321.8957749530673,321.8957749530673,322.39664932340384,322.89706610515714,322.89706610515714,323.9017401225865,m,0,0.7013715617358685,0.5,,,,,,,,,,,,s003,001,2024-04-11_12h58.54.807,simplestop_skeleton,2022.2.2,59.981319761529335,
$currentCorrectResponse,$currentGoStim,,,,,,,,,0,0,0,0,9,3,39,0,,,,,,,,,323.8827003799379,go,circleblack.png,z,0.5,,,,,,,,,,,,,,,,,,0.0018474012613296509,0.4898591674864292,0.9905542731285095,326.38497845456004,,,,,,,323.9017401225865,324.41521855071187,324.3982857502997,324.3982857502997,324.8991911932826,325.3995477668941,325.3995477668941,326.4038808196783,z,0,0.6858990378677845,0.5,,,,,,,,,,,,s003,001,2024-04-11_12h58.54.807,simplestop_skeleton,2022.2.2,59.981319761529335,
None,None,,,,,,,,,0,0,0,0,10,0,40,2,,,,,,,,,326.3852901645005,go,squareblack.png,m,0.5,,,,,,,,,,,,,,,,,,0.0016517303884029388,0.4899137653410435,0.9905207492411137,328.88809495046735,,,,,,,326.4038808196783,326.9179916791618,326.90124053508043,326.90124053508043,327.40165838226676,327.9022253192961,327.9022253192961,328.90669267997146,m,0,0.3014012426137924,0.5,,,,,,,,,,,,s003,001,2024-04-11_12h58.54.807,simplestop_skeleton,2022.2.2,59.981319761529335,
$currentCorrectResponse,$currentGoStim,,,,,,,,,0,0,0,0,10,1,41,0,,,,,,,,,328.88841624185443,stop,squareblack.png,m,0.5,,,,,,,,,,,,,,,,,,0.0013083294034004211,0.489614587277174,0.9904160238802433,331.39057717844844,,,,,,,328.90669267997146,329.4212907291949,329.4040180668235,329.4040180668235,329.9050519131124,330.40514581277966,330.40514581277966,331.4097814783454,m,0,0.4979463443160057,0.45,,,,,,,,,,,,s003,001,2024-04-11_12h58.54.807,simplestop_skeleton,2022.2.2,59.981319761529335,
None,None,,,,,,,,,0,0,0,0,10,2,42,2,,,,,,,,,331.3908906728029,go,circleblack.png,z,0.45,,,,,,,,,,,,,,,,,,0.0017938315868377686,0.4898318834602833,0.9403328597545624,333.8935822658241,,,,,,,331.4097814783454,331.9236509092152,331.90678760409355,331.90678760409355,332.35715946927667,332.85750611126423,332.90736800059676,333.91219194605947,z,0,0.43951309472322464,0.45,,,,,,,,,,,,s003,001,2024-04-11_12h58.54.807,simplestop_skeleton,2022.2.2,59.981319761529335,
None,None,,,,,,,,,0,0,0,0,10,3,43,2,,,,,,,,,333.89388805627823,stop,circleblack.png,z,0.45,,,,,,,,,,,,,,,,,,0.001337055116891861,0.489908792078495,0.9402789399027824,336.39660124108195,,,,,,,333.91219194605947,334.4261579141021,334.40925931185484,334.40925931185484,334.8597157597542,335.36043176427484,335.4104401431978,336.4157590903342,z,0,0.5969926938414574,0.4,,,,,,,,,,,,s003,001,2024-04-11_12h58.54.807,simplestop_skeleton,2022.2.2,59.981319761529335,
None,None,,,,,,,,,0,0,0,0,11,0,44,3,,,,,,,,,336.3969131447375,go,squareblack.png,m,0.4,,,,,,,,,,,,,,,,,,0.0017728805541992188,0.48870648071169853,0.8896210826933384,338.89762942120433,,,,,,,336.4157590903342,336.92859491705894,336.9114714451134,336.9114714451134,337.3128026612103,337.81199740990996,337.9129112139344,338.9143472723663,m,0,0.6283395029604435,0.4,,,,,,,,,,,,s003,001,2024-04-11_12h58.54.807,simplestop_skeleton,2022.2.2,59.981319761529335,
None,None,,,,,,,,,0,0,0,0,11,1,45,2,,,,,,,,,338.89794723689556,go,squareblack.png,m,0.4,,,,,,,,,,,,,,,,,,0.0012356974184513092,0.4896255396306515,0.889982808381319,341.4002783447504,,,,,,,338.9143472723663,339.41367506980896,339.41367506980896,339.41367506980896,339.81396333128214,340.31475864723325,340.41488832235336,341.41831590235233,m,0,0.5757630132138729,0.4,,,,,,,,,,,,s003,001,2024-04-11_12h58.54.807,simplestop_skeleton,2022.2.2,59.981319761529335,
$currentCorrectResponse,$currentGoStim,,,,,,,,,0,0,0,0,11,2,46,0,,,,,,,,,341.40060881897807,stop,circleblack.png,z,0.4,,,,,,,,,,,,,,,,,,0.0018491186201572418,0.4898121617734432,0.890042919665575,343.90395046025515,,,,,,,341.41831590235233,341.9330421872437,341.9162501357496,341.9162501357496,342.31663035973907,342.8172895759344,342.9172365926206,343.9204065911472,None,0,,0.45,,,,,,,,,,,,s003,001,2024-04-11_12h58.54.807,simplestop_skeleton,2022.2.2,59.981319761529335,
None,None,,,,,,,,,0,0,0,0,11,3,47,3,,,,,,,,,343.90426832810044,go,circleblack.png,z,0.45,,,,,,,,,,,,,,,,,,0.001252785325050354,0.490107636898756,0.9411242045462132,346.40735330432653,,,,,,,343.9204065911472,344.42071291059256,344.42071291059256,344.42071291059256,344.87102356925607,345.3716756552458,345.42164438962936,346.4403165988624,z,0,1.1350647136569023,0.45,,,,,,,,,,,,s003,001,2024-04-11_12h58.54.807,simplestop_skeleton,2022.2.2,59.981319761529335,
,,,,,,,,,,0,0,0,0,,,,,,,,,,,,,,,,,,,,,,,,,,,,,,,,,,,,,,,,,,,,,,,,,,,,,,,,,"[{'fileName': 'circleblack.png', 'correct_response': 'z', 'condition': 'go'}, {'fileName': 'circleblack.png', 'correct_response': 'z', 'condition': 'go'}, {'fileName': 'circleblack.png', 'correct_response': 'z', 'condition': 'stop'}, {'fileName': 'circleblack.png', 'correct_response': 'z', 'condition': 'go'}, {'fileName': 'squareblack.png', 'correct_response': 'm', 'condition': 'stop'}, {'fileName': 'circleblack.png', 'correct_response': 'z', 'condition': 'go'}, {'fileName': 'squareblack.png', 'correct_response': 'm', 'condition': 'go'}, {'fileName': 'squareblack.png', 'correct_response': 'm', 'condition': 'stop'}, {'fileName': 'squareblack.png', 'correct_response': 'm', 'condition': 'go'}, {'fileName': 'circleblack.png', 'correct_response': 'z', 'condition': 'stop'}, {'fileName': 'squareblack.png', 'correct_response': 'm', 'condition': 'go'}, {'fileName': 'squareblack.png', 'correct_response': 'm', 'condition': 'go'}, {'fileName': 'circleblack.png', 'correct_response': 'z', 'condition': 'stop'}, {'fileName': 'circleblack.png', 'correct_response': 'z', 'condition': 'go'}, {'fileName': 'circleblack.png', 'correct_response': 'z', 'condition': 'stop'}, {'fileName': 'squareblack.png', 'correct_response': 'm', 'condition': 'go'}, {'fileName': 'circleblack.png', 'correct_response': 'z', 'condition': 'go'}, {'fileName': 'circleblack.png', 'correct_response': 'z', 'condition': 'go'}, {'fileName': 'circleblack.png', 'correct_response': 'z', 'condition': 'go'}, {'fileName': 'squareblack.png', 'correct_response': 'm', 'condition': 'go'}, {'fileName': 'squareblack.png', 'correct_response': 'm', 'condition': 'go'}, {'fileName': 'squareblack.png', 'correct_response': 'm', 'condition': 'stop'}, {'fileName': 'squareblack.png', 'correct_response': 'm', 'condition': 'stop'}, {'fileName': 'squareblack.png', 'correct_response': 'm', 'condition': 'go'}, {'fileName': 'circleblack.png', 'correct_response': 'z', 'condition': 'go'}, {'fileName': 'circleblack.png', 'correct_response': 'z', 'condition': 'go'}, {'fileName': 'circleblack.png', 'correct_response': 'z', 'condition': 'go'}, {'fileName': 'squareblack.png', 'correct_response': 'm', 'condition': 'stop'}, {'fileName': 'squareblack.png', 'correct_response': 'm', 'condition': 'go'}, {'fileName': 'squareblack.png', 'correct_response': 'm', 'condition': 'stop'}, {'fileName': 'circleblack.png', 'correct_response': 'z', 'condition': 'stop'}, {'fileName': 'squareblack.png', 'correct_response': 'm', 'condition': 'go'}, {'fileName': 'squareblack.png', 'correct_response': 'm', 'condition': 'go'}, {'fileName': 'circleblack.png', 'correct_response': 'z', 'condition': 'stop'}, {'fileName': 'circleblack.png', 'correct_response': 'z', 'condition': 'go'}, {'fileName': 'squareblack.png', 'correct_response': 'm', 'condition': 'go'}, {'fileName': 'squareblack.png', 'correct_response': 'm', 'condition': 'stop'}, {'fileName': 'circleblack.png', 'correct_response': 'z', 'condition': 'stop'}, {'fileName': 'squareblack.png', 'correct_response': 'm', 'condition': 'stop'}, {'fileName': 'squareblack.png', 'correct_response': 'm', 'condition': 'go'}, {'fileName': 'circleblack.png', 'correct_response': 'z', 'condition': 'go'}, {'fileName': 'circleblack.png', 'correct_response': 'z', 'condition': 'stop'}, {'fileName': 'circleblack.png', 'correct_response': 'z', 'condition': 'go'}, {'fileName': 'circleblack.png', 'correct_response': 'z', 'condition': 'go'}, {'fileName': 'squareblack.png', 'correct_response': 'm', 'condition': 'go'}, {'fileName': 'squareblack.png', 'correct_response': 'm', 'condition': 'go'}, {'fileName': 'circleblack.png', 'correct_response': 'z', 'condition': 'go'}, {'fileName': 'squareblack.png', 'correct_response': 'm', 'condition': 'go'}]",346.4403165988624,346.4403165988624,return,30.70776467770338,,,,,,,s003,001,2024-04-11_12h58.54.807,simplestop_skeleton,2022.2.2,59.981319761529335,
None,None,,,,,,,,,1,0,1,0,0,0,0,2,,,,,,,,,377.1646713465452,go,circleblack.png,z,0.45,,,,,,,,,,,,,,,,,,0.0012521035969257355,0.48257457092404366,0.9331002794206142,379.660987239331,,,,,,,377.1829675398767,377.6903804317117,377.6737085469067,377.6737085469067,378.1243962422013,378.62482030689716,378.67477522417903,379.6798012070358,z,0,0.9722136594355106,0.45,,,,,,,,,,,,s003,001,2024-04-11_12h58.54.807,simplestop_skeleton,2022.2.2,59.981319761529335,
$currentCorrectResponse,$currentGoStim,,,,,,,,,1,0,1,0,0,1,1,0,,,,,,,,,379.66131262108684,go,circleblack.png,z,0.45,,,,,,,,,,,,,,,,,,0.0014240816235542297,0.4898258112370968,0.9398392252624035,382.1635913848877,,,,,,,379.6798012070358,380.1932669468224,380.1768416278064,380.1768416278064,380.6273115836084,381.1439281888306,381.17717250809073,382.1821637786925,z,0,0.5556548796594143,0.45,,,,,,,,,,,,s003,001,2024-04-11_12h58.54.807,simplestop_skeleton,2022.2.2,59.981319761529335,
None,None,,,,,,,,,1,0,1,0,0,2,2,2,,,,,,,,,382.16390585899353,stop,circleblack.png,z,0.45,,,,,,,,,,,,,,,,,,0.001320376992225647,0.48984573781490326,0.9405023008584976,384.66614574193954,,,,,,,382.1821637786925,382.69597405940294,382.6794176623225,382.6794176623225,383.12995103001595,383.6299730166793,383.68003936856985,384.68481696024537,z,0,0.540558896958828,0.4,,,,,,,,,,,,s003,001,2024-04-11_12h58.54.807,simplestop_skeleton,2022.2.2,59.981319761529335,
None,None,,,,,,,,,1,0,1,0,0,3,3,3,,,,,,,,,384.6664650924504,go,circleblack.png,z,0.4,,,,,,,,,,,,,,,,,,0.0012662895023822784,0.489961713552475,0.8903062306344509,387.16887306794524,,,,,,,384.68481696024537,385.19869124516845,385.18209305778146,385.18209305778146,385.5824837759137,386.0828836001456,386.182581320405,387.1880170032382,z,0,0.5947076119482517,0.4,,,,,,,,,,,,s003,001,2024-04-11_12h58.54.807,simplestop_skeleton,2022.2.2,59.981319761529335,
$currentCorrectResponse,$currentGoStim,,,,,,,,,1,0,1,0,1,0,4,0,,,,,,,,,387.1691998541355,stop,squareblack.png,m,0.4,,,,,,,,,,,,,,,,,,0.0017126910388469696,0.48995373025536537,0.8901745453476906,389.67171308770776,,,,,,,387.1880170032382,387.70125656202435,387.6846891604364,387.6846891604364,388.0851738974452,388.58564406633377,388.68582290038466,389.69035981968045,None,0,,0.45,,,,,,,,,,,,s003,001,2024-04-11_12h58.54.807,simplestop_skeleton,2022.2.2,59.981319761529335,
None,None,,,,,,,,,1,0,1,0,1,1,5,2,,,,,,,,,389.67203187197447,go,circleblack.png,z,0.45,,,,,,,,,,,,,,,,,,0.0017310641705989838,0.4899267926812172,0.9403571300208569,392.1742025204003,,,,,,,389.69035981968045,390.20423452183604,390.18752285838127,390.18752285838127,390.63820362463593,391.13849303498864,391.1886425614357,392.193173725158,z,0,0.823233462870121,0.45,,,,,,,,,,,,s003,001,2024-04-11_12h58.54.807,simplestop_skeleton,2022.2.2,59.981319761529335,
None,None,,,,,,,,,1,0,1,0,1,2,6,1,,,,,,,,,392.17451291158795,go,squareblack.png,m,0.45,,,,,,,,,,,,,,,,,,0.001659844070672989,0.4899536073207855,0.9407922551035881,394.67700854316354,,,,,,,392.193173725158,392.70715306326747,392.69039023295045,392.69039023295045,393.14072747156024,393.6399700008333,393.6911176890135,394.6952305994928,m,0,0.6197156235575676,0.45,,,,,,,,,,,,s003,001,2024-04-11_12h58.54.807,simplestop_skeleton,2022.2.2,59.981319761529335,
$currentCorrectResponse,$currentGoStim,,,,,,,,,1,0,1,0,1,3,7,0,,,,,,,,,394.67732644826174,stop,squareblack.png,m,0.45,,,,,,,,,,,,,,,,,,0.0011920109391212463,0.48989540338516235,0.940489336848259,397.17974672839046,,,,,,,394.6952305994928,395.20963080227375,395.1932762786746,395.1932762786746,395.6434248313308,396.143405996263,396.19370670616627,397.19744745641947,m,0,0.5223006494343281,0.4,,,,,,,,,,,,s003,001,2024-04-11_12h58.54.807,simplestop_skeleton,2022.2.2,59.981319761529335,
None,None,,,,,,,,,1,0,1,0,2,0,8,2,,,,,,,,,397.1800643503666,go,squareblack.png,m,0.4,,,,,,,,,,,,,,,,,,0.0011823587119579315,0.4897490181028843,0.8904388658702374,399.68227529898286,,,,,,,397.19744745641947,397.7124709635973,397.69577381387353,397.69577381387353,398.0963077917695,398.5954314880073,398.6963673271239,399.70153790712357,m,0,0.5680988095700741,0.4,,,,,,,,,,,,s003,001,2024-04-11_12h58.54.807,simplestop_skeleton,2022.2.2,59.981319761529335,
None,None,,,,,,,,,1,0,1,0,2,1,9,2,,,,,,,,,399.68259298056364,stop,circleblack.png,z,0.4,,,,,,,,,,,,,,,,,,0.001959342509508133,0.49013758823275566,0.8906322009861469,402.18543318659067,,,,,,,399.70153790712357,400.21515337750316,400.19869008660316,400.19869008660316,400.5992562286556,401.09978353232145,401.1998538784683,402.2044662795961,None,1,,0.45,,,,,,,,,,,,s003,001,2024-04-11_12h58.54.807,simplestop_skeleton,2022.2.2,59.981319761529335,
$currentCorrectResponse,$currentGoStim,,,,,,,,,1,0,1,0,2,2,10,0,,,,,,,,,402.185753852129,go,squareblack.png,m,0.45,,,,,,,,,,,,,,,,,,0.0016547217965126038,0.4898939020931721,0.9404915757477283,404.68860376626253,,,,,,,402.2044662795961,402.7180817462504,402.7015162706375,402.7015162706375,403.1521388441324,403.65181241557,403.7015931122005,404.7070231102407,m,0,0.5382860153913498,0.45,,,,,,,,,,,,s003,001,2024-04-11_12h58.54.807,simplestop_skeleton,2022.2.2,59.981319761529335,
$currentCorrectResponse,$currentGoStim,,,,,,,,,1,0,1,0,2,3,11,0,,,,,,,,,404.688916452229,go,squareblack.png,m,0.45,,,,,,,,,,,,,,,,,,0.001364436000585556,0.489475030452013,0.9400603398680687,407.1918379254639,,,,,,,404.7070231102407,405.22112967818975,405.2042257376015,405.2042257376015,405.65458407998085,406.154714435339,406.2047957032919,407.211252707988,m,0,0.4777519665658474,0.45,,,,,,,,,,,,s003,001,2024-04-11_12h58.54.807,simplestop_skeleton,2022.2.2,59.981319761529335,
$currentCorrectResponse,$currentGoStim,,,,,,,,,1,0,1,0,3,0,12,0,,,,,,,,,407.192156534642,stop,circleblack.png,z,0.45,,,,,,,,,,,,,,,,,,0.002649553120136261,0.48916733264923096,0.9398292936384678,409.6935900710523,,,,,,,407.211252707988,407.7235354036093,407.70706744864583,407.70706744864583,408.1574065461755,408.657358109951,408.7071531377733,409.71227131411433,z,0,0.5163538120687008,0.4,,,,,,,,,,,,s003,001,2024-04-11_12h58.54.807,simplestop_skeleton,2022.2.2,59.981319761529335,
None,None,,,,,,,,,1,0,1,0,3,1,13,1,,,,,,,,,409.6938948146999,go,circleblack.png,z,0.4,,,,,,,,,,,,,,,,,,0.0013393275439739227,0.49026255682110786,0.8904684670269489,412.1965457871556,,,,,,,409.71227131411433,410.226616576314,410.2097077034414,410.2097077034414,410.6104278154671,411.11102752014995,411.2109752856195,412.2151267454028,z,0,0.7199764996767044,0.4,,,,,,,,,,,,s003,001,2024-04-11_12h58.54.807,simplestop_skeleton,2022.2.2,59.981319761529335,
None,None,,,,,,,,,1,0,1,0,3,2,14,1,,,,,,,,,412.1968568637967,stop,circleblack.png,z,0.4,,,,,,,,,,,,,,,,,,0.0012540370225906372,0.48989659175276756,0.8904881998896599,414.6993309035897,,,,,,,412.2151267454028,412.72898922115564,412.7125304341316,412.7125304341316,413.11282482370734,413.6136304810643,413.7138842083514,414.71833850070834,None,1,,0.45,,,,,,,,,,,,s003,001,2024-04-11_12h58.54.807,simplestop_skeleton,2022.2.2,59.981319761529335,
None,None,,,,,,,,,1,0,1,0,3,3,15,1,,,,,,,,,414.69963951408863,go,squareblack.png,m,0.45,,,,,,,,,,,,,,,,,,0.0016872957348823547,0.489878386259079,0.9408781416714191,417.2019988410175,,,,,,,414.71833850070834,415.23224594816566,415.215344581753,415.215344581753,415.66582744568586,416.1656851358712,416.21607753261924,417.2210758700967,m,0,0.4251466728746891,0.45,,,,,,,,,,,,s003,001,2024-04-11_12h58.54.807,simplestop_skeleton,2022.2.2,59.981319761529335,
$currentCorrectResponse,$currentGoStim,,,,,,,,,1,0,1,0,4,0,16,0,,,,,,,,,417.2023170813918,go,circleblack.png,z,0.45,,,,,,,,,,,,,,,,,,0.0018495172262191772,0.4898059219121933,0.9406033083796501,419.7050486654043,,,,,,,417.2210758700967,417.73469196259975,417.7182025127113,417.7182025127113,418.16857928037643,418.6687860675156,418.7182990796864,419.72340304777026,m,0,0.3720032051205635,0.45,,,,,,,,,,,,s003,001,2024-04-11_12h58.54.807,simplestop_skeleton,2022.2.2,59.981319761529335,
None,None,,,,,,,,,1,0,1,0,4,1,17,1,,,,,,,,,419.7053579837084,go,circleblack.png,z,0.45,,,,,,,,,,,,,,,,,,0.0013299696147441864,0.489919938147068,0.9404683634638786,422.2074138149619,,,,,,,419.72340304777026,420.2373893857002,420.22100691497326,420.22100691497326,420.67157700285316,421.17136453837156,421.2211511991918,422.2258947044611,z,0,0.6549000665545464,0.45,,,,,,,,,,,,s003,001,2024-04-11_12h58.54.807,simplestop_skeleton,2022.2.2,59.981319761529335,
None,None,,,,,,,,,1,0,1,0,4,2,18,2,,,,,,,,,422.20771984010935,go,circleblack.png,z,0.45,,,,,,,,,,,,,,,,,,0.0012463517487049103,0.4899674616754055,0.9404592290520668,424.71021376922727,,,,,,,422.2258947044611,422.74036394432187,422.72338324040174,422.72338324040174,423.17421074956656,423.6738983131945,423.72427286207676,424.7292782999575,z,0,0.5699732042849064,0.45,,,,,,,,,,,,s003,001,2024-04-11_12h58.54.807,simplestop_skeleton,2022.2.2,59.981319761529335,
None,None,,,,,,,,,1,0,1,0,4,3,19,2,,,,,,,,,424.7105221860111,go,squareblack.png,m,0.45,,,,,,,,,,,,,,,,,,0.0017956756055355072,0.4898773245513439,0.940547239035368,427.2131127305329,,,,,,,424.7292782999575,425.24286456406116,425.2263734340668,425.2263734340668,425.6767818555236,426.17682745680213,426.2269356921315,427.2312790378928,m,0,0.5408422239124775,0.45,,,,,,,,,,,,s003,001,2024-04-11_12h58.54.807,simplestop_skeleton,2022.2.2,59.981319761529335,
None,None,,,,,,,,,1,0,1,0,5,0,20,3,,,,,,,,,427.2134283222258,go,squareblack.png,m,0.45,,,,,,,,,,,,,,,,,,0.0011849217116832733,0.48975618556141853,0.9402527660131454,429.71583576500416,,,,,,,427.2312790378928,427.74551002681255,427.7288750037551,427.7288750037551,428.1795289553702,428.6793272010982,428.7298000603914,429.7341910228133,m,0,0.5570381805300713,0.45,,,,,,,,,,,,s003,001,2024-04-11_12h58.54.807,simplestop_skeleton,2022.2.2,59.981319761529335,
$currentCorrectResponse,$currentGoStim,,,,,,,,,1,0,1,0,5,1,21,0,,,,,,,,,429.7161444798112,stop,squareblack.png,m,0.45,,,,,,,,,,,,,,,,,,0.0011759176850318909,0.4899405352771282,0.9404861778020859,432.21857265755534,,,,,,,429.7341910228133,430.2484108954668,430.23192343488336,430.23192343488336,430.6824788749218,431.1831479482353,431.23293474689126,432.23660135641694,None,0,,0.5,,,,,,,,,,,,s003,001,2024-04-11_12h58.54.807,simplestop_skeleton,2022.2.2,59.981319761529335,
None,None,,,,,,,,,1,0,1,0,5,2,22,3,,,,,,,,,432.21889865398407,stop,squareblack.png,m,0.5,,,,,,,,,,,,,,,,,,0.00119100883603096,0.49035151302814484,0.990670956671238,434.72115441411734,,,,,,,432.23660135641694,432.7512309588492,432.7345593869686,432.7345593869686,433.235128313303,433.73570508882403,433.73570508882403,434.7394884042442,m,0,0.7687661312520504,0.45,,,,,,,,,,,,s003,001,2024-04-11_12h58.54.807,simplestop_skeleton,2022.2.2,59.981319761529335,
None,None,,,,,,,,,1,0,1,0,5,3,23,3,,,,,,,,,434.72147381305695,go,squareblack.png,m,0.45,,,,,,,,,,,,,,,,,,0.0011799149215221405,0.48997045308351517,0.9404926337301731,437.2241498269141,,,,,,,434.7394884042442,435.25373781472445,435.2371355108917,435.2371355108917,435.68781716004014,436.18814250454307,436.2407268770039,437.2434577345848,m,0,0.8427973911166191,0.45,,,,,,,,,,,,s003,001,2024-04-11_12h58.54.807,simplestop_skeleton,2022.2.2,59.981319761529335,
None,None,,,,,,,,,1,0,1,0,6,0,24,1,,,,,,,,,437.2244602292776,go,circleblack.png,z,0.45,,,,,,,,,,,,,,,,,,0.0019379518926143646,0.48948032408952713,0.940239392220974,439.7270089201629,,,,,,,437.2434577345848,437.75668304413557,437.7400504797697,437.7400504797697,438.1906170360744,438.69088796526194,438.7410178333521,439.74533408507705,z,0,1.001832876354456,0.45,,,,,,,,,,,,s003,001,2024-04-11_12h58.54.807,simplestop_skeleton,2022.2.2,59.981319761529335,
$currentCorrectResponse,$currentGoStim,,,,,,,,,1,0,1,0,6,1,25,0,,,,,,,,,439.72733130306005,go,circleblack.png,z,0.45,,,,,,,,,,,,,,,,,,0.0012674890458583832,0.4901817813515663,0.9406139925122261,442.2296539582312,,,,,,,439.74533408507705,440.25950334593654,440.2429941408336,440.2429941408336,440.69345061481,441.19375298544765,441.2442388497293,442.2482608035207,z,0,0.6561375521123409,0.45,,,,,,,,,,,,s003,001,2024-04-11_12h58.54.807,simplestop_skeleton,2022.2.2,59.981319761529335,
None,None,,,,,,,,,1,0,1,0,6,2,26,2,,,,,,,,,442.2299685627222,go,circleblack.png,z,0.45,,,,,,,,,,,,,,,,,,0.0012515075504779816,0.49003977701067924,0.9405522011220455,444.7325152531266,,,,,,,442.2482608035207,442.7624590918422,442.74588342010975,442.74588342010975,443.19631619378924,443.69678227975965,443.74541836231947,444.7513557225466,z,0,0.6616852171719074,0.45,,,,,,,,,,,,s003,001,2024-04-11_12h58.54.807,simplestop_skeleton,2022.2.2,59.981319761529335,
None,None,,,,,,,,,1,0,1,0,6,3,27,3,,,,,,,,,444.73281824588776,stop,squareblack.png,m,0.45,,,,,,,,,,,,,,,,,,0.0016050487756729126,0.48986831679940224,0.9403747692704201,447.2353087775409,,,,,,,444.7513557225466,445.2649276256561,445.24855218082666,445.24855218082666,445.6989256069064,446.1997177414596,446.2496658489108,447.2538572922349,None,1,,0.5,,,,,,,,,,,,s003,001,2024-04-11_12h58.54.807,simplestop_skeleton,2022.2.2,59.981319761529335,
None,None,,,,,,,,,1,0,1,0,7,0,28,2,,,,,,,,,447.2356294579804,go,squareblack.png,m,0.5,,,,,,,,,,,,,,,,,,0.001182403415441513,0.49002639576792717,0.9905159845948219,449.73775074630976,,,,,,,447.2538572922349,447.767833635211,447.7511093430221,447.7511093430221,448.25165232270956,448.75160482898355,448.75160482898355,449.7558707855642,m,0,0.5886882171034813,0.5,,,,,,,,,,,,s003,001,2024-04-11_12h58.54.807,simplestop_skeleton,2022.2.2,59.981319761529335,
None,None,,,,,,,,,1,0,1,0,7,1,29,3,,,,,,,,,449.7380557432771,stop,squareblack.png,m,0.5,,,,,,,,,,,,,,,,,,0.0011846832931041718,0.49019547551870346,0.9908011294901371,452.241198502481,,,,,,,449.7558707855642,450.27069467306137,450.2538567632437,450.2538567632437,450.754403244704,451.25482649728656,451.25482649728656,452.2605034187436,None,1,,0.55,,,,,,,,,,,,s003,001,2024-04-11_12h58.54.807,simplestop_skeleton,2022.2.2,59.981319761529335,
None,None,,,,,,,,,1,0,1,0,7,2,30,1,,,,,,,,,452.2415150888264,stop,circleblack.png,z,0.55,,,,,,,,,,,,,,,,,,0.001914776861667633,0.4893319569528103,1.0420692823827267,454.74349124729633,,,,,,,452.2605034187436,452.7732971794903,452.75675711780787,452.75675711780787,453.307304199785,453.8077472820878,453.7571260780096,454.7625321634114,z,0,0.37418778985738754,0.5,,,,,,,,,,,,s003,001,2024-04-11_12h58.54.807,simplestop_skeleton,2022.2.2,59.981319761529335,
None,None,,,,,,,,,1,0,1,0,7,3,31,2,,,,,,,,,454.7438145391643,go,squareblack.png,m,0.5,,,,,,,,,,,,,,,,,,0.001599632203578949,0.4897717162966728,0.990682203322649,457.246085844934,,,,,,,454.7625321634114,455.2762195542455,455.25933272764087,455.25933272764087,455.75999074056745,456.26069843024015,456.26069843024015,457.26425421610475,m,0,0.7293085269629955,0.5,,,,,,,,,,,,s003,001,2024-04-11_12h58.54.807,simplestop_skeleton,2022.2.2,59.981319761529335,
None,None,,,,,,,,,1,0,1,0,8,0,32,1,,,,,,,,,457.24640310928226,go,squareblack.png,m,0.5,,,,,,,,,,,,,,,,,,0.0011810213327407837,0.48995473608374596,0.9905498288571835,459.74892891943455,,,,,,,457.26425421610475,457.7787666544318,457.762026835233,457.762026835233,458.2628879919648,458.76321068406105,458.76321068406105,459.76795845478773,m,0,0.6926874071359634,0.5,,,,,,,,,,,,s003,001,2024-04-11_12h58.54.807,simplestop_skeleton,2022.2.2,59.981319761529335,
$currentCorrectResponse,$currentGoStim,,,,,,,,,1,0,1,0,8,1,33,0,,,,,,,,,459.7492417022586,stop,circleblack.png,z,0.5,,,,,,,,,,,,,,,,,,0.0017732679843902588,0.49002695083618164,0.9904168248176575,462.2514856867492,,,,,,,459.76795845478773,460.28135526925325,460.2647524289787,460.2647524289787,460.7654454745352,461.26579336076975,461.26579336076975,462.2710034362972,None,0,,0.55,,,,,,,,,,,,s003,001,2024-04-11_12h58.54.807,simplestop_skeleton,2022.2.2,59.981319761529335,
None,None,,,,,,,,,1,0,1,0,8,2,34,3,,,,,,,,,462.2518039122224,go,circleblack.png,z,0.55,,,,,,,,,,,,,,,,,,0.001330152153968811,0.4898667335510254,1.040413286536932,464.754602085799,,,,,,,462.2710034362972,462.7842016816139,462.76763539388776,462.76763539388776,463.3182208016515,463.81865821033716,463.768658682704,464.77322060987353,z,0,0.8066231086850166,0.55,,,,,,,,,,,,s003,001,2024-04-11_12h58.54.807,simplestop_skeleton,2022.2.2,59.981319761529335,
None,None,,,,,,,,,1,0,1,0,8,3,35,3,,,,,,,,,464.75492057949305,go,squareblack.png,m,0.55,,,,,,,,,,,,,,,,,,0.001595187932252884,0.4898572042584419,1.0404097214341164,467.2570485956967,,,,,,,464.77322060987353,465.2874754779041,465.27040223777294,465.27040223777294,465.8211479857564,466.3209853991866,466.2702415622771,467.27559489011765,m,0,0.6785932146012783,0.55,,,,,,,,,,,,s003,001,2024-04-11_12h58.54.807,simplestop_skeleton,2022.2.2,59.981319761529335,
None,None,,,,,,,,,1,0,1,0,9,0,36,3,,,,,,,,,467.25735518708825,stop,squareblack.png,m,0.55,,,,,,,,,,,,,,,,,,0.0012087300419807434,0.4900798760354519,1.0404809601604939,469.7599861808121,,,,,,,467.27559489011765,467.7898736782372,467.7732569016516,467.7732569016516,468.3239747621119,468.82441532611847,468.7743902541697,469.7791579514742,None,1,,0.6,,,,,,,,,,,,s003,001,2024-04-11_12h58.54.807,simplestop_skeleton,2022.2.2,59.981319761529335,
$currentCorrectResponse,$currentGoStim,,,,,,,,,1,0,1,0,9,1,37,0,,,,,,,,,469.76029624789953,stop,circleblack.png,z,0.6,,,,,,,,,,,,,,,,,,0.0018356814980506897,0.49011823907494545,1.0904104746878147,472.2627991400659,,,,,,,469.7791579514742,470.2924835756421,470.27590949088335,470.27590949088335,470.8765737377107,471.37721217796206,471.2769128754735,472.2822546213865,None,0,,0.65,,,,,,,,,,,,s003,001,2024-04-11_12h58.54.807,simplestop_skeleton,2022.2.2,59.981319761529335,
None,None,,,,,,,,,1,0,1,0,9,2,38,3,,,,,,,,,472.2631201148033,stop,squareblack.png,m,0.65,,,,,,,,,,,,,,,,,,0.0016632936894893646,0.489785760641098,1.1405363529920578,474.76561922207475,,,,,,,472.2822546213865,472.7954065799713,472.7788564749062,472.7788564749062,473.4293447472155,473.9297629259527,473.7829518839717,474.78395318612456,m,0,0.8314363993704319,0.6,,,,,,,,,,,,s003,001,2024-04-11_12h58.54.807,simplestop_skeleton,2022.2.2,59.981319761529335,
None,None,,,,,,,,,1,0,1,0,9,3,39,3,,,,,,,,,474.7659346163273,go,squareblack.png,m,0.6,,,,,,,,,,,,,,,,,,0.001174788922071457,0.48983265459537506,1.0905012115836143,477.26840459927917,,,,,,,474.78395318612456,475.2982327863574,475.2816615141928,475.2816615141928,475.8821800239384,476.3822879306972,476.28200136870146,477.2874558493495,m,0,0.5443053543567657,0.6,,,,,,,,,,,,s003,001,2024-04-11_12h58.54.807,simplestop_skeleton,2022.2.2,59.981319761529335,
None,None,,,,,,,,,1,0,1,0,10,0,40,1,,,,,,,,,477.2687357664108,go,circleblack.png,z,0.6,,,,,,,,,,,,,,,,,,0.0019488334655761719,0.48974641412496567,1.0901082269847393,479.77093835920095,,,,,,,477.2874558493495,477.80094562470913,477.7843963354826,477.7843963354826,478.38509790971875,478.88538022339344,478.78497283905745,479.78839314356446,z,0,0.4009826146066189,0.6,,,,,,,,,,,,s003,001,2024-04-11_12h58.54.807,simplestop_skeleton,2022.2.2,59.981319761529335,
None,None,,,,,,,,,1,0,1,0,10,1,41,2,,,,,,,,,479.77124428004026,stop,circleblack.png,z,0.6,,,,,,,,,,,,,,,,,,0.0012427158653736115,0.49016663432121277,1.0904814414680004,482.2737200409174,,,,,,,479.78839314356446,480.30404617264867,480.28731087595224,480.28731087595224,480.8875630758703,481.3884420879185,481.2881460264325,482.29255490005016,z,0,0.7114686071872711,0.55,,,,,,,,,,,,s003,001,2024-04-11_12h58.54.807,simplestop_skeleton,2022.2.2,59.981319761529335,
None,None,,,,,,,,,1,0,1,0,10,2,42,1,,,,,,,,,482.2740433514118,go,circleblack.png,z,0.55,,,,,,,,,,,,,,,,,,0.001326240599155426,0.4896770864725113,1.0403221361339092,484.7766021229327,,,,,,,482.29255490005016,482.8065202832222,482.7899827733636,482.7899827733636,483.34042347222567,483.84088791906834,483.7907889485359,484.7951730787754,z,0,0.7800654098391533,0.55,,,,,,,,,,,,s003,001,2024-04-11_12h58.54.807,simplestop_skeleton,2022.2.2,59.981319761529335,
None,None,,,,,,,,,1,0,1,0,10,3,43,1,,,,,,,,,484.7769179493189,go,circleblack.png,z,0.55,,,,,,,,,,,,,,,,,,0.001397397369146347,0.48956330493092537,1.0403252094984055,487.27923210710287,,,,,,,484.7951730787754,485.30915025249124,485.29231157526374,485.29231157526374,485.84288270771503,486.34225345775485,486.2926131002605,487.2984147705138,z,0,0.6126692816615105,0.55,,,,,,,,,,,,s003,001,2024-04-11_12h58.54.807,simplestop_skeleton,2022.2.2,59.981319761529335,
None,None,,,,,,,,,1,0,1,0,11,0,44,2,,,,,,,,,487.2795476876199,go,squareblack.png,m,0.55,,,,,,,,,,,,,,,,,,0.00180879607796669,0.48989638686180115,1.0406269617378712,489.7822274379432,,,,,,,487.2984147705138,487.81186444684863,487.795109000057,487.795109000057,488.34565756469965,488.8457807302475,488.79594487696886,489.80055613443255,m,0,0.4945904538035393,0.55,,,,,,,,,,,,s003,001,2024-04-11_12h58.54.807,simplestop_skeleton,2022.2.2,59.981319761529335,
None,None,,,,,,,,,1,0,1,0,11,1,45,3,,,,,,,,,489.7825462408364,go,squareblack.png,m,0.55,,,,,,,,,,,,,,,,,,0.0012355148792266846,0.4899468794465065,1.0404624342918396,492.28477980196476,,,,,,,489.80055613443255,490.3151841722429,490.2981228604913,490.2981228604913,490.84905640408397,491.34840823709965,491.2987754419446,492.3037729077041,m,0,0.547887247055769,0.55,,,,,,,,,,,,s003,001,2024-04-11_12h58.54.807,simplestop_skeleton,2022.2.2,59.981319761529335,
None,None,,,,,,,,,1,0,1,0,11,2,46,1,,,,,,,,,492.2850888967514,go,circleblack.png,z,0.55,,,,,,,,,,,,,,,,,,0.0018031634390354156,0.4898925982415676,1.0408019125461578,494.78745760023594,,,,,,,492.3037729077041,492.81743770837784,492.8007376752794,492.8007376752794,493.35152111947536,493.85059363767505,493.8021018207073,494.80623645707965,z,0,0.7224340960383415,0.55,,,,,,,,,,,,s003,001,2024-04-11_12h58.54.807,simplestop_skeleton,2022.2.2,59.981319761529335,
$currentCorrectResponse,$currentGoStim,,,,,,,,,1,0,1,0,11,3,47,0,,,,,,,,,494.7877611927688,go,squareblack.png,m,0.55,,,,,,,,,,,,,,,,,,0.0016650892794132233,0.4900725781917572,1.0405574887990952,497.29063134640455,,,,,,,494.80623645707965,495.3204443976283,495.3035851120949,495.3035851120949,495.8545033559203,496.3540336713195,496.3035185597837,497.32135270908475,m,0,0.6387702859938145,0.55,,,,,,,,,,,,s003,001,2024-04-11_12h58.54.807,simplestop_skeleton,2022.2.2,59.981319761529335,
,,,,,,,,,,1,0,1,0,,,,,,,,,,,,,,,,,,,,,,,,,,,,,,,,,,,,,,,,,,,,,,,,,,,,,,,,,,497.32135270908475,497.32135270908475,return,10.335103176534176,"[{'fileName': 'circleblack.png', 'correct_response': 'z', 'condition': 'go'}, {'fileName': 'circleblack.png', 'correct_response': 'z', 'condition': 'go'}, {'fileName': 'squareblack.png', 'correct_response': 'm', 'condition': 'stop'}, {'fileName': 'circleblack.png', 'correct_response': 'z', 'condition': 'go'}, {'fileName': 'circleblack.png', 'correct_response': 'z', 'condition': 'go'}, {'fileName': 'circleblack.png', 'correct_response': 'z', 'condition': 'stop'}, {'fileName': 'squareblack.png', 'correct_response': 'm', 'condition': 'go'}, {'fileName': 'squareblack.png', 'correct_response': 'm', 'condition': 'go'}, {'fileName': 'squareblack.png', 'correct_response': 'm', 'condition': 'go'}, {'fileName': 'squareblack.png', 'correct_response': 'm', 'condition': 'go'}, {'fileName': 'squareblack.png', 'correct_response': 'm', 'condition': 'stop'}, {'fileName': 'circleblack.png', 'correct_response': 'z', 'condition': 'stop'}, {'fileName': 'circleblack.png', 'correct_response': 'z', 'condition': 'stop'}, {'fileName': 'circleblack.png', 'correct_response': 'z', 'condition': 'go'}, {'fileName': 'circleblack.png', 'correct_response': 'z', 'condition': 'go'}, {'fileName': 'squareblack.png', 'correct_response': 'm', 'condition': 'go'}, {'fileName': 'squareblack.png', 'correct_response': 'm', 'condition': 'go'}, {'fileName': 'squareblack.png', 'correct_response': 'm', 'condition': 'stop'}, {'fileName': 'circleblack.png', 'correct_response': 'z', 'condition': 'go'}, {'fileName': 'circleblack.png', 'correct_response': 'z', 'condition': 'go'}, {'fileName': 'squareblack.png', 'correct_response': 'm', 'condition': 'go'}, {'fileName': 'squareblack.png', 'correct_response': 'm', 'condition': 'go'}, {'fileName': 'circleblack.png', 'correct_response': 'z', 'condition': 'stop'}, {'fileName': 'squareblack.png', 'correct_response': 'm', 'condition': 'stop'}, {'fileName': 'circleblack.png', 'correct_response': 'z', 'condition': 'stop'}, {'fileName': 'squareblack.png', 'correct_response': 'm', 'condition': 'go'}, {'fileName': 'circleblack.png', 'correct_response': 'z', 'condition': 'go'}, {'fileName': 'circleblack.png', 'correct_response': 'z', 'condition': 'go'}, {'fileName': 'circleblack.png', 'correct_response': 'z', 'condition': 'go'}, {'fileName': 'squareblack.png', 'correct_response': 'm', 'condition': 'stop'}, {'fileName': 'squareblack.png', 'correct_response': 'm', 'condition': 'go'}, {'fileName': 'squareblack.png', 'correct_response': 'm', 'condition': 'go'}, {'fileName': 'squareblack.png', 'correct_response': 'm', 'condition': 'stop'}, {'fileName': 'squareblack.png', 'correct_response': 'm', 'condition': 'go'}, {'fileName': 'circleblack.png', 'correct_response': 'z', 'condition': 'stop'}, {'fileName': 'circleblack.png', 'correct_response': 'z', 'condition': 'go'}, {'fileName': 'squareblack.png', 'correct_response': 'm', 'condition': 'stop'}, {'fileName': 'circleblack.png', 'correct_response': 'z', 'condition': 'go'}, {'fileName': 'circleblack.png', 'correct_response': 'z', 'condition': 'go'}, {'fileName': 'circleblack.png', 'correct_response': 'z', 'condition': 'go'}, {'fileName': 'squareblack.png', 'correct_response': 'm', 'condition': 'go'}, {'fileName': 'squareblack.png', 'correct_response': 'm', 'condition': 'stop'}, {'fileName': 'squareblack.png', 'correct_response': 'm', 'condition': 'go'}, {'fileName': 'squareblack.png', 'correct_response': 'm', 'condition': 'go'}, {'fileName': 'circleblack.png', 'correct_response': 'z', 'condition': 'go'}, {'fileName': 'circleblack.png', 'correct_response': 'z', 'condition': 'stop'}, {'fileName': 'circleblack.png', 'correct_response': 'z', 'condition': 'stop'}, {'fileName': 'squareblack.png', 'correct_response': 'm', 'condition': 'go'}]",,,,,,s003,001,2024-04-11_12h58.54.807,simplestop_skeleton,2022.2.2,59.981319761529335,
None,None,,,,,,,,,2,0,2,0,0,0,0,2,,,,,,,,,507.6756479628384,go,circleblack.png,z,0.55,,,,,,,,,,,,,,,,,,0.0019373148679733276,0.49853363260626793,1.0324343256652355,510.18833473697305,,,,,,,507.69496876373887,508.20104460045695,508.20104460045695,508.20104460045695,508.7350575737655,509.23561085760593,509.2024022527039,510.206758569926,z,0,1.1489991284906864,0.55,,,,,,,,,,,,s003,001,2024-04-11_12h58.54.807,simplestop_skeleton,2022.2.2,59.981319761529335,
$currentCorrectResponse,$currentGoStim,,,,,,,,,2,0,2,0,0,1,1,0,,,,,,,,,510.18867510557175,go,circleblack.png,z,0.55,,,,,,,,,,,,,,,,,,0.0013790838420391083,0.48948314040899277,1.0402293428778648,512.6904948428273,,,,,,,510.206758569926,510.7205087468028,510.70394679158926,510.70394679158926,511.254521753639,511.75522764772177,511.70503084361553,512.7097938582301,z,0,0.7490275017917156,0.55,,,,,,,,,,,,s003,001,2024-04-11_12h58.54.807,simplestop_skeleton,2022.2.2,59.981319761529335,
$currentCorrectResponse,$currentGoStim,,,,,,,,,2,0,2,0,0,2,2,0,,,,,,,,,512.6908065974712,stop,squareblack.png,m,0.55,,,,,,,,,,,,,,,,,,0.0016399212181568146,0.48967308923602104,1.0404947437345982,515.1933285295963,,,,,,,512.7097938582301,513.223295122385,513.2067785225809,513.2067785225809,513.7572423554957,514.2578924037516,514.2076614201069,515.2122777998447,m,0,0.5749697312712669,0.5,,,,,,,,,,,,s003,001,2024-04-11_12h58.54.807,simplestop_skeleton,2022.2.2,59.981319761529335,
None,None,,,,,,,,,2,0,2,0,0,3,3,2,,,,,,,,,515.1936373338103,go,circleblack.png,z,0.5,,,,,,,,,,,,,,,,,,0.0018194913864135742,0.48991984128952026,0.9905787147581577,517.6966598033905,,,,,,,515.2122777998447,515.7260813675821,515.7096143178642,515.7096143178642,516.2100704759359,516.710296407342,516.710296407342,517.715490244329,z,0,0.5896475613117218,0.5,,,,,,,,,,,,s003,001,2024-04-11_12h58.54.807,simplestop_skeleton,2022.2.2,59.981319761529335,
$currentCorrectResponse,$currentGoStim,,,,,,,,,2,0,2,0,1,0,4,0,,,,,,,,,517.6969800107181,go,circleblack.png,z,0.5,,,,,,,,,,,,,,,,,,0.0013808384537696838,0.489297516644001,0.989732064306736,520.1990177407861,,,,,,,517.715490244329,518.2288356721401,518.2121521607041,518.2121521607041,518.7127741761506,519.2138518504798,519.2138518504798,520.2170633971691,z,0,0.6146160028874874,0.5,,,,,,,,,,,,s003,001,2024-04-11_12h58.54.807,simplestop_skeleton,2022.2.2,59.981319761529335,
None,None,,,,,,,,,2,0,2,0,1,1,5,3,,,,,,,,,520.1993324495852,stop,circleblack.png,z,0.5,,,,,,,,,,,,,,,,,,0.0013058893382549286,0.4898805469274521,0.9906254336237907,522.7016925998032,,,,,,,520.2170633971691,520.7319260239601,520.7149023972452,520.7149023972452,521.2156581804156,521.7155864723027,521.7155864723027,522.7210199534893,z,0,0.578486081212759,0.45,,,,,,,,,,,,s003,001,2024-04-11_12h58.54.807,simplestop_skeleton,2022.2.2,59.981319761529335,
None,None,,,,,,,,,2,0,2,0,1,2,6,3,,,,,,,,,522.70200034976,go,squareblack.png,m,0.45,,,,,,,,,,,,,,,,,,0.001650635153055191,0.48991232365369797,0.9405812844634056,525.2043728381395,,,,,,,522.7210199534893,523.2342548519373,523.2176267541945,523.2176267541945,523.6682925187051,524.1686835177243,524.2174517437816,525.2226120457053,m,0,0.653167124837637,0.45,,,,,,,,,,,,s003,001,2024-04-11_12h58.54.807,simplestop_skeleton,2022.2.2,59.981319761529335,
$currentCorrectResponse,$currentGoStim,,,,,,,,,2,0,2,0,1,3,7,0,,,,,,,,,525.2046815864742,go,squareblack.png,m,0.45,,,,,,,,,,,,,,,,,,0.0011986158788204193,0.4900241084396839,0.9406850188970566,527.7072042040527,,,,,,,525.2226120457053,525.7371706292033,525.7203818373382,525.7203818373382,526.1709349676967,526.6723933257163,526.721032846719,527.7252435237169,m,0,0.5777468495070934,0.45,,,,,,,,,,,,s003,001,2024-04-11_12h58.54.807,simplestop_skeleton,2022.2.2,59.981319761529335,
None,None,,,,,,,,,2,0,2,0,2,0,8,2,,,,,,,,,527.7075151912868,go,squareblack.png,m,0.45,,,,,,,,,,,,,,,,,,0.0011839382350444794,0.48991668969392776,0.9406435787677765,530.2101499401033,,,,,,,527.7252435237169,528.2396950758994,528.2230603955686,528.2230603955686,528.6736778207123,529.1740504726768,529.2241648845375,530.2274263054132,m,0,0.6687054671347141,0.45,,,,,,,,,,,,s003,001,2024-04-11_12h58.54.807,simplestop_skeleton,2022.2.2,59.981319761529335,
None,None,,,,,,,,,2,0,2,0,2,1,9,3,,,,,,,,,530.2104631327093,go,squareblack.png,m,0.45,,,,,,,,,,,,,,,,,,0.0011842809617519379,0.4898792579770088,0.9403697438538074,532.7126865275204,,,,,,,530.2274263054132,530.7427911050618,530.7260133437812,530.7260133437812,531.1767275743186,531.6773811765015,531.727109555155,532.7309489436448,m,0,0.7164367586374283,0.45,,,,,,,,,,,,s003,001,2024-04-11_12h58.54.807,simplestop_skeleton,2022.2.2,59.981319761529335,
None,None,,,,,,,,,2,0,2,0,2,2,10,2,,,,,,,,,532.7129899635911,stop,squareblack.png,m,0.45,,,,,,,,,,,,,,,,,,0.0011755898594856262,0.49031928926706314,0.9408848956227303,535.2157366909087,,,,,,,532.7309489436448,533.245440967381,533.2288423404098,533.2288423404098,533.6792476922274,534.179827850312,534.2301011122763,535.2345728129148,None,1,,0.5,,,,,,,,,,,,s003,001,2024-04-11_12h58.54.807,simplestop_skeleton,2022.2.2,59.981319761529335,
None,None,,,,,,,,,2,0,2,0,2,3,11,3,,,,,,,,,535.2160462103784,stop,circleblack.png,z,0.5,,,,,,,,,,,,,,,,,,0.001846514642238617,0.489825963973999,0.9904361367225647,537.718524441123,,,,,,,535.2345728129148,535.7481382153928,535.7315145507455,535.7315145507455,536.2319193668664,536.7323982715607,536.7323982715607,537.7363594137132,z,0,0.5864604935050011,0.45,,,,,,,,,,,,s003,001,2024-04-11_12h58.54.807,simplestop_skeleton,2022.2.2,59.981319761529335,
None,None,,,,,,,,,2,0,2,0,3,0,12,2,,,,,,,,,537.7188285216689,stop,circleblack.png,z,0.45,,,,,,,,,,,,,,,,,,0.0012389719486236572,0.48986587300896645,0.9404013529419899,540.2211872152984,,,,,,,537.7363594137132,538.2509190142155,538.2345036752522,538.2345036752522,538.6849563457072,539.1853298358619,539.2355792075396,540.2399475350976,None,1,,0.5,,,,,,,,,,,,s003,001,2024-04-11_12h58.54.807,simplestop_skeleton,2022.2.2,59.981319761529335,
$currentCorrectResponse,$currentGoStim,,,,,,,,,2,0,2,0,3,1,13,0,,,,,,,,,540.2215061113238,go,circleblack.png,z,0.5,,,,,,,,,,,,,,,,,,0.0014061369001865387,0.48951977863907814,0.9902357570827007,542.7240076027811,,,,,,,540.2399475350976,540.7536269798875,540.7368530631065,540.7368530631065,541.2375150918961,541.736621055752,541.736621055752,542.7428202554584,z,0,0.6411122269928455,0.5,,,,,,,,,,,,s003,001,2024-04-11_12h58.54.807,simplestop_skeleton,2022.2.2,59.981319761529335,
None,None,,,,,,,,,2,0,2,0,3,2,14,2,,,,,,,,,542.7243354097009,go,circleblack.png,z,0.5,,,,,,,,,,,,,,,,,,0.0013970807194709778,0.4894789904356003,0.9903507120907307,545.2263617515564,,,,,,,542.7428202554584,543.2562568113208,543.2398070432246,543.2398070432246,543.7401799783111,544.2406527549028,544.2406527549028,545.245203088969,z,0,0.6110553331673145,0.5,,,,,,,,,,,,s003,001,2024-04-11_12h58.54.807,simplestop_skeleton,2022.2.2,59.981319761529335,
None,None,,,,,,,,,2,0,2,0,3,3,15,2,,,,,,,,,545.2266702055931,go,squareblack.png,m,0.5,,,,,,,,,,,,,,,,,,0.0017463117837905884,0.4903147853910923,0.9907692335546017,547.7294513136148,,,,,,,545.245203088969,545.7591262534261,545.7426060065627,545.7426060065627,546.2431067377329,546.7431397214532,546.7431397214532,547.7479695752263,m,0,0.5231357626616955,0.5,,,,,,,,,,,,s003,001,2024-04-11_12h58.54.807,simplestop_skeleton,2022.2.2,59.981319761529335,
None,None,,,,,,,,,2,0,2,0,4,0,16,3,,,,,,,,,547.7297659553587,go,squareblack.png,m,0.5,,,,,,,,,,,,,,,,,,0.00129009410738945,0.48968035727739334,0.9902369752526283,550.2319452054799,,,,,,,547.7479695752263,548.2616948187351,548.245150309056,548.245150309056,548.7457546591759,549.2459350414574,549.2459350414574,550.2503712438047,m,0,0.6066565737128258,0.5,,,,,,,,,,,,s003,001,2024-04-11_12h58.54.807,simplestop_skeleton,2022.2.2,59.981319761529335,
None,None,,,,,,,,,2,0,2,0,4,1,17,2,,,,,,,,,550.2322509251535,stop,squareblack.png,m,0.5,,,,,,,,,,,,,,,,,,0.001200065016746521,0.4898701049387455,0.9907476864755154,552.7348473109305,,,,,,,550.2503712438047,550.7648237384856,550.7484448775649,550.7484448775649,551.2487331815064,551.7496332488954,551.7496332488954,552.753929387778,m,0,0.7722967229783535,0.45,,,,,,,,,,,,s003,001,2024-04-11_12h58.54.807,simplestop_skeleton,2022.2.2,59.981319761529335,
None,None,,,,,,,,,2,0,2,0,4,2,18,1,,,,,,,,,552.7351639680564,go,circleblack.png,z,0.45,,,,,,,,,,,,,,,,,,0.001907438039779663,0.490226361900568,0.940872248262167,555.2376218736172,,,,,,,552.753929387778,553.267865896225,553.2507594451308,553.2507594451308,553.7013737373054,554.2019501514733,554.2529552355409,555.2549221478403,z,0,0.9991718009114265,0.45,,,,,,,,,,,,s003,001,2024-04-11_12h58.54.807,simplestop_skeleton,2022.2.2,59.981319761529335,
None,None,,,,,,,,,2,0,2,0,4,3,19,1,,,,,,,,,555.2379365041852,go,circleblack.png,z,0.45,,,,,,,,,,,,,,,,,,0.0013042204082012177,0.4899468645453453,0.9404196925461292,557.7405414506793,,,,,,,555.2549221478403,555.770174946636,555.7537285983562,555.7537285983562,556.2040517255664,556.7033939957619,556.7546287700534,557.7594702579081,z,0,0.592224944382906,0.45,,,,,,,,,,,,s003,001,2024-04-11_12h58.54.807,simplestop_skeleton,2022.2.2,59.981319761529335,
None,None,,,,,,,,,2,0,2,0,5,0,20,2,,,,,,,,,557.7408643215895,go,squareblack.png,m,0.45,,,,,,,,,,,,,,,,,,0.0016257725656032562,0.48967714980244637,0.9405552186071873,560.2434079423547,,,,,,,557.7594702579081,558.2730682939291,558.2564577646554,558.2564577646554,558.7069332078099,559.207399751991,559.2576168440282,560.2619647085667,m,0,1.0451968014240265,0.45,,,,,,,,,,,,s003,001,2024-04-11_12h58.54.807,simplestop_skeleton,2022.2.2,59.981319761529335,
None,None,,,,,,,,,2,0,2,0,5,1,21,3,,,,,,,,,560.2437141500413,go,squareblack.png,m,0.45,,,,,,,,,,,,,,,,,,0.0014233402907848358,0.4897604361176491,0.9402800649404526,562.746252246201,,,,,,,560.2619647085667,560.7760118953884,560.7592071741819,560.7592071741819,561.2099180407822,561.7090051099658,561.7602162733674,562.7651083953679,m,0,0.6076340191066265,0.45,,,,,,,,,,,,s003,001,2024-04-11_12h58.54.807,simplestop_skeleton,2022.2.2,59.981319761529335,
None,None,,,,,,,,,2,0,2,0,5,2,22,1,,,,,,,,,562.7465637475252,stop,circleblack.png,z,0.45,,,,,,,,,,,,,,,,,,0.0018723197281360626,0.489658959209919,0.9403552301228046,565.2484992258251,,,,,,,562.7651083953679,563.2787551693618,563.2619729302824,563.2619729302824,563.7126319855452,564.2131587043405,564.2633359059691,565.2671707049012,None,1,,0.5,,,,,,,,,,,,s003,001,2024-04-11_12h58.54.807,simplestop_skeleton,2022.2.2,59.981319761529335,
None,None,,,,,,,,,2,0,2,0,5,3,23,3,,,,,,,,,565.2488144151866,stop,squareblack.png,m,0.5,,,,,,,,,,,,,,,,,,0.0018330514430999756,0.48996763676404953,0.9907961674034595,567.7518636658788,,,,,,,565.2671707049012,565.7815356403589,565.7648633867502,565.7648633867502,566.2651799172163,566.7651650719345,566.7651650719345,567.7713865116239,m,0,0.5343755483627319,0.45,,,,,,,,,,,,s003,001,2024-04-11_12h58.54.807,simplestop_skeleton,2022.2.2,59.981319761529335,
None,None,,,,,,,,,2,0,2,0,6,0,24,1,,,,,,,,,567.7521731890738,stop,circleblack.png,z,0.45,,,,,,,,,,,,,,,,,,0.0020945481956005096,0.48942387849092484,0.9398532658815384,570.2539705857635,,,,,,,567.7713865116239,568.2841607108712,568.267332084477,568.267332084477,568.7178854867816,569.2183461487293,569.2686924561858,570.27307087183,None,1,,0.5,,,,,,,,,,,,s003,001,2024-04-11_12h58.54.807,simplestop_skeleton,2022.2.2,59.981319761529335,
None,None,,,,,,,,,2,0,2,0,6,1,25,3,,,,,,,,,570.2542886845767,go,squareblack.png,m,0.5,,,,,,,,,,,,,,,,,,0.0017325431108474731,0.4902186840772629,0.9904158748686314,572.7569942511618,,,,,,,570.27307087183,570.7868356704712,570.7702185511589,570.7702185511589,571.2707370333374,571.7712656334043,571.7712656334043,572.776276871562,m,0,0.5849161446094513,0.5,,,,,,,,,,,,s003,001,2024-04-11_12h58.54.807,simplestop_skeleton,2022.2.2,59.981319761529335,
$currentCorrectResponse,$currentGoStim,,,,,,,,,2,0,2,0,6,2,26,0,,,,,,,,,572.7572974972427,go,circleblack.png,z,0.5,,,,,,,,,,,,,,,,,,0.0017455331981182098,0.4901086874306202,0.9906853772699833,575.2596251294017,,,,,,,572.776276871562,573.2900519631803,573.2727944627404,573.2727944627404,573.7735349312425,574.2736427746713,574.2736427746713,575.2783409692347,z,0,0.5858332999050617,0.5,,,,,,,,,,,,s003,001,2024-04-11_12h58.54.807,simplestop_skeleton,2022.2.2,59.981319761529335,
None,None,,,,,,,,,2,0,2,0,6,3,27,3,,,,,,,,,575.2599382773042,go,circleblack.png,z,0.5,,,,,,,,,,,,,,,,,,0.0013420730829238892,0.4899342469871044,0.9906477928161621,577.7626841366291,,,,,,,575.2783409692347,575.7926175519824,575.77552318573,575.77552318573,576.2765665091574,576.776237372309,576.776237372309,577.7814860455692,z,0,0.6228604130446911,0.5,,,,,,,,,,,,s003,001,2024-04-11_12h58.54.807,simplestop_skeleton,2022.2.2,59.981319761529335,
None,None,,,,,,,,,2,0,2,0,7,0,28,1,,,,,,,,,577.7629989907146,go,circleblack.png,z,0.5,,,,,,,,,,,,,,,,,,0.0013859644532203674,0.489756491035223,0.9902684204280376,580.2653070576489,,,,,,,577.7814860455692,578.2950267121196,578.2785856574774,578.2785856574774,578.7790069505572,579.2790687344968,579.2790687344968,580.2840911969543,z,0,0.5561978369951248,0.5,,,,,,,,,,,,s003,001,2024-04-11_12h58.54.807,simplestop_skeleton,2022.2.2,59.981319761529335,
None,None,,,,,,,,,2,0,2,0,7,1,29,1,,,,,,,,,580.2656310349703,stop,squareblack.png,m,0.5,,,,,,,,,,,,,,,,,,0.001612246036529541,0.49015726149082184,0.9904164709150791,582.7679665088654,,,,,,,580.2840911969543,580.798022378236,580.7813956961036,580.7813956961036,581.2816906943917,581.781709972769,581.781709972769,582.7860872521996,m,0,0.3575776144862175,0.45,,,,,,,,,,,,s003,001,2024-04-11_12h58.54.807,simplestop_skeleton,2022.2.2,59.981319761529335,
$currentCorrectResponse,$currentGoStim,,,,,,,,,2,0,2,0,7,2,30,0,,,,,,,,,582.7682719677687,go,squareblack.png,m,0.45,,,,,,,,,,,,,,,,,,0.0011940523982048035,0.48990121483802795,0.9404384046792984,585.2709241770208,,,,,,,582.7860872521996,583.3006005696952,583.2841792218387,583.2841792218387,583.734786964953,584.2352002672851,584.2853073477745,585.289338029921,m,0,0.7227125652134418,0.45,,,,,,,,,,,,s003,001,2024-04-11_12h58.54.807,simplestop_skeleton,2022.2.2,59.981319761529335,
None,None,,,,,,,,,2,0,2,0,7,3,31,3,,,,,,,,,585.2712287195027,go,squareblack.png,m,0.45,,,,,,,,,,,,,,,,,,0.0011910460889339447,0.49022670835256577,0.9404664412140846,587.7737083658576,,,,,,,585.289338029921,585.8034578822553,585.7866633236408,585.7866633236408,586.2375084683299,586.7377202399075,586.787834815681,587.7910002842546,m,0,0.868199098855257,0.45,,,,,,,,,,,,s003,001,2024-04-11_12h58.54.807,simplestop_skeleton,2022.2.2,59.981319761529335,
None,None,,,,,,,,,2,0,2,0,8,0,32,3,,,,,,,,,587.774031303823,stop,squareblack.png,m,0.45,,,,,,,,,,,,,,,,,,0.001208871603012085,0.48993899673223495,0.9403900504112244,590.2762632444501,,,,,,,587.7910002842546,588.3060715571046,588.2894278280437,588.2894278280437,588.7401718758047,589.2406256273389,589.2905214987695,590.2951242849231,None,1,,0.5,,,,,,,,,,,,s003,001,2024-04-11_12h58.54.807,simplestop_skeleton,2022.2.2,59.981319761529335,
$currentCorrectResponse,$currentGoStim,,,,,,,,,2,0,2,0,8,1,33,0,,,,,,,,,590.2765722237527,go,squareblack.png,m,0.5,,,,,,,,,,,,,,,,,,0.001307811588048935,0.4900179021060467,0.9902088418602943,592.7793309614062,,,,,,,590.2951242849231,590.8090968169272,590.7922362498939,590.7922362498939,591.292603507638,591.7932565808296,591.7932565808296,592.7984336055815,m,0,0.6779204867780209,0.5,,,,,,,,,,,,s003,001,2024-04-11_12h58.54.807,simplestop_skeleton,2022.2.2,59.981319761529335,
$currentCorrectResponse,$currentGoStim,,,,,,,,,2,0,2,0,8,2,34,0,,,,,,,,,592.7796418555081,stop,circleblack.png,z,0.5,,,,,,,,,,,,,,,,,,0.0018740110099315643,0.4897240214049816,0.990166038274765,595.2820875458419,,,,,,,592.7984336055815,593.3116895519197,593.295034725219,593.295034725219,593.7956165000796,594.2955465987325,594.2955465987325,595.3009309917688,z,0,0.5512657016515732,0.45,,,,,,,,,,,,s003,001,2024-04-11_12h58.54.807,simplestop_skeleton,2022.2.2,59.981319761529335,
None,None,,,,,,,,,2,0,2,0,8,3,35,1,,,,,,,,,595.2824061438441,go,circleblack.png,z,0.45,,,,,,,,,,,,,,,,,,0.0014045573770999908,0.48802414163947105,0.9385347403585911,597.784570813179,,,,,,,595.3009309917688,595.8129723593593,595.796174313873,595.796174313873,596.2467242926359,596.7489554844797,596.7986745908856,597.8034867420793,z,0,0.7651161812245846,0.45,,,,,,,,,,,,s003,001,2024-04-11_12h58.54.807,simplestop_skeleton,2022.2.2,59.981319761529335,
None,None,,,,,,,,,2,0,2,0,9,0,36,1,,,,,,,,,597.7848819904029,stop,squareblack.png,m,0.45,,,,,,,,,,,,,,,,,,0.0017446242272853851,0.4900711216032505,0.9407645650207996,600.2872100435197,,,,,,,597.8034867420793,598.3171457089484,598.3006892129779,598.3006892129779,598.7511731311679,599.2509286701679,599.3010095581412,600.3061574362218,m,0,0.5227510742843151,0.4,,,,,,,,,,,,s003,001,2024-04-11_12h58.54.807,simplestop_skeleton,2022.2.2,59.981319761529335,
None,None,,,,,,,,,2,0,2,0,9,1,37,1,,,,,,,,,600.2875161617994,go,circleblack.png,z,0.4,,,,,,,,,,,,,,,,,,0.0017861463129520416,0.49016496911644936,0.8903912678360939,602.7901688851416,,,,,,,600.3061574362218,600.8200780190527,600.803428992629,600.803428992629,601.203806579113,601.702999971807,601.8039782382548,602.80891732499,z,0,0.5225135646760464,0.4,,,,,,,,,,,,s003,001,2024-04-11_12h58.54.807,simplestop_skeleton,2022.2.2,59.981319761529335,
None,None,,,,,,,,,2,0,2,0,9,2,38,1,,,,,,,,,602.7904740348458,go,circleblack.png,z,0.4,,,,,,,,,,,,,,,,,,0.0014400891959667206,0.4897943325340748,0.8901141621172428,605.2927602604032,,,,,,,602.80891732499,603.3226493112743,603.305965282023,603.305965282023,603.7064050287008,604.2098185867071,604.3074218258262,605.3115796856582,z,0,0.6982977986335754,0.4,,,,,,,,,,,,s003,001,2024-04-11_12h58.54.807,simplestop_skeleton,2022.2.2,59.981319761529335,
$currentCorrectResponse,$currentGoStim,,,,,,,,,2,0,2,0,9,3,39,0,,,,,,,,,605.2930661588907,go,circleblack.png,z,0.4,,,,,,,,,,,,,,,,,,0.0012976042926311493,0.48983974009752274,0.8904773183166981,607.7957060821354,,,,,,,605.3115796856582,605.8254156298935,605.8087147064507,605.8087147064507,606.2093025743961,606.7096650190651,606.8097195662558,607.8145036697388,z,0,0.5251764543354511,0.4,,,,,,,,,,,,s003,001,2024-04-11_12h58.54.807,simplestop_skeleton,2022.2.2,59.981319761529335,
$currentCorrectResponse,$currentGoStim,,,,,,,,,2,0,2,0,10,0,40,0,,,,,,,,,607.7960280366242,go,squareblack.png,m,0.4,,,,,,,,,,,,,,,,,,0.001700621098279953,0.4899241738021374,0.8903630748391151,610.2987352572381,,,,,,,607.8145036697388,608.3282211534679,608.3116431161761,608.3116431161761,608.7121036984026,609.2125060707331,609.3129834271967,610.3173036053777,m,0,0.7753258012235165,0.4,,,,,,,,,,,,s003,001,2024-04-11_12h58.54.807,simplestop_skeleton,2022.2.2,59.981319761529335,
None,None,,,,,,,,,2,0,2,0,10,1,41,2,,,,,,,,,610.2990634255111,stop,squareblack.png,m,0.4,,,,,,,,,,,,,,,,,,0.0012814141809940338,0.4896625056862831,0.8900815472006798,612.8013762123883,,,,,,,610.3173036053777,610.8312070444226,610.814312748611,610.814312748611,611.2147200666368,611.7147547565401,611.8147306255996,612.8197658993304,m,0,0.4577416628599167,0.35,,,,,,,,,,,,s003,001,2024-04-11_12h58.54.807,simplestop_skeleton,2022.2.2,59.981319761529335,
None,None,,,,,,,,,2,0,2,0,10,2,42,3,,,,,,,,,612.8016813918948,go,squareblack.png,m,0.35,,,,,,,,,,,,,,,,,,0.0013156384229660034,0.4898337237536907,0.8398108817636967,615.3042861819267,,,,,,,612.8197658993304,613.3336758799851,613.3173078559339,613.3173078559339,613.6677048914135,614.1680274158716,614.3168836720288,615.3224270306528,m,0,0.6847641579806805,0.35,,,,,,,,,,,,s003,001,2024-04-11_12h58.54.807,simplestop_skeleton,2022.2.2,59.981319761529335,
$currentCorrectResponse,$currentGoStim,,,,,,,,,2,0,2,0,10,3,43,0,,,,,,,,,615.3046109601855,go,squareblack.png,m,0.35,,,,,,,,,,,,,,,,,,0.0013276375830173492,0.48984815552830696,0.8400769345462322,617.8066796027124,,,,,,,615.3224270306528,615.8369154967368,615.8197998665273,615.8197998665273,616.1705864742398,616.6709508150816,616.8201886154711,617.8256328143179,m,0,0.6181105263531208,0.35,,,,,,,,,,,,s003,001,2024-04-11_12h58.54.807,simplestop_skeleton,2022.2.2,59.981319761529335,
None,None,,,,,,,,,2,0,2,0,11,0,44,1,,,,,,,,,617.8069872036576,go,circleblack.png,z,0.35,,,,,,,,,,,,,,,,,,0.0018548592925071716,0.4897875115275383,0.8404695242643356,620.3093414306641,,,,,,,617.8256328143179,618.3394300229847,618.3225721605122,618.3225721605122,618.6731620058417,619.1736629232764,619.3237216807902,620.3277583047748,z,0,0.83542325720191,0.35,,,,,,,,,,,,s003,001,2024-04-11_12h58.54.807,simplestop_skeleton,2022.2.2,59.981319761529335,
None,None,,,,,,,,,2,0,2,0,11,1,45,2,,,,,,,,,620.3096602670848,stop,circleblack.png,z,0.35,,,,,,,,,,,,,,,,,,0.0012356862425804138,0.49026478454470634,0.839167345315218,622.8114449009299,,,,,,,620.3277583047748,620.842165209353,620.8252371661365,620.8252371661365,621.1746250241995,621.6751504540443,621.825452581048,622.8307059369981,None,1,,0.4,,,,,,,,,,,,s003,001,2024-04-11_12h58.54.807,simplestop_skeleton,2022.2.2,59.981319761529335,
None,None,,,,,,,,,2,0,2,0,11,2,46,1,,,,,,,,,622.8117722980678,stop,circleblack.png,z,0.4,,,,,,,,,,,,,,,,,,0.0017607919871807098,0.4881671071052551,0.8897335007786751,625.3148810788989,,,,,,,622.8307059369981,623.3448121286929,623.3276176713407,623.3276176713407,623.7283573821187,624.2289025522768,624.329556863755,625.3338540866971,None,1,,0.45,,,,,,,,,,,,s003,001,2024-04-11_12h58.54.807,simplestop_skeleton,2022.2.2,59.981319761529335,
None,None,,,,,,,,,2,0,2,0,11,3,47,2,,,,,,,,,625.3152077645063,go,squareblack.png,m,0.45,,,,,,,,,,,,,,,,,,0.0016542188823223114,0.48972999677062035,0.940060880035162,627.817787155509,,,,,,,625.3338540866971,625.8472712188959,625.8306392282248,625.8306392282248,626.2815894968808,626.7813157998025,626.831192933023,627.8329577483237,m,0,0.4728904403746128,0.45,,,,,,,,,,,,s003,001,2024-04-11_12h58.54.807,simplestop_skeleton,2022.2.2,59.981319761529335,
