corrGoResp,shape,practiceBlocks.thisRepN,practiceBlocks.thisTrialN,practiceBlocks.thisN,practiceBlocks.thisIndex,practiceTrials.thisRepN,practiceTrials.thisTrialN,practiceTrials.thisN,practiceTrials.thisIndex,stopBlocks.thisRepN,stopBlocks.thisTrialN,stopBlocks.thisN,stopBlocks.thisIndex,testTrials.thisRepN,testTrials.thisTrialN,testTrials.thisN,testTrials.thisIndex,stopPracTrialList,Test Block: 1,welcome.started,start_exp.started,start_exp.keys,start_exp.rt,instrStopText.started,start_prac.started,StartTrialTimeStamp,trialType,goStim,correctResponse,ssd,fixation.started,rules.started,goStim.started,goResp.started,fixation.stopped,stopSignal.started,stopSignal.stopped,goStim.stopped,goResp.stopped,rules.stopped,goResp.keys,goResp.corr,goResp.rt,text.started,rules_2.started,text.stopped,rules_2.stopped,fixationOnset,goStimOnset,stopSignalOnset,EndTrialTimeStamp,Phase,Block,text_5.started,key_resp_3.started,key_resp_3.keys,key_resp_3.rt,key_resp.started,testText.started,test_fixation.started,test_fixation.stopped,goStim_test.started,goResp_test.started,stopSignal_test.started,stopSignal_test.stopped,goStim_test.stopped,goResp_test.stopped,goResp_test.keys,goResp_test.corr,goResp_test.rt,EndingSSD,text_6.started,key_resp_4.started,key_resp_4.keys,key_resp_4.rt,Test Block: 2,Test Block: 3,ending_text.started,end_resp.started,end_resp.keys,end_resp.rt,participant,session,date,expName,psychopyVersion,frameRate,
,,,,,,,,,,,,,,,,,,"[{'fileName': 'squareblack.png', 'correct_response': 'right', 'condition': 'go'}, {'fileName': 'squareblack.png', 'correct_response': 'right', 'condition': 'go'}, {'fileName': 'circleblack.png', 'correct_response': 'left', 'condition': 'stop'}, {'fileName': 'circleblack.png', 'correct_response': 'left', 'condition': 'go'}, {'fileName': 'circleblack.png', 'correct_response': 'left', 'condition': 'go'}, {'fileName': 'squareblack.png', 'correct_response': 'right', 'condition': 'go'}, {'fileName': 'squareblack.png', 'correct_response': 'right', 'condition': 'stop'}, {'fileName': 'circleblack.png', 'correct_response': 'left', 'condition': 'go'}, {'fileName': 'squareblack.png', 'correct_response': 'right', 'condition': 'stop'}, {'fileName': 'squareblack.png', 'correct_response': 'right', 'condition': 'go'}, {'fileName': 'circleblack.png', 'correct_response': 'left', 'condition': 'stop'}, {'fileName': 'circleblack.png', 'correct_response': 'left', 'condition': 'go'}, {'fileName': 'circleblack.png', 'correct_response': 'left', 'condition': 'stop'}, {'fileName': 'circleblack.png', 'correct_response': 'left', 'condition': 'stop'}, {'fileName': 'squareblack.png', 'correct_response': 'right', 'condition': 'stop'}, {'fileName': 'circleblack.png', 'correct_response': 'left', 'condition': 'go'}, {'fileName': 'squareblack.png', 'correct_response': 'right', 'condition': 'stop'}, {'fileName': 'circleblack.png', 'correct_response': 'left', 'condition': 'go'}, {'fileName': 'squareblack.png', 'correct_response': 'right', 'condition': 'go'}, {'fileName': 'squareblack.png', 'correct_response': 'right', 'condition': 'go'}, {'fileName': 'squareblack.png', 'correct_response': 'right', 'condition': 'go'}, {'fileName': 'circleblack.png', 'correct_response': 'left', 'condition': 'go'}, {'fileName': 'squareblack.png', 'correct_response': 'right', 'condition': 'go'}, {'fileName': 'circleblack.png', 'correct_response': 'left', 'condition': 'go'}]","[{'fileName': 'circleblack.png', 'correct_response': 'left', 'condition': 'stop'}, {'fileName': 'squareblack.png', 'correct_response': 'right', 'condition': 'go'}, {'fileName': 'squareblack.png', 'correct_response': 'right', 'condition': 'go'}, {'fileName': 'circleblack.png', 'correct_response': 'left', 'condition': 'go'}, {'fileName': 'circleblack.png', 'correct_response': 'left', 'condition': 'go'}, {'fileName': 'squareblack.png', 'correct_response': 'right', 'condition': 'go'}, {'fileName': 'circleblack.png', 'correct_response': 'left', 'condition': 'go'}, {'fileName': 'circleblack.png', 'correct_response': 'left', 'condition': 'stop'}, {'fileName': 'squareblack.png', 'correct_response': 'right', 'condition': 'stop'}, {'fileName': 'circleblack.png', 'correct_response': 'left', 'condition': 'go'}, {'fileName': 'squareblack.png', 'correct_response': 'right', 'condition': 'go'}, {'fileName': 'squareblack.png', 'correct_response': 'right', 'condition': 'stop'}, {'fileName': 'circleblack.png', 'correct_response': 'left', 'condition': 'stop'}, {'fileName': 'squareblack.png', 'correct_response': 'right', 'condition': 'go'}, {'fileName': 'squareblack.png', 'correct_response': 'right', 'condition': 'stop'}, {'fileName': 'squareblack.png', 'correct_response': 'right', 'condition': 'go'}, {'fileName': 'squareblack.png', 'correct_response': 'right', 'condition': 'stop'}, {'fileName': 'circleblack.png', 'correct_response': 'left', 'condition': 'go'}, {'fileName': 'squareblack.png', 'correct_response': 'right', 'condition': 'go'}, {'fileName': 'circleblack.png', 'correct_response': 'left', 'condition': 'go'}, {'fileName': 'circleblack.png', 'correct_response': 'left', 'condition': 'stop'}, {'fileName': 'circleblack.png', 'correct_response': 'left', 'condition': 'go'}, {'fileName': 'circleblack.png', 'correct_response': 'left', 'condition': 'go'}, {'fileName': 'squareblack.png', 'correct_response': 'right', 'condition': 'go'}, {'fileName': 'circleblack.png', 'correct_response': 'left', 'condition': 'go'}, {'fileName': 'circleblack.png', 'correct_response': 'left', 'condition': 'stop'}, {'fileName': 'squareblack.png', 'correct_response': 'right', 'condition': 'stop'}, {'fileName': 'squareblack.png', 'correct_response': 'right', 'condition': 'go'}, {'fileName': 'squareblack.png', 'correct_response': 'right', 'condition': 'go'}, {'fileName': 'squareblack.png', 'correct_response': 'right', 'condition': 'go'}, {'fileName': 'circleblack.png', 'correct_response': 'left', 'condition': 'go'}, {'fileName': 'circleblack.png', 'correct_response': 'left', 'condition': 'go'}, {'fileName': 'squareblack.png', 'correct_response': 'right', 'condition': 'stop'}, {'fileName': 'squareblack.png', 'correct_response': 'right', 'condition': 'go'}, {'fileName': 'circleblack.png', 'correct_response': 'left', 'condition': 'stop'}, {'fileName': 'circleblack.png', 'correct_response': 'left', 'condition': 'go'}, {'fileName': 'circleblack.png', 'correct_response': 'left', 'condition': 'go'}, {'fileName': 'circleblack.png', 'correct_response': 'left', 'condition': 'go'}, {'fileName': 'squareblack.png', 'correct_response': 'right', 'condition': 'go'}, {'fileName': 'squareblack.png', 'correct_response': 'right', 'condition': 'go'}, {'fileName': 'squareblack.png', 'correct_response': 'right', 'condition': 'stop'}, {'fileName': 'circleblack.png', 'correct_response': 'left', 'condition': 'go'}, {'fileName': 'circleblack.png', 'correct_response': 'left', 'condition': 'go'}, {'fileName': 'squareblack.png', 'correct_response': 'right', 'condition': 'go'}, {'fileName': 'circleblack.png', 'correct_response': 'left', 'condition': 'stop'}, {'fileName': 'squareblack.png', 'correct_response': 'right', 'condition': 'go'}, {'fileName': 'squareblack.png', 'correct_response': 'right', 'condition': 'stop'}, {'fileName': 'circleblack.png', 'correct_response': 'left', 'condition': 'stop'}]",2612.186424650252,2612.186424650252,return,2.6310329400002956,,,,,,,,,,,,,,,,,,,,,,,,,,,,,,,,,,,,,,,,,,,,,,,,,,,,,,,,,,,s015,001,2024-07-17_14h42.19.614,simplestop_skeleton,2022.2.2,59.86828041667459,
None,None,0,0,0,0,0,0,0,3,,,,,,,,,,,,,,,2614.8664886057377,2614.8664886057377,2724.2317921221256,go,squareblack.png,right,0.35,2724.252030018717,2724.252030018717,2724.747622102499,2724.747622102499,2724.7644265815616,2725.09802499786,2725.597523868084,2725.748018734157,2726.7497823275626,2726.7664564698935,right,1,0.6483742743730545,2726.7664564698935,2726.7664564698935,2727.271051220596,2727.271051220596,0.0027337223291397095,0.4899255149066448,0.8398113399744034,2727.2515228763223,practice,1,,,,,,,,,,,,,,,,,,,,,,,,,,,,,s015,001,2024-07-17_14h42.19.614,simplestop_skeleton,2022.2.2,59.86828041667459,
None,None,0,0,0,0,0,1,1,3,,,,,,,,,,,,,,,,,2727.2520526237786,go,squareblack.png,right,0.35,2727.271051220596,2727.271051220596,2727.7676017172635,2727.7676017172635,2727.7842504680157,2728.117748171091,2728.6172506697476,2728.76810374856,2729.7697789669037,2729.7863299921155,right,1,0.4646196998655796,2729.7863299921155,2729.7863299921155,2730.2974566072226,2730.2974566072226,0.0012298300862312317,0.4897185154259205,0.8400536254048347,2730.271205447614,practice,1,,,,,,,,,,,,,,,,,,,,,,,,,,,,,s015,001,2024-07-17_14h42.19.614,simplestop_skeleton,2022.2.2,59.86828041667459,
$currentCorrectResponse,$currentGoStim,0,0,0,0,0,2,2,0,,,,,,,,,,,,,,,,,2730.2716310955584,stop,circleblack.png,left,0.35,2730.2974566072226,2730.2974566072226,2730.787369340658,2730.787369340658,2730.8040601983666,2731.137871120125,2731.6370978988707,2731.787834830582,2732.7895857840776,2732.806378670037,left,1,0.44063594937324524,2732.806378670037,2732.806378670037,,,0.00806528702378273,0.48947567120194435,0.8401009552180767,2733.29137435928,practice,1,,,,,,,,,,,,,,,,,,,,,,,,,,,,,s015,001,2024-07-17_14h42.19.614,simplestop_skeleton,2022.2.2,59.86828041667459,
None,None,0,0,0,0,0,3,3,2,,,,,,,,,,,,,,,,,2733.291796606034,go,circleblack.png,left,0.3,2733.310979899019,2733.310979899019,2733.807784549892,2733.807784549892,2733.8242702931166,2734.1082653924823,2734.6086392365396,2734.8075172118843,2735.8097966238856,2735.8266776166856,left,1,0.6512121669948101,2735.8266776166856,2735.8266776166856,2736.330904956907,2736.330904956907,0.0013028793036937714,0.49013984203338623,0.7902496345341206,2736.3113101422787,practice,1,,,,,,,,,,,,,,,,,,,,,,,,,,,,,s015,001,2024-07-17_14h42.19.614,simplestop_skeleton,2022.2.2,59.86828041667459,
None,None,0,0,0,0,1,0,4,2,,,,,,,,,,,,,,,,,2736.311731658876,go,circleblack.png,left,0.3,2736.330904956907,2736.330904956907,2736.8278588168323,2736.8278588168323,2736.8443202637136,2737.1283542849123,2737.643660787493,2737.8281534425914,2738.8299282342196,2738.8466429524124,left,1,0.4728059358894825,2738.8466429524124,2738.8466429524124,2739.351399026811,2739.351399026811,0.0012940280139446259,0.49027833715081215,0.7905554659664631,2739.3313831984997,practice,1,,,,,,,,,,,,,,,,,,,,,,,,,,,,,s015,001,2024-07-17_14h42.19.614,simplestop_skeleton,2022.2.2,59.86828041667459,
None,None,0,0,0,0,1,1,5,3,,,,,,,,,,,,,,,,,2739.331835459918,go,squareblack.png,right,0.3,2739.351399026811,2739.351399026811,2739.847588773817,2739.847588773817,2739.864396646619,2740.148037124425,2740.6472645513713,2740.8480569310486,2741.8487442955375,2741.86515192315,right,1,0.3901502899825573,2741.86515192315,2741.86515192315,,,0.0016955174505710602,0.48992854356765747,0.7902309074997902,2742.3512205071747,practice,1,,,,,,,,,,,,,,,,,,,,,,,,,,,,,s015,001,2024-07-17_14h42.19.614,simplestop_skeleton,2022.2.2,59.86828041667459,
None,None,0,0,0,0,1,2,6,3,,,,,,,,,,,,,,,,,2742.3516655750573,stop,squareblack.png,right,0.3,2742.370618443936,2742.370618443936,2742.867878124118,2742.867878124118,2742.884596094489,2743.167769614607,2743.66995594278,2743.8678685314953,2744.86981613189,2744.86981613189,right,1,0.40255339443683624,2744.86981613189,2744.86981613189,2745.374713882804,2745.374713882804,0.0012670494616031647,0.4903477542102337,0.7905202656984329,2745.354733336717,practice,1,,,,,,,,,,,,,,,,,,,,,,,,,,,,,s015,001,2024-07-17_14h42.19.614,simplestop_skeleton,2022.2.2,59.86828041667459,
None,None,0,0,0,0,1,3,7,1,,,,,,,,,,,,,,,,,2745.355155196041,go,circleblack.png,left,0.25,2745.374713882804,2745.374713882804,2745.8708902336657,2745.8708902336657,2745.8877625465393,2746.1213010065258,2746.6218053735793,2746.870869360864,2747.8734305538237,2747.8897771015763,left,1,0.6160244345664978,2747.8897771015763,2747.8897771015763,2748.394555684179,2748.394555684179,0.0018504410982131958,0.49007172882556915,0.7403063327074051,2748.3746706955135,practice,1,,,,,,,,,,,,,,,,,,,,,,,,,,,,,s015,001,2024-07-17_14h42.19.614,simplestop_skeleton,2022.2.2,59.86828041667459,
None,None,0,0,0,0,2,0,8,2,,,,,,,,,,,,,,,,,2748.3751809559762,stop,squareblack.png,right,0.25,2748.394555684179,2748.394555684179,2748.8911279961467,2748.8911279961467,2748.9078959189355,2749.1398970484734,2749.641933951527,2749.8920628875494,2750.8931996896863,2750.909956227988,None,0,,2750.909956227988,2750.909956227988,2751.4141930937767,2751.4141930937767,0.0016134195029735565,0.48997578769922256,0.7404095344245434,2751.3947877958417,practice,1,,,,,,,,,,,,,,,,,,,,,,,,,,,,,s015,001,2024-07-17_14h42.19.614,simplestop_skeleton,2022.2.2,59.86828041667459,
None,None,0,0,0,0,2,1,9,3,,,,,,,,,,,,,,,,,2751.3952166363597,go,squareblack.png,right,0.3,2751.4141930937767,2751.4141930937767,2751.911060255021,2751.911060255021,2751.9275980480015,2752.211237564683,2752.7103866301477,2752.9125101938844,2753.913058731705,2753.9299980923533,right,1,0.49787290021777153,2753.9299980923533,2753.9299980923533,2754.4361344352365,2754.4361344352365,0.0011840127408504486,0.4904133155941963,0.7906629294157028,2754.41472819075,practice,1,,,,,,,,,,,,,,,,,,,,,,,,,,,,,s015,001,2024-07-17_14h42.19.614,simplestop_skeleton,2022.2.2,59.86828041667459,
None,None,0,0,0,0,2,2,10,3,,,,,,,,,,,,,,,,,2754.415145661682,stop,circleblack.png,left,0.3,2754.4361344352365,2754.4361344352365,2754.930388264358,2754.930388264358,2754.947128776461,2755.2312210462987,2755.731139782816,2755.931291844696,2756.9335248954594,2756.9498830996454,left,1,0.5894429534673691,2756.9498830996454,2756.9498830996454,2757.4541563615203,2757.4541563615203,0.0021592415869235992,0.48902959004044533,0.7900309935212135,2757.4346282556653,practice,1,,,,,,,,,,,,,,,,,,,,,,,,,,,,,s015,001,2024-07-17_14h42.19.614,simplestop_skeleton,2022.2.2,59.86828041667459,
None,None,0,0,0,0,2,3,11,1,,,,,,,,,,,,,,,,,2757.435044378042,go,circleblack.png,left,0.25,2757.4541563615203,2757.4541563615203,2757.9509705118835,2757.9509705118835,2757.9678722955287,2758.201202519238,2758.701618079096,2758.9518290013075,2759.953077889979,2759.9696272835135,left,1,0.7534596845507622,2759.9696272835135,2759.9696272835135,2760.474157486111,2760.474157486111,0.0012455768883228302,0.4901764467358589,0.7403975427150726,2760.4546466954052,practice,1,,,,,,,,,,,,,,,,,,,,,,,,,,,,,s015,001,2024-07-17_14h42.19.614,simplestop_skeleton,2022.2.2,59.86828041667459,
None,None,0,0,0,0,3,0,12,1,,,,,,,,,,,,,,,,,2760.455067496747,stop,circleblack.png,left,0.25,2760.474157486111,2760.474157486111,2760.9708482436836,2760.9708482436836,2760.9875030852854,2761.2209583334625,2761.7201695777476,2761.9710073173046,2762.972955480218,2762.989670801908,left,1,0.4343317598104477,2762.989670801908,2762.989670801908,,,0.0012461207807064056,0.4901101775467396,0.7402024455368519,2763.474587943405,practice,1,,,,,,,,,,,,,,,,,,,,,,,,,,,,,s015,001,2024-07-17_14h42.19.614,simplestop_skeleton,2022.2.2,59.86828041667459,
None,None,0,0,0,0,3,1,13,1,,,,,,,,,,,,,,,,,2763.4750057309866,stop,circleblack.png,left,0.2,2763.495329875499,2763.495329875499,2763.991049479693,2763.991049479693,2764.007839869708,2764.1911288164556,2764.6917708031833,2764.9919900782406,2765.993132453412,2766.009828709066,None,0,,2766.009828709066,2766.009828709066,,,0.0014125369489192963,0.4889705516397953,0.6895364820957184,2766.494776122272,practice,1,,,,,,,,,,,,,,,,,,,,,,,,,,,,,s015,001,2024-07-17_14h42.19.614,simplestop_skeleton,2022.2.2,59.86828041667459,
None,None,0,0,0,0,3,2,14,1,,,,,,,,,,,,,,,,,2766.4952249266207,stop,squareblack.png,right,0.25,2766.514815222472,2766.514815222472,2767.0112545900047,2767.0112545900047,2767.0276553295553,2767.2614111714065,2767.7604391761124,2768.011373769492,2769.0132066085935,2769.0301938578486,right,1,0.46211838722229004,2769.0301938578486,2769.0301938578486,2769.5343209169805,2769.5343209169805,0.0017347075045108795,0.4898095093667507,0.7406436651945114,2769.514608453959,practice,1,,,,,,,,,,,,,,,,,,,,,,,,,,,,,s015,001,2024-07-17_14h42.19.614,simplestop_skeleton,2022.2.2,59.86828041667459,
None,None,0,0,0,0,3,3,15,2,,,,,,,,,,,,,,,,,2769.515043448657,go,circleblack.png,left,0.2,2769.5343209169805,2769.5343209169805,2770.0310448147357,2770.0310448147357,2770.047869283706,2770.2310384996235,2770.7317508496344,2771.0307421311736,2772.0329875275493,2772.050165284425,left,1,0.5519173927605152,2772.050165284425,2772.050165284425,,,0.0017543211579322815,0.49025703594088554,0.6902256421744823,2772.5344853028655,practice,1,,,,,,,,,,,,,,,,,,,,,,,,,,,,,s015,001,2024-07-17_14h42.19.614,simplestop_skeleton,2022.2.2,59.86828041667459,
$currentCorrectResponse,$currentGoStim,0,0,0,0,4,0,16,0,,,,,,,,,,,,,,,,,2772.53492372483,stop,squareblack.png,right,0.2,2772.5545194409788,2772.5545194409788,2773.050904132426,2773.050904132426,2773.0677535049617,2773.2511836737394,2773.751881774515,2774.0519589707255,2775.0530599206686,2775.0697922557592,None,0,,2775.0697922557592,2775.0697922557592,,,0.0017122887074947357,0.490276250988245,0.690388411283493,2775.5547233074903,practice,1,,,,,,,,,,,,,,,,,,,,,,,,,,,,,s015,001,2024-07-17_14h42.19.614,simplestop_skeleton,2022.2.2,59.86828041667459,
None,None,0,0,0,0,4,1,17,2,,,,,,,,,,,,,,,,,2775.555144660175,go,circleblack.png,left,0.25,2775.574703350663,2775.574703350663,2776.070718072355,2776.070718072355,2776.087722018361,2776.321126881987,2776.821704380214,2777.0716484189034,2778.0731027312577,2778.0898220799863,left,1,0.5250114388763905,2778.0898220799863,2778.0898220799863,2778.594555065036,2778.594555065036,0.0017413459718227386,0.48995843157172203,0.7402520924806595,2778.5747465975583,practice,1,,,,,,,,,,,,,,,,,,,,,,,,,,,,,s015,001,2024-07-17_14h42.19.614,simplestop_skeleton,2022.2.2,59.86828041667459,
$currentCorrectResponse,$currentGoStim,0,0,0,0,4,2,18,0,,,,,,,,,,,,,,,,,2778.575193744153,go,squareblack.png,right,0.25,2778.594555065036,2778.594555065036,2779.0908905528486,2779.0908905528486,2779.1076591424644,2779.340440299362,2779.8421638458967,2780.092135090381,2781.0931675583124,2781.1098314486444,right,1,0.5021249689161777,2781.1098314486444,2781.1098314486444,2781.6141406185925,2781.6141406185925,0.0016082599759101868,0.48999711498618126,0.7400673292577267,2781.5946616865695,practice,1,,,,,,,,,,,,,,,,,,,,,,,,,,,,,s015,001,2024-07-17_14h42.19.614,simplestop_skeleton,2022.2.2,59.86828041667459,
$currentCorrectResponse,$currentGoStim,0,0,0,0,4,3,19,0,,,,,,,,,,,,,,,,,2781.5950762219727,go,squareblack.png,right,0.25,2781.6141406185925,2781.6141406185925,2782.110983878374,2782.110983878374,2782.1276463232934,2782.361308991909,2782.8617709837854,2783.1106899380684,2784.113289088011,2784.1299865320325,right,1,0.6057489924132824,2784.1299865320325,2784.1299865320325,2784.6339697018266,2784.6339697018266,0.0011969320476055145,0.49013954401016235,0.7403694353997707,2784.614513389766,practice,1,,,,,,,,,,,,,,,,,,,,,,,,,,,,,s015,001,2024-07-17_14h42.19.614,simplestop_skeleton,2022.2.2,59.86828041667459,
None,None,0,0,0,0,5,0,20,2,,,,,,,,,,,,,,,,,2784.6149607747793,go,squareblack.png,right,0.25,2784.6339697018266,2784.6339697018266,2785.1308780685067,2785.1308780685067,2785.1474827304482,2785.38149285689,2785.88161322847,2786.131527207792,2787.1330309771,2787.1496751867235,right,1,0.5208419449627399,2787.1496751867235,2787.1496751867235,2787.6545516364276,2787.6545516364276,0.001179087907075882,0.4900868348777294,0.7407977059483528,2787.634475450963,practice,1,,,,,,,,,,,,,,,,,,,,,,,,,,,,,s015,001,2024-07-17_14h42.19.614,simplestop_skeleton,2022.2.2,59.86828041667459,
$currentCorrectResponse,$currentGoStim,0,0,0,0,5,1,21,0,,,,,,,,,,,,,,,,,2787.6349203139544,go,circleblack.png,left,0.25,2787.6545516364276,2787.6545516364276,2788.1506937630475,2788.1506937630475,2788.1675385683775,2788.401166636497,2788.9017047286034,2789.150516040623,2790.153164949268,2790.1701051332057,left,1,0.5728783644735813,2790.1701051332057,2790.1701051332057,2790.674507085234,2790.674507085234,0.0018513388931751251,0.49003393948078156,0.7404937148094177,2790.6546202376485,practice,1,,,,,,,,,,,,,,,,,,,,,,,,,,,,,s015,001,2024-07-17_14h42.19.614,simplestop_skeleton,2022.2.2,59.86828041667459,
None,None,0,0,0,0,5,2,22,1,,,,,,,,,,,,,,,,,2790.6550314612687,go,squareblack.png,right,0.25,2790.674507085234,2790.674507085234,2791.170918211341,2791.170918211341,2791.1876336447895,2791.4212042689323,2791.921663697809,2792.170865755528,2793.1731714606285,2793.1898875795305,right,1,0.5787002705037594,2793.1898875795305,2793.1898875795305,,,0.0017008259892463684,0.48991723731160164,0.7404492199420929,2793.6748623102903,practice,1,,,,,,,,,,,,,,,,,,,,,,,,,,,,,s015,001,2024-07-17_14h42.19.614,simplestop_skeleton,2022.2.2,59.86828041667459,
$currentCorrectResponse,$currentGoStim,0,0,0,0,5,3,23,0,,,,,,,,,,,,,,,,,2793.675282023847,go,circleblack.png,left,0.25,2793.694753896445,2793.694753896445,2794.1911181397736,2794.1911181397736,2794.207724072039,2794.441224038601,2794.942249458283,2795.1905105151236,2796.1933145076036,2796.2099922075868,left,1,0.6895556934177876,2796.2099922075868,2796.2099922075868,2796.712423797697,2796.712423797697,0.0018465667963027954,0.489965058863163,0.740158136934042,2796.6944379769266,practice,1,,,,,,,,,,,,,,,,,,,,,,,,,,,,,s015,001,2024-07-17_14h42.19.614,simplestop_skeleton,2022.2.2,59.86828041667459,
,,0,0,0,0,,,,,,,,,,,,,"[{'fileName': 'circleblack.png', 'correct_response': 'left', 'condition': 'go'}, {'fileName': 'squareblack.png', 'correct_response': 'right', 'condition': 'go'}, {'fileName': 'circleblack.png', 'correct_response': 'left', 'condition': 'stop'}, {'fileName': 'squareblack.png', 'correct_response': 'right', 'condition': 'stop'}, {'fileName': 'circleblack.png', 'correct_response': 'left', 'condition': 'stop'}, {'fileName': 'circleblack.png', 'correct_response': 'left', 'condition': 'go'}, {'fileName': 'circleblack.png', 'correct_response': 'left', 'condition': 'go'}, {'fileName': 'squareblack.png', 'correct_response': 'right', 'condition': 'go'}, {'fileName': 'squareblack.png', 'correct_response': 'right', 'condition': 'go'}, {'fileName': 'squareblack.png', 'correct_response': 'right', 'condition': 'go'}, {'fileName': 'circleblack.png', 'correct_response': 'left', 'condition': 'go'}, {'fileName': 'squareblack.png', 'correct_response': 'right', 'condition': 'stop'}, {'fileName': 'circleblack.png', 'correct_response': 'left', 'condition': 'go'}, {'fileName': 'squareblack.png', 'correct_response': 'right', 'condition': 'stop'}, {'fileName': 'squareblack.png', 'correct_response': 'right', 'condition': 'stop'}, {'fileName': 'squareblack.png', 'correct_response': 'right', 'condition': 'go'}, {'fileName': 'squareblack.png', 'correct_response': 'right', 'condition': 'go'}, {'fileName': 'circleblack.png', 'correct_response': 'left', 'condition': 'go'}, {'fileName': 'circleblack.png', 'correct_response': 'left', 'condition': 'stop'}, {'fileName': 'circleblack.png', 'correct_response': 'left', 'condition': 'go'}, {'fileName': 'circleblack.png', 'correct_response': 'left', 'condition': 'go'}, {'fileName': 'circleblack.png', 'correct_response': 'left', 'condition': 'stop'}, {'fileName': 'squareblack.png', 'correct_response': 'right', 'condition': 'go'}, {'fileName': 'squareblack.png', 'correct_response': 'right', 'condition': 'go'}]",,,,,,,,,,,,,,,,,,,,,,,,,,,,,,,,,,,,2796.712423797697,2796.712423797697,return,7.019728269428015,,,,,,,,,,,,,,,,,,,,,,,,,s015,001,2024-07-17_14h42.19.614,simplestop_skeleton,2022.2.2,59.86828041667459,
None,None,,,,,,,,,0,0,0,0,0,0,0,3,,,,,,,,,2812.3194099105895,stop,circleblack.png,left,0.25,,,,,,,,,,,,,,,,,,0.0078134685754776,0.4987267628312111,0.7491014339029789,2814.8317239247262,test,1,,,,,2803.751312457025,2803.751312457025,2812.3446202129126,2812.844983007759,2812.844983007759,2812.844983007759,2813.095113027841,2813.595779877156,2813.8459075838327,2814.850998952985,left,1,0.6696417927742004,0.2,,,,,,,,,,,s015,001,2024-07-17_14h42.19.614,simplestop_skeleton,2022.2.2,59.86828041667459,
None,None,,,,,,,,,0,0,0,0,0,1,1,2,,,,,,,,,2814.832263827324,go,squareblack.png,right,0.2,,,,,,,,,,,,,,,,,,0.0017560869455337524,0.4898274876177311,,2817.334292896092,test,1,,,,,,,2814.850998952985,2815.364661153406,2815.3478090949357,2815.3478090949357,2815.5475973822176,2816.0468229576945,2816.3481627330184,2817.3529443368316,right,1,0.38460566475987434,0.2,,,,,,,,,,,s015,001,2024-07-17_14h42.19.614,simplestop_skeleton,2022.2.2,59.86828041667459,
None,None,,,,,,,,,0,0,0,0,0,2,2,1,,,,,,,,,2817.334740858525,go,squareblack.png,right,0.2,,,,,,,,,,,,,,,,,,0.0012578070163726807,0.48984159901738167,,2819.8372999429703,test,1,,,,,,,2817.3529443368316,2817.867174413055,2817.850342705846,2817.850342705846,2818.0506271384656,2818.551002461463,2818.849963784218,2819.856483709067,right,1,0.5601690597832203,0.2,,,,,,,,,,,s015,001,2024-07-17_14h42.19.614,simplestop_skeleton,2022.2.2,59.86828041667459,
None,None,,,,,,,,,0,0,0,0,0,3,3,1,,,,,,,,,2819.8377489335835,go,circleblack.png,left,0.2,,,,,,,,,,,,,,,,,,0.001889549195766449,0.48940299078822136,,2822.339780252427,test,1,,,,,,,2819.856483709067,2820.3697627857327,2820.3530313894153,2820.3530313894153,2820.5532507933676,2821.0538723059,2821.3535060845315,2822.35906817019,left,1,0.4846247285604477,0.2,,,,,,,,,,,s015,001,2024-07-17_14h42.19.614,simplestop_skeleton,2022.2.2,59.86828041667459,
$currentCorrectResponse,$currentGoStim,,,,,,,,,0,0,0,0,1,0,4,0,,,,,,,,,2822.3402264639735,go,circleblack.png,left,0.2,,,,,,,,,,,,,,,,,,0.0015181563794612885,0.4892488606274128,,2824.8426280394197,test,1,,,,,,,2822.35906817019,2822.8724327646196,2822.8559131249785,2822.8559131249785,2823.0560778081417,2823.5567630790174,2823.8557465188205,2824.8618109449744,left,1,0.5716809816658497,0.2,,,,,,,,,,,s015,001,2024-07-17_14h42.19.614,simplestop_skeleton,2022.2.2,59.86828041667459,
None,None,,,,,,,,,0,0,0,0,1,1,5,3,,,,,,,,,2824.843076173216,go,squareblack.png,right,0.2,,,,,,,,,,,,,,,,,,0.0016638636589050293,0.4897669814527035,,2827.3455181382596,test,1,,,,,,,2824.8618109449744,2825.3753877058625,2825.3587177805603,2825.3587177805603,2825.558780916035,2826.059380952269,2826.35846574232,2827.364600881934,right,1,0.5558927282691002,0.2,,,,,,,,,,,s015,001,2024-07-17_14h42.19.614,simplestop_skeleton,2022.2.2,59.86828041667459,
None,None,,,,,,,,,0,0,0,0,1,2,6,2,,,,,,,,,2827.345954362303,go,circleblack.png,left,0.2,,,,,,,,,,,,,,,,,,0.0017545297741889954,0.4897867366671562,,2829.8483962118626,test,1,,,,,,,2827.364600881934,2827.877873584628,2827.861288469285,2827.861288469285,2828.061521202326,2828.562147758901,2828.8609651476145,2829.867627698928,left,1,0.6115897372364998,0.2,,,,,,,,,,,s015,001,2024-07-17_14h42.19.614,simplestop_skeleton,2022.2.2,59.86828041667459,
$currentCorrectResponse,$currentGoStim,,,,,,,,,0,0,0,0,1,3,7,0,,,,,,,,,2829.8488397710025,stop,circleblack.png,left,0.2,,,,,,,,,,,,,,,,,,0.0014413967728614807,0.4893152192234993,0.6896564140915871,2832.3508268520236,test,1,,,,,,,2829.867627698928,2830.3811320215464,2830.3641093596816,2830.3641093596816,2830.5643915086985,2831.0651199780405,2831.3652997277677,2832.3699974119663,None,0,,0.25,,,,,,,,,,,s015,001,2024-07-17_14h42.19.614,simplestop_skeleton,2022.2.2,59.86828041667459,
None,None,,,,,,,,,0,0,0,0,2,0,8,2,,,,,,,,,2832.3512779660523,stop,squareblack.png,right,0.25,,,,,,,,,,,,,,,,,,0.0016844682395458221,0.48986417800188065,0.7400448732078075,2834.853929132223,test,1,,,,,,,2832.3699974119663,2832.8836924768984,2832.8669600374997,2832.8669600374997,2833.117152761668,2833.617779918015,2833.868279144168,2834.8730540536344,None,0,,0.3,,,,,,,,,,,s015,001,2024-07-17_14h42.19.614,simplestop_skeleton,2022.2.2,59.86828041667459,
None,None,,,,,,,,,0,0,0,0,2,1,9,3,,,,,,,,,2834.8543714620173,go,circleblack.png,left,0.3,,,,,,,,,,,,,,,,,,0.001988861709833145,0.4895610697567463,,2837.356532178819,test,1,,,,,,,2834.8730540536344,2835.386248111725,2835.3695367984474,2835.3695367984474,2835.6699940897524,2836.169003598392,2836.370074722916,2837.375709604472,left,1,0.4677542969584465,0.3,,,,,,,,,,,s015,001,2024-07-17_14h42.19.614,simplestop_skeleton,2022.2.2,59.86828041667459,
None,None,,,,,,,,,0,0,0,0,2,2,10,2,,,,,,,,,2837.3569831438363,go,squareblack.png,right,0.3,,,,,,,,,,,,,,,,,,0.0017063096165657043,0.48976827040314674,,2839.858965680003,test,1,,,,,,,2837.375709604472,2837.889180496335,2837.8723493888974,2837.8723493888974,2838.172994401306,2838.6732955910265,2838.872242528945,2839.877755280584,right,1,0.52188441157341,0.3,,,,,,,,,,,s015,001,2024-07-17_14h42.19.614,simplestop_skeleton,2022.2.2,59.86828041667459,
None,None,,,,,,,,,0,0,0,0,2,3,11,1,,,,,,,,,2839.8593987859786,stop,squareblack.png,right,0.3,,,,,,,,,,,,,,,,,,0.0012112259864807129,0.4895739443600178,0.7900599427521229,2842.36175487563,test,1,,,,,,,2839.877755280584,2840.3918287940323,2840.3751733489335,2840.3751733489335,2840.675349548459,2841.176164984703,2841.3763555064797,2842.381029460579,None,0,,0.35,,,,,,,,,,,s015,001,2024-07-17_14h42.19.614,simplestop_skeleton,2022.2.2,59.86828041667459,
None,None,,,,,,,,,0,0,0,0,3,0,12,2,,,,,,,,,2842.3621921651065,stop,circleblack.png,left,0.35,,,,,,,,,,,,,,,,,,0.001811198890209198,0.4898630417883396,0.8401036523282528,2844.8644403144717,test,1,,,,,,,2842.381029460579,2842.8945110440254,2842.87784634158,2842.87784634158,2843.2285377159715,2843.7439607456326,2843.878549903631,2844.884025685489,left,1,0.5169514082372189,0.3,,,,,,,,,,,s015,001,2024-07-17_14h42.19.614,simplestop_skeleton,2022.2.2,59.86828041667459,
None,None,,,,,,,,,0,0,0,0,3,1,13,1,,,,,,,,,2844.8648801483214,go,squareblack.png,right,0.3,,,,,,,,,,,,,,,,,,0.0017980709671974182,0.48996279761195183,,2847.3674037754536,test,1,,,,,,,2844.884025685489,2845.3973816223443,2845.3809625841677,2845.3809625841677,2845.6810409612954,2846.1814991645515,2846.3810406960547,2847.386487543583,right,1,0.44120456650853157,0.3,,,,,,,,,,,s015,001,2024-07-17_14h42.19.614,simplestop_skeleton,2022.2.2,59.86828041667459,
None,None,,,,,,,,,0,0,0,0,3,2,14,2,,,,,,,,,2847.3678457066417,stop,squareblack.png,right,0.3,,,,,,,,,,,,,,,,,,0.001325029879808426,0.48953424021601677,0.7897968217730522,2849.8702568896115,test,1,,,,,,,2847.386487543583,2847.8999706692994,2847.8832594044507,2847.8832594044507,2848.1836824417114,2848.6828070133924,2848.884005587548,2849.8893692456186,right,1,0.49690114706754684,0.25,,,,,,,,,,,s015,001,2024-07-17_14h42.19.614,simplestop_skeleton,2022.2.2,59.86828041667459,
None,None,,,,,,,,,0,0,0,0,3,3,15,1,,,,,,,,,2849.870700214058,go,squareblack.png,right,0.25,,,,,,,,,,,,,,,,,,0.0012960992753505707,0.4892762713134289,,2852.3729016669095,test,1,,,,,,,2849.8893692456186,2850.4027414917946,2850.38625112921,2850.38625112921,2850.636410433799,2851.1370536014438,2851.3860414475203,2852.3916581235826,right,1,0.6295624598860741,0.25,,,,,,,,,,,s015,001,2024-07-17_14h42.19.614,simplestop_skeleton,2022.2.2,59.86828041667459,
$currentCorrectResponse,$currentGoStim,,,,,,,,,0,0,0,0,4,0,16,0,,,,,,,,,2852.3733341805637,stop,squareblack.png,right,0.25,,,,,,,,,,,,,,,,,,0.0013138093054294586,0.48959099128842354,0.7398686893284321,2854.875712584704,test,1,,,,,,,2852.3916581235826,2852.905658185482,2852.8887310810387,2852.8887310810387,2853.1391291730106,2853.640100348741,2853.890304557979,2854.8950927332044,None,0,,0.3,,,,,,,,,,,s015,001,2024-07-17_14h42.19.614,simplestop_skeleton,2022.2.2,59.86828041667459,
None,None,,,,,,,,,0,0,0,0,4,1,17,3,,,,,,,,,2854.8761454708874,go,circleblack.png,left,0.3,,,,,,,,,,,,,,,,,,0.0018123909831047058,0.4898170977830887,,2857.3783703818917,test,1,,,,,,,2854.8950927332044,2855.4085549265146,2855.3916081152856,2855.3916081152856,2855.6920138150454,2856.1911255307496,2856.3923047035933,2857.3975211791694,left,1,0.46523459255695343,0.3,,,,,,,,,,,s015,001,2024-07-17_14h42.19.614,simplestop_skeleton,2022.2.2,59.86828041667459,
None,None,,,,,,,,,0,0,0,0,4,2,18,2,,,,,,,,,2857.378814302385,go,squareblack.png,right,0.3,,,,,,,,,,,,,,,,,,0.001602020114660263,0.4898250736296177,,2859.8813333921134,test,1,,,,,,,2857.3975211791694,2857.91114718467,2857.894623134285,2857.894623134285,2858.1949557736516,2858.695502191782,2858.8944217525423,2859.9009000211954,right,1,0.5361987426877022,0.3,,,,,,,,,,,s015,001,2024-07-17_14h42.19.614,simplestop_skeleton,2022.2.2,59.86828041667459,
$currentCorrectResponse,$currentGoStim,,,,,,,,,0,0,0,0,4,3,19,0,,,,,,,,,2859.88177549839,go,circleblack.png,left,0.3,,,,,,,,,,,,,,,,,,0.001963876187801361,0.4898255914449692,,2862.38418719545,test,1,,,,,,,2859.9009000211954,2860.4138776361942,2860.397441253066,2860.397441253066,2860.6977044418454,2861.1980766430497,2861.3971390761435,2862.403237260878,left,1,0.5678909569978714,0.3,,,,,,,,,,,s015,001,2024-07-17_14h42.19.614,simplestop_skeleton,2022.2.2,59.86828041667459,
None,None,,,,,,,,,0,0,0,0,5,0,20,2,,,,,,,,,2862.3846314288676,stop,circleblack.png,left,0.3,,,,,,,,,,,,,,,,,,0.001399405300617218,0.4897259399294853,0.7898836471140385,2864.886749841273,test,1,,,,,,,2862.403237260878,2862.916986204684,2862.8999818228185,2862.8999818228185,2863.20045478642,2863.7011200003326,2863.9011555723846,2864.9058499634266,None,0,,0.35,,,,,,,,,,,s015,001,2024-07-17_14h42.19.614,simplestop_skeleton,2022.2.2,59.86828041667459,
None,None,,,,,,,,,0,0,0,0,5,1,21,3,,,,,,,,,2864.887183561921,go,circleblack.png,left,0.35,,,,,,,,,,,,,,,,,,0.0014352239668369293,0.48984022065997124,,2867.389530926943,test,1,,,,,,,2864.9058499634266,2865.4197254665196,2865.402882888913,2865.402882888913,2865.7532425820827,2866.2539044097066,2866.4023619145155,2867.408865649253,left,1,0.6235360093414783,0.35,,,,,,,,,,,s015,001,2024-07-17_14h42.19.614,simplestop_skeleton,2022.2.2,59.86828041667459,
$currentCorrectResponse,$currentGoStim,,,,,,,,,0,0,0,0,5,2,22,0,,,,,,,,,2867.389959938824,go,circleblack.png,left,0.35,,,,,,,,,,,,,,,,,,0.0014024898409843445,0.489125594496727,,2869.8923225291073,test,1,,,,,,,2867.408865649253,2867.9223114922643,2867.9056349396706,2867.9056349396706,2868.2559301927686,2868.756617307663,2868.905088469386,2869.916676312685,left,1,0.6628467291593552,0.35,,,,,,,,,,,s015,001,2024-07-17_14h42.19.614,simplestop_skeleton,2022.2.2,59.86828041667459,
$currentCorrectResponse,$currentGoStim,,,,,,,,,0,0,0,0,5,3,23,0,,,,,,,,,2869.892762310803,go,squareblack.png,right,0.35,,,,,,,,,,,,,,,,,,0.007681842893362045,0.4898814335465431,,2872.3950313590467,test,1,,,,,,,2869.916676312685,2870.425131354481,2870.408220246434,2870.408220246434,2870.758642151952,2871.2597183659673,2871.408087618649,2872.41475443542,right,1,0.5676873475313187,0.35,,,,,,,,,,,s015,001,2024-07-17_14h42.19.614,simplestop_skeleton,2022.2.2,59.86828041667459,
None,None,,,,,,,,,0,0,0,0,6,0,24,1,,,,,,,,,2872.3954688049853,go,circleblack.png,left,0.35,,,,,,,,,,,,,,,,,,0.0019228197634220123,0.48958195745944977,,2874.898021709174,test,1,,,,,,,2872.41475443542,2872.9279483146966,2872.9110532961786,2872.9110532961786,2873.2614544034004,2873.762032210827,2873.9106877967715,2874.917113225907,left,1,0.6051980592310429,0.35,,,,,,,,,,,s015,001,2024-07-17_14h42.19.614,simplestop_skeleton,2022.2.2,59.86828041667459,
None,None,,,,,,,,,0,0,0,0,6,1,25,2,,,,,,,,,2874.898470453918,stop,circleblack.png,left,0.35,,,,,,,,,,,,,,,,,,0.0014082975685596466,0.48963388055562973,0.8399993106722832,2877.4004427678883,test,1,,,,,,,2874.917113225907,2875.4304724261165,2875.4139651991427,2875.4139651991427,2875.7642933242023,2876.2799908444285,2876.4139322713017,2877.424660101533,left,1,0.5294987000524998,0.3,,,,,,,,,,,s015,001,2024-07-17_14h42.19.614,simplestop_skeleton,2022.2.2,59.86828041667459,
None,None,,,,,,,,,0,0,0,0,6,2,26,3,,,,,,,,,2877.400881998241,stop,squareblack.png,right,0.3,,,,,,,,,,,,,,,,,,0.007259238511323929,0.48970790952444077,0.7900151163339615,2879.9035292826593,test,1,,,,,,,2877.424660101533,2877.9338128492236,2877.9165064394474,2877.9165064394474,2878.2169981114566,2878.717358544469,2878.917784459889,2879.9223916232586,None,0,,0.35,,,,,,,,,,,s015,001,2024-07-17_14h42.19.614,simplestop_skeleton,2022.2.2,59.86828041667459,
None,None,,,,,,,,,0,0,0,0,6,3,27,3,,,,,,,,,2879.9039636664093,go,squareblack.png,right,0.35,,,,,,,,,,,,,,,,,,0.0013644993305206299,0.4894878938794136,,2882.4060708731413,test,1,,,,,,,2879.9223916232586,2880.4363637156785,2880.4191638939083,2880.4191638939083,2880.7695533260703,2881.270679935813,2881.42052654922,2882.4251312203705,right,1,0.7892649322748184,0.35,,,,,,,,,,,s015,001,2024-07-17_14h42.19.614,simplestop_skeleton,2022.2.2,59.86828041667459,
None,None,,,,,,,,,0,0,0,0,7,0,28,2,,,,,,,,,2882.4065027944744,go,squareblack.png,right,0.35,,,,,,,,,,,,,,,,,,0.0013748370110988617,0.4895297773182392,,2884.9088547974825,test,1,,,,,,,2882.4251312203705,2882.938780851662,2882.922014016658,2882.922014016658,2883.2730735465884,2883.773218385875,2883.921854607761,2884.9276859126985,right,1,0.6617063954472542,0.35,,,,,,,,,,,s015,001,2024-07-17_14h42.19.614,simplestop_skeleton,2022.2.2,59.86828041667459,
None,None,,,,,,,,,0,0,0,0,7,1,29,3,,,,,,,,,2884.909301239997,go,squareblack.png,right,0.35,,,,,,,,,,,,,,,,,,0.0013476833701133728,0.48978906869888306,,2887.4114863425493,test,1,,,,,,,2884.9276859126985,2885.441694099456,2885.4250761456788,2885.4250761456788,2885.7752434387803,2886.2760710008442,2886.4245199896395,2887.436705019325,right,1,0.6777941137552261,0.35,,,,,,,,,,,s015,001,2024-07-17_14h42.19.614,simplestop_skeleton,2022.2.2,59.86828041667459,
$currentCorrectResponse,$currentGoStim,,,,,,,,,0,0,0,0,7,2,30,0,,,,,,,,,2887.4119685962796,go,circleblack.png,left,0.35,,,,,,,,,,,,,,,,,,0.008387580513954163,0.4899807758629322,,2889.914651542902,test,1,,,,,,,2887.436705019325,2887.9442041777074,2887.9277910254896,2887.9277910254896,2888.278124794364,2888.7785507701337,2888.9273804947734,2889.93365643546,left,1,0.6197924986481667,0.35,,,,,,,,,,,s015,001,2024-07-17_14h42.19.614,simplestop_skeleton,2022.2.2,59.86828041667459,
$currentCorrectResponse,$currentGoStim,,,,,,,,,0,0,0,0,7,3,31,0,,,,,,,,,2889.915099039674,go,circleblack.png,left,0.35,,,,,,,,,,,,,,,,,,0.0014124847948551178,0.48926886916160583,,2892.4170964844525,test,1,,,,,,,2889.93365643546,2890.447296295315,2890.430335458368,2890.430335458368,2890.78092456609,2891.2813268080354,2891.4315280765295,2892.4362749047577,left,1,0.8563073314726353,0.35,,,,,,,,,,,s015,001,2024-07-17_14h42.19.614,simplestop_skeleton,2022.2.2,59.86828041667459,
None,None,,,,,,,,,0,0,0,0,8,0,32,1,,,,,,,,,2892.417547635734,stop,squareblack.png,right,0.35,,,,,,,,,,,,,,,,,,0.0016550831496715546,0.4896838776767254,0.8400529213249683,2894.919928997755,test,1,,,,,,,2892.4362749047577,2892.950018443167,2892.933079663664,2892.933079663664,2893.283599667251,2893.784308452159,2893.9327163994312,2894.9386752806604,right,1,0.6147972196340561,0.3,,,,,,,,,,,s015,001,2024-07-17_14h42.19.614,simplestop_skeleton,2022.2.2,59.86828041667459,
None,None,,,,,,,,,0,0,0,0,8,1,33,3,,,,,,,,,2894.920365303755,go,squareblack.png,right,0.3,,,,,,,,,,,,,,,,,,0.0013950914144515991,0.48991721123456955,,2897.4231340549886,test,1,,,,,,,2894.9386752806604,2895.452802848071,2895.436051979661,2895.436051979661,2895.736068300903,2896.23744430393,2896.4371277093887,2897.4426165893674,left,0,0.7383127063512802,0.3,,,,,,,,,,,s015,001,2024-07-17_14h42.19.614,simplestop_skeleton,2022.2.2,59.86828041667459,
None,None,,,,,,,,,0,0,0,0,8,2,34,2,,,,,,,,,2897.4235807061195,stop,circleblack.png,left,0.3,,,,,,,,,,,,,,,,,,0.0026708506047725677,0.48912300169467926,0.7893830016255379,2899.925500921905,test,1,,,,,,,2897.4426165893674,2897.9553219638765,2897.9387898892164,2897.9387898892164,2898.2392867207527,2898.739541038871,2898.9396839626133,2899.9442438073456,None,0,,0.35,,,,,,,,,,,s015,001,2024-07-17_14h42.19.614,simplestop_skeleton,2022.2.2,59.86828041667459,
None,None,,,,,,,,,0,0,0,0,8,3,35,2,,,,,,,,,2899.925952538848,go,circleblack.png,left,0.35,,,,,,,,,,,,,,,,,,0.0013576224446296692,0.48970668390393257,,2902.427978474647,test,1,,,,,,,2899.9442438073456,2900.457912042737,2900.441301032901,2900.441301032901,2900.7918977327645,2901.2910751737654,2901.4421708621085,2902.4468350559473,left,1,0.5062056295573711,0.35,,,,,,,,,,,s015,001,2024-07-17_14h42.19.614,simplestop_skeleton,2022.2.2,59.86828041667459,
None,None,,,,,,,,,0,0,0,0,9,0,36,1,,,,,,,,,2902.428407393396,go,circleblack.png,left,0.35,,,,,,,,,,,,,,,,,,0.0012472979724407196,0.4898366779088974,,2904.931160926819,test,1,,,,,,,2902.4468350559473,2902.960742637515,2902.9444348849356,2902.9444348849356,2903.2948064282537,2903.795105163008,2903.944029890001,2904.9504030905664,left,1,0.590973149985075,0.35,,,,,,,,,,,s015,001,2024-07-17_14h42.19.614,simplestop_skeleton,2022.2.2,59.86828041667459,
$currentCorrectResponse,$currentGoStim,,,,,,,,,0,0,0,0,9,1,37,0,,,,,,,,,2904.9316139109433,go,circleblack.png,left,0.35,,,,,,,,,,,,,,,,,,0.0014011263847351074,0.4892827160656452,,2907.433624934405,test,1,,,,,,,2904.9504030905664,2905.4636609852314,2905.4469172284007,2905.4469172284007,2905.7973286919296,2906.29796808213,2906.4468185678124,2907.4580823630095,left,1,0.5692185796797276,0.35,,,,,,,,,,,s015,001,2024-07-17_14h42.19.614,simplestop_skeleton,2022.2.2,59.86828041667459,
None,None,,,,,,,,,0,0,0,0,9,2,38,1,,,,,,,,,2907.4340611211956,go,squareblack.png,right,0.35,,,,,,,,,,,,,,,,,,0.007578779011964798,0.48965584859251976,,2909.936398718506,test,1,,,,,,,2907.4580823630095,2907.9662572406232,2907.949633538723,2907.949633538723,2908.3002300150692,2908.8006368353963,2908.94936947152,2909.9537477865815,right,1,0.6470407396554947,0.35,,,,,,,,,,,s015,001,2024-07-17_14h42.19.614,simplestop_skeleton,2022.2.2,59.86828041667459,
$currentCorrectResponse,$currentGoStim,,,,,,,,,0,0,0,0,9,3,39,0,,,,,,,,,2909.936844866723,go,squareblack.png,right,0.35,,,,,,,,,,,,,,,,,,0.001189257949590683,0.4899761527776718,,2912.4395329765975,test,1,,,,,,,2909.9537477865815,2910.4691425040364,2910.4524179659784,2910.4524179659784,2910.8028801754117,2911.3038514517248,2911.4537287540734,2912.4585298635066,right,1,0.7613995298743248,0.35,,,,,,,,,,,s015,001,2024-07-17_14h42.19.614,simplestop_skeleton,2022.2.2,59.86828041667459,
None,None,,,,,,,,,0,0,0,0,10,0,40,1,,,,,,,,,2912.439970906824,stop,squareblack.png,right,0.35,,,,,,,,,,,,,,,,,,0.0013644769787788391,0.48905687034130096,0.8395966663956642,2914.9421699009836,test,1,,,,,,,2912.4585298635066,2912.972006186843,2912.9552813246846,2912.9552813246846,2913.3060981854796,2913.806165996939,2913.955000523478,2914.9615201726556,right,1,0.6055285632610321,0.3,,,,,,,,,,,s015,001,2024-07-17_14h42.19.614,simplestop_skeleton,2022.2.2,59.86828041667459,
$currentCorrectResponse,$currentGoStim,,,,,,,,,0,0,0,0,10,1,41,0,,,,,,,,,2914.9425920173526,go,circleblack.png,left,0.3,,,,,,,,,,,,,,,,,,0.002089492976665497,0.4895101822912693,,2917.444783911109,test,1,,,,,,,2914.9615201726556,2915.474756747484,2915.4580123722553,2915.4580123722553,2915.7583028040826,2916.2588392607868,2916.4579372406006,2917.463434241712,left,1,0.5611201636493206,0.3,,,,,,,,,,,s015,001,2024-07-17_14h42.19.614,simplestop_skeleton,2022.2.2,59.86828041667459,
None,None,,,,,,,,,0,0,0,0,10,2,42,3,,,,,,,,,2917.4452185966074,go,circleblack.png,left,0.3,,,,,,,,,,,,,,,,,,0.0013482049107551575,0.4897153675556183,,2919.9472843147814,test,1,,,,,,,2917.463434241712,2917.977640390396,2917.9607999175787,2917.9607999175787,2918.2612807899714,2918.761506676674,2918.9626169912517,2919.9661964289844,left,1,0.5178953371942043,0.3,,,,,,,,,,,s015,001,2024-07-17_14h42.19.614,simplestop_skeleton,2022.2.2,59.86828041667459,
None,None,,,,,,,,,0,0,0,0,10,3,43,1,,,,,,,,,2919.9477231241763,go,squareblack.png,right,0.3,,,,,,,,,,,,,,,,,,0.0016192197799682617,0.48991329595446587,,2922.450845155865,test,1,,,,,,,2919.9661964289844,2920.4800640791655,2920.463444158435,2920.463444158435,2920.7638470716774,2921.2643561959267,2921.463054098189,2922.4703463613987,right,1,0.5961344502866268,0.3,,,,,,,,,,,s015,001,2024-07-17_14h42.19.614,simplestop_skeleton,2022.2.2,59.86828041667459,
None,None,,,,,,,,,0,0,0,0,11,0,44,3,,,,,,,,,2922.4513861201704,stop,circleblack.png,left,0.3,,,,,,,,,,,,,,,,,,0.0026402361690998077,0.4888690449297428,0.7893571145832539,2924.952737815678,test,1,,,,,,,2922.4703463613987,2922.982986982912,2922.966122418642,2922.966122418642,2923.2665264718235,2923.767003517598,2923.9671655781567,2924.971736047417,None,0,,0.35,,,,,,,,,,,s015,001,2024-07-17_14h42.19.614,simplestop_skeleton,2022.2.2,59.86828041667459,
None,None,,,,,,,,,0,0,0,0,11,1,45,1,,,,,,,,,2924.953168090433,go,squareblack.png,right,0.35,,,,,,,,,,,,,,,,,,0.0016583539545536041,0.48979710415005684,,2927.455574732274,test,1,,,,,,,2924.971736047417,2925.4855622276664,2925.468837313354,2925.468837313354,2925.819533083588,2926.3198149874806,2926.46884117648,2927.4743736460805,left,0,0.5630286857485771,0.35,,,,,,,,,,,s015,001,2024-07-17_14h42.19.614,simplestop_skeleton,2022.2.2,59.86828041667459,
$currentCorrectResponse,$currentGoStim,,,,,,,,,0,0,0,0,11,2,46,0,,,,,,,,,2927.456004716456,stop,squareblack.png,right,0.35,,,,,,,,,,,,,,,,,,0.0012761354446411133,0.4897114336490631,0.8399747982621193,2929.958786252886,test,1,,,,,,,2927.4743736460805,2927.9882817603648,2927.971853978932,2927.971853978932,2928.32231855765,2928.8227584920824,2928.9728471301496,2929.978578787297,right,1,0.7296864911913872,0.3,,,,,,,,,,,s015,001,2024-07-17_14h42.19.614,simplestop_skeleton,2022.2.2,59.86828041667459,
None,None,,,,,,,,,0,0,0,0,11,3,47,3,,,,,,,,,2929.959236461669,stop,circleblack.png,left,0.3,,,,,,,,,,,,,,,,,,0.0027951113879680634,0.48926345631480217,0.7893318682909012,2932.461472980678,test,1,,,,,,,2929.978578787297,2930.491018284112,2930.4744686298072,2930.4744686298072,2930.774930495769,2931.275292672217,2931.4740722440183,2932.4818502403796,left,1,0.6260746084153652,0.25,,,,,,,,,,,s015,001,2024-07-17_14h42.19.614,simplestop_skeleton,2022.2.2,59.86828041667459,
,,,,,,,,,,0,0,0,0,,,,,,"[{'fileName': 'squareblack.png', 'correct_response': 'right', 'condition': 'go'}, {'fileName': 'squareblack.png', 'correct_response': 'right', 'condition': 'go'}, {'fileName': 'squareblack.png', 'correct_response': 'right', 'condition': 'go'}, {'fileName': 'circleblack.png', 'correct_response': 'left', 'condition': 'go'}, {'fileName': 'circleblack.png', 'correct_response': 'left', 'condition': 'go'}, {'fileName': 'circleblack.png', 'correct_response': 'left', 'condition': 'go'}, {'fileName': 'squareblack.png', 'correct_response': 'right', 'condition': 'go'}, {'fileName': 'circleblack.png', 'correct_response': 'left', 'condition': 'go'}, {'fileName': 'squareblack.png', 'correct_response': 'right', 'condition': 'stop'}, {'fileName': 'circleblack.png', 'correct_response': 'left', 'condition': 'stop'}, {'fileName': 'squareblack.png', 'correct_response': 'right', 'condition': 'stop'}, {'fileName': 'circleblack.png', 'correct_response': 'left', 'condition': 'stop'}, {'fileName': 'squareblack.png', 'correct_response': 'right', 'condition': 'go'}, {'fileName': 'circleblack.png', 'correct_response': 'left', 'condition': 'go'}, {'fileName': 'squareblack.png', 'correct_response': 'right', 'condition': 'stop'}, {'fileName': 'squareblack.png', 'correct_response': 'right', 'condition': 'go'}, {'fileName': 'circleblack.png', 'correct_response': 'left', 'condition': 'stop'}, {'fileName': 'squareblack.png', 'correct_response': 'right', 'condition': 'stop'}, {'fileName': 'circleblack.png', 'correct_response': 'left', 'condition': 'stop'}, {'fileName': 'squareblack.png', 'correct_response': 'right', 'condition': 'go'}, {'fileName': 'squareblack.png', 'correct_response': 'right', 'condition': 'go'}, {'fileName': 'circleblack.png', 'correct_response': 'left', 'condition': 'go'}, {'fileName': 'circleblack.png', 'correct_response': 'left', 'condition': 'go'}, {'fileName': 'circleblack.png', 'correct_response': 'left', 'condition': 'go'}, {'fileName': 'circleblack.png', 'correct_response': 'left', 'condition': 'go'}, {'fileName': 'squareblack.png', 'correct_response': 'right', 'condition': 'stop'}, {'fileName': 'squareblack.png', 'correct_response': 'right', 'condition': 'go'}, {'fileName': 'circleblack.png', 'correct_response': 'left', 'condition': 'stop'}, {'fileName': 'circleblack.png', 'correct_response': 'left', 'condition': 'go'}, {'fileName': 'squareblack.png', 'correct_response': 'right', 'condition': 'stop'}, {'fileName': 'squareblack.png', 'correct_response': 'right', 'condition': 'go'}, {'fileName': 'circleblack.png', 'correct_response': 'left', 'condition': 'go'}, {'fileName': 'squareblack.png', 'correct_response': 'right', 'condition': 'go'}, {'fileName': 'circleblack.png', 'correct_response': 'left', 'condition': 'go'}, {'fileName': 'squareblack.png', 'correct_response': 'right', 'condition': 'go'}, {'fileName': 'circleblack.png', 'correct_response': 'left', 'condition': 'stop'}, {'fileName': 'circleblack.png', 'correct_response': 'left', 'condition': 'stop'}, {'fileName': 'circleblack.png', 'correct_response': 'left', 'condition': 'go'}, {'fileName': 'squareblack.png', 'correct_response': 'right', 'condition': 'go'}, {'fileName': 'squareblack.png', 'correct_response': 'right', 'condition': 'go'}, {'fileName': 'circleblack.png', 'correct_response': 'left', 'condition': 'go'}, {'fileName': 'circleblack.png', 'correct_response': 'left', 'condition': 'go'}, {'fileName': 'circleblack.png', 'correct_response': 'left', 'condition': 'go'}, {'fileName': 'squareblack.png', 'correct_response': 'right', 'condition': 'stop'}, {'fileName': 'squareblack.png', 'correct_response': 'right', 'condition': 'go'}, {'fileName': 'squareblack.png', 'correct_response': 'right', 'condition': 'stop'}, {'fileName': 'circleblack.png', 'correct_response': 'left', 'condition': 'stop'}, {'fileName': 'squareblack.png', 'correct_response': 'right', 'condition': 'go'}]",,,,,,,,,,,,,,,,,,,,,,,,,,,,,,,,,,,,,,,,,,,,,,,,,,,,,2932.4818502403796,2932.4818502403796,return,2.490870524197817,,,,,,,s015,001,2024-07-17_14h42.19.614,simplestop_skeleton,2022.2.2,59.86828041667459,
None,None,,,,,,,,,1,0,1,0,0,0,0,2,,,,,,,,,2934.9973139204085,go,squareblack.png,right,0.25,,,,,,,,,,,,,,,,,,0.0018574446439743042,0.4873771071434021,,2937.500361919403,test,2,,,,,,,2935.018887091428,2935.5296397171915,2935.5134640857577,2935.5134640857577,2935.7637964077294,2936.2645793929696,2936.514735173434,2937.5193945132196,left,0,1.1248567178845406,0.25,,,,,,,,,,,s015,001,2024-07-17_14h42.19.614,simplestop_skeleton,2022.2.2,59.86828041667459,
None,None,,,,,,,,,1,0,1,0,0,1,1,1,,,,,,,,,2937.500905301422,go,squareblack.png,right,0.25,,,,,,,,,,,,,,,,,,0.001338120549917221,0.48937810957431793,,2940.002757202834,test,2,,,,,,,2937.5193945132196,2938.033080458641,2938.0164075419307,2938.0164075419307,2938.2667147405446,2938.7670619264245,2939.016813516617,2940.0216595605016,right,1,0.46838415414094925,0.25,,,,,,,,,,,s015,001,2024-07-17_14h42.19.614,simplestop_skeleton,2022.2.2,59.86828041667459,
$currentCorrectResponse,$currentGoStim,,,,,,,,,1,0,1,0,0,2,2,0,,,,,,,,,2940.0031859725714,go,squareblack.png,right,0.25,,,,,,,,,,,,,,,,,,0.0012102648615837097,0.4898313023149967,,2942.505555462092,test,2,,,,,,,2940.0216595605016,2940.5356058329344,2940.5189769528806,2940.5189769528806,2940.7690581716597,2941.26986464113,2941.5197615027428,2942.530419562012,right,1,0.4850282855331898,0.25,,,,,,,,,,,s015,001,2024-07-17_14h42.19.614,simplestop_skeleton,2022.2.2,59.86828041667459,
None,None,,,,,,,,,1,0,1,0,0,3,3,3,,,,,,,,,2942.505986765027,go,circleblack.png,left,0.25,,,,,,,,,,,,,,,,,,0.008040498942136765,0.4898989535868168,,2945.0086700469255,test,2,,,,,,,2942.530419562012,2943.0387096740305,2943.021612368524,2943.021612368524,2943.2720640301704,2943.7726273201406,2944.0215927548707,2945.0276604257524,left,1,0.5690321922302246,0.25,,,,,,,,,,,s015,001,2024-07-17_14h42.19.614,simplestop_skeleton,2022.2.2,59.86828041667459,
None,None,,,,,,,,,1,0,1,0,1,0,4,3,,,,,,,,,2945.0091011486948,go,circleblack.png,left,0.25,,,,,,,,,,,,,,,,,,0.001402091234922409,0.4897264428436756,,2947.5113314054906,test,2,,,,,,,2945.0276604257524,2945.5413810424507,2945.5244842097163,2945.5244842097163,2945.7751585692167,2946.275311868638,2946.5241788178682,2947.5303349643946,left,1,0.6028382703661919,0.25,,,,,,,,,,,s015,001,2024-07-17_14h42.19.614,simplestop_skeleton,2022.2.2,59.86828041667459,
None,None,,,,,,,,,1,0,1,0,1,1,5,3,,,,,,,,,2947.51177168265,go,circleblack.png,left,0.25,,,,,,,,,,,,,,,,,,0.0013880804181098938,0.4896239638328552,,2950.0141043812037,test,2,,,,,,,2947.5303349643946,2948.0439564064145,2948.027243014425,2948.027243014425,2948.277623977512,2948.778160933405,2949.0271380506456,2950.0335629098117,left,1,0.551306314766407,0.25,,,,,,,,,,,s015,001,2024-07-17_14h42.19.614,simplestop_skeleton,2022.2.2,59.86828041667459,
None,None,,,,,,,,,1,0,1,0,1,2,6,3,,,,,,,,,2950.0145475938916,go,squareblack.png,right,0.25,,,,,,,,,,,,,,,,,,0.0017921589314937592,0.4893956035375595,,2952.516624316573,test,2,,,,,,,2950.0335629098117,2950.5468760989606,2950.5299075879157,2950.5299075879157,2950.7803411893547,2951.2807695642114,2951.5296334289014,2952.5360827073455,right,1,0.6349174864590168,0.25,,,,,,,,,,,s015,001,2024-07-17_14h42.19.614,simplestop_skeleton,2022.2.2,59.86828041667459,
None,None,,,,,,,,,1,0,1,0,1,3,7,2,,,,,,,,,2952.517054323107,go,circleblack.png,left,0.25,,,,,,,,,,,,,,,,,,0.0017348453402519226,0.4898082800209522,,2955.019947823137,test,2,,,,,,,2952.5360827073455,2953.0492498017848,2953.032611005008,2953.032611005008,2953.283011380583,2953.783606559038,2954.032463118434,2955.038991663605,left,1,0.5781546719372272,0.25,,,,,,,,,,,s015,001,2024-07-17_14h42.19.614,simplestop_skeleton,2022.2.2,59.86828041667459,
$currentCorrectResponse,$currentGoStim,,,,,,,,,1,0,1,0,2,0,8,0,,,,,,,,,2955.0203753113747,stop,squareblack.png,right,0.25,,,,,,,,,,,,,,,,,,0.0017704367637634277,0.48939068615436554,0.739494364708662,2957.5222591757774,test,2,,,,,,,2955.038991663605,2955.5520938932896,2955.535694424063,2955.535694424063,2955.785795394331,2956.2862533442676,2956.5365246385336,2957.541496541351,None,0,,0.3,,,,,,,,,,,s015,001,2024-07-17_14h42.19.614,simplestop_skeleton,2022.2.2,59.86828041667459,
None,None,,,,,,,,,1,0,1,0,2,1,9,1,,,,,,,,,2957.5226974971592,stop,circleblack.png,left,0.3,,,,,,,,,,,,,,,,,,0.0017819739878177643,0.4897550605237484,0.790160771459341,2960.0252215005457,test,2,,,,,,,2957.541496541351,2958.054878562689,2958.038634046912,2958.038634046912,2958.33872031793,2958.8394524864852,2959.0394095927477,2960.0452529340982,None,0,,0.35,,,,,,,,,,,s015,001,2024-07-17_14h42.19.614,simplestop_skeleton,2022.2.2,59.86828041667459,
None,None,,,,,,,,,1,0,1,0,2,2,10,1,,,,,,,,,2960.02564939484,stop,squareblack.png,right,0.35,,,,,,,,,,,,,,,,,,0.0019938871264457703,0.48958269879221916,0.8397750295698643,2962.527807235718,test,2,,,,,,,2960.0452529340982,2960.557711351663,2960.5411612056196,2960.5411612056196,2960.8914688676596,2961.3905080109835,2961.5410344563425,2962.5472529008985,right,1,0.5145272575318813,0.3,,,,,,,,,,,s015,001,2024-07-17_14h42.19.614,simplestop_skeleton,2022.2.2,59.86828041667459,
None,None,,,,,,,,,1,0,1,0,2,3,11,2,,,,,,,,,2962.528227698058,stop,circleblack.png,left,0.3,,,,,,,,,,,,,,,,,,0.0019275844097137451,0.48962702602148056,0.7900993935763836,2965.0305202566087,test,2,,,,,,,2962.5472529008985,2963.060604747385,2963.044035293162,2963.044035293162,2963.344130642712,2963.844753395766,2964.044912956655,2965.0498247928917,None,0,,0.35,,,,,,,,,,,s015,001,2024-07-17_14h42.19.614,simplestop_skeleton,2022.2.2,59.86828041667459,
$currentCorrectResponse,$currentGoStim,,,,,,,,,1,0,1,0,3,0,12,0,,,,,,,,,2965.030958663672,go,squareblack.png,right,0.35,,,,,,,,,,,,,,,,,,0.001650780439376831,0.4895996265113354,,2967.5331724323332,test,2,,,,,,,2965.0498247928917,2965.5633312128484,2965.546364367008,2965.546364367008,2965.8967779017985,2966.397462401539,2966.546065043658,2967.552605934441,right,1,0.5945911295711994,0.35,,,,,,,,,,,s015,001,2024-07-17_14h42.19.614,simplestop_skeleton,2022.2.2,59.86828041667459,
$currentCorrectResponse,$currentGoStim,,,,,,,,,1,0,1,0,3,1,13,0,,,,,,,,,2967.5336105786264,go,circleblack.png,left,0.35,,,,,,,,,,,,,,,,,,0.0017082318663597107,0.48939940333366394,,2970.036243662238,test,2,,,,,,,2967.552605934441,2968.065856292844,2968.0492888987064,2968.0492888987064,2968.399470690638,2968.898839596659,2969.0489942468703,2970.0558404140174,left,1,0.5416481681168079,0.35,,,,,,,,,,,s015,001,2024-07-17_14h42.19.614,simplestop_skeleton,2022.2.2,59.86828041667459,
None,None,,,,,,,,,1,0,1,0,3,2,14,2,,,,,,,,,2970.036667983979,stop,squareblack.png,right,0.35,,,,,,,,,,,,,,,,,,0.0018224529922008514,0.489780068397522,0.8386632204055786,2972.5381419695914,test,2,,,,,,,2970.0558404140174,2970.5695578679442,2970.5521666519344,2970.5521666519344,2970.9012773931026,2971.4025993160903,2971.551977530122,2972.5551107935607,None,0,,0.4,,,,,,,,,,,s015,001,2024-07-17_14h42.19.614,simplestop_skeleton,2022.2.2,59.86828041667459,
None,None,,,,,,,,,1,0,1,0,3,3,15,2,,,,,,,,,2972.5385799743235,go,squareblack.png,right,0.4,,,,,,,,,,,,,,,,,,0.001187700778245926,0.4904555678367615,,2975.041476827115,test,2,,,,,,,2972.5551107935607,2973.0549160838127,2973.0549160838127,2973.0549160838127,2973.4553946703672,2973.9558728188276,2974.054522562772,2975.060796480626,right,1,0.6129016913473606,0.4,,,,,,,,,,,s015,001,2024-07-17_14h42.19.614,simplestop_skeleton,2022.2.2,59.86828041667459,
$currentCorrectResponse,$currentGoStim,,,,,,,,,1,0,1,0,4,0,16,0,,,,,,,,,2975.041964970529,stop,circleblack.png,left,0.4,,,,,,,,,,,,,,,,,,0.0018442757427692413,0.48986469954252243,0.8904258236289024,2977.5443127825856,test,2,,,,,,,2975.060796480626,2975.574482847005,2975.557753108442,2975.557753108442,2975.958137270063,2976.4739251993597,2976.5576589927077,2977.563747230917,left,1,0.5284025222063065,0.35,,,,,,,,,,,s015,001,2024-07-17_14h42.19.614,simplestop_skeleton,2022.2.2,59.86828041667459,
$currentCorrectResponse,$currentGoStim,,,,,,,,,1,0,1,0,4,1,17,0,,,,,,,,,2977.5447548516095,stop,squareblack.png,right,0.35,,,,,,,,,,,,,,,,,,0.0017669834196567535,0.48950469493865967,0.8400086872279644,2980.046997565776,test,2,,,,,,,2977.563747230917,2978.0770043320954,2978.0603700727224,2978.0603700727224,2978.4108004942536,2978.911308914423,2979.0615179650486,2980.066209126264,None,0,,0.4,,,,,,,,,,,s015,001,2024-07-17_14h42.19.614,simplestop_skeleton,2022.2.2,59.86828041667459,
None,None,,,,,,,,,1,0,1,0,4,2,18,2,,,,,,,,,2980.047439210117,stop,circleblack.png,left,0.4,,,,,,,,,,,,,,,,,,0.0018664970993995667,0.4901301674544811,0.8906338512897491,2982.5496692694724,test,2,,,,,,,2980.066209126264,2980.579901199788,2980.563122611493,2980.563122611493,2980.963469874114,2981.4626006372273,2981.5626821778715,2982.5691627413034,left,1,0.5176934339106083,0.35,,,,,,,,,,,s015,001,2024-07-17_14h42.19.614,simplestop_skeleton,2022.2.2,59.86828041667459,
None,None,,,,,,,,,1,0,1,0,4,3,19,2,,,,,,,,,2982.5501008853316,go,squareblack.png,right,0.35,,,,,,,,,,,,,,,,,,0.0016657188534736633,0.48954910412430763,,2985.0528104938567,test,2,,,,,,,2982.5691627413034,2983.0824487544596,2983.065971557051,2983.065971557051,2983.4161533750594,2983.9170071668923,2984.0655347555876,2985.0716049186885,right,1,0.6397956274449825,0.35,,,,,,,,,,,s015,001,2024-07-17_14h42.19.614,simplestop_skeleton,2022.2.2,59.86828041667459,
None,None,,,,,,,,,1,0,1,0,5,0,20,1,,,,,,,,,2985.0532565675676,go,squareblack.png,right,0.35,,,,,,,,,,,,,,,,,,0.0013040117919445038,0.4899146445095539,,2987.5553776435554,test,2,,,,,,,2985.0716049186885,2985.5853307284415,2985.5685623176396,2985.5685623176396,2985.919124044478,2986.4196153618395,2986.5682981684804,2987.574642714113,right,1,0.5280940234661102,0.35,,,,,,,,,,,s015,001,2024-07-17_14h42.19.614,simplestop_skeleton,2022.2.2,59.86828041667459,
None,None,,,,,,,,,1,0,1,0,5,1,21,3,,,,,,,,,2987.555829707533,go,circleblack.png,left,0.35,,,,,,,,,,,,,,,,,,0.001861773431301117,0.4900081120431423,,2990.0581489279866,test,2,,,,,,,2987.574642714113,2988.088270276785,2988.071570817381,2988.071570817381,2988.421871766448,2988.937506906688,2989.0733619891107,2990.0773445107043,left,1,0.4840291254222393,0.35,,,,,,,,,,,s015,001,2024-07-17_14h42.19.614,simplestop_skeleton,2022.2.2,59.86828041667459,
None,None,,,,,,,,,1,0,1,0,5,2,22,1,,,,,,,,,2990.0585868172348,go,circleblack.png,left,0.35,,,,,,,,,,,,,,,,,,0.0014024525880813599,0.48938942700624466,,2992.5609464012086,test,2,,,,,,,2990.0773445107043,2990.59081934765,2990.5739597454667,2990.5739597454667,2990.9246717728674,2991.425079178065,2991.5737619400024,2992.5798297040164,left,1,0.606888759881258,0.35,,,,,,,,,,,s015,001,2024-07-17_14h42.19.614,simplestop_skeleton,2022.2.2,59.86828041667459,
$currentCorrectResponse,$currentGoStim,,,,,,,,,1,0,1,0,5,3,23,0,,,,,,,,,2992.5613847263157,go,circleblack.png,left,0.35,,,,,,,,,,,,,,,,,,0.0014116838574409485,0.4895423389971256,,2995.062452595681,test,2,,,,,,,2992.5798297040164,2993.0936005935073,2993.076921541244,2993.076921541244,2993.4272539056838,2993.928447816521,2994.0780017115176,2995.0810234360397,left,1,0.7526275627315044,0.35,,,,,,,,,,,s015,001,2024-07-17_14h42.19.614,simplestop_skeleton,2022.2.2,59.86828041667459,
None,None,,,,,,,,,1,0,1,0,6,0,24,1,,,,,,,,,2995.062886957079,go,circleblack.png,left,0.35,,,,,,,,,,,,,,,,,,0.0016881227493286133,0.48993339762091637,,2997.5663654208183,test,2,,,,,,,2995.0810234360397,2995.5963588021696,2995.580040305853,2995.580040305853,2995.9302571602166,2996.4458809904754,2996.579634450376,2997.590626887977,left,1,0.4882282465696335,0.35,,,,,,,,,,,s015,001,2024-07-17_14h42.19.614,simplestop_skeleton,2022.2.2,59.86828041667459,
None,None,,,,,,,,,1,0,1,0,6,1,25,3,,,,,,,,,2997.5667933039367,stop,squareblack.png,right,0.35,,,,,,,,,,,,,,,,,,0.007574271410703659,0.48996734246611595,0.8399960324168205,3000.069068469107,test,2,,,,,,,2997.590626887977,2998.0990744158626,2998.082585770637,2998.082585770637,2998.4330094717443,2998.933612380177,2999.0834905467927,3000.0878824591637,None,0,,0.4,,,,,,,,,,,s015,001,2024-07-17_14h42.19.614,simplestop_skeleton,2022.2.2,59.86828041667459,
None,None,,,,,,,,,1,0,1,0,6,2,26,2,,,,,,,,,3000.069501552731,go,squareblack.png,right,0.4,,,,,,,,,,,,,,,,,,0.0012735426425933838,0.48996174708008766,,3002.5719266198575,test,2,,,,,,,3000.0878824591637,3000.602084517479,3000.5851588472724,3000.5851588472724,3000.985629159957,3001.486195407808,3001.5848345533013,3002.5916215479374,right,1,0.6504703983664513,0.4,,,,,,,,,,,s015,001,2024-07-17_14h42.19.614,simplestop_skeleton,2022.2.2,59.86828041667459,
$currentCorrectResponse,$currentGoStim,,,,,,,,,1,0,1,0,6,3,27,0,,,,,,,,,3002.5723542757332,stop,circleblack.png,left,0.4,,,,,,,,,,,,,,,,,,0.002004362642765045,0.48968425020575523,0.8899006396532059,3005.0746331885457,test,2,,,,,,,3002.5916215479374,3003.104589212686,3003.0882201381028,3003.0882201381028,3003.4884340278804,3003.9874098189175,3004.0874395743012,3005.093747831881,left,1,0.5913480333983898,0.35,,,,,,,,,,,s015,001,2024-07-17_14h42.19.614,simplestop_skeleton,2022.2.2,59.86828041667459,
None,None,,,,,,,,,1,0,1,0,7,0,28,1,,,,,,,,,3005.075069759041,go,circleblack.png,left,0.35,,,,,,,,,,,,,,,,,,0.0014181509613990784,0.4897003099322319,,3007.577373288572,test,2,,,,,,,3005.093747831881,3005.6075402982533,3005.5905427075922,3005.5905427075922,3005.940963499248,3006.440094653517,3006.5910211354494,3007.596708100289,left,1,0.4785996899008751,0.35,,,,,,,,,,,s015,001,2024-07-17_14h42.19.614,simplestop_skeleton,2022.2.2,59.86828041667459,
$currentCorrectResponse,$currentGoStim,,,,,,,,,1,0,1,0,7,1,29,0,,,,,,,,,3007.5778035521507,stop,squareblack.png,right,0.35,,,,,,,,,,,,,,,,,,0.0018032491207122803,0.48949673771858215,0.8398636803030968,3010.0802211016417,test,2,,,,,,,3007.596708100289,3008.1100810691714,3008.093410808593,3008.093410808593,3008.443628501147,3008.9441581219435,3009.094411227852,3010.098727118224,None,0,,0.4,,,,,,,,,,,s015,001,2024-07-17_14h42.19.614,simplestop_skeleton,2022.2.2,59.86828041667459,
None,None,,,,,,,,,1,0,1,0,7,2,30,2,,,,,,,,,3010.080652255565,go,squareblack.png,right,0.4,,,,,,,,,,,,,,,,,,0.0011950694024562836,0.489804744720459,,3012.5828109532595,test,2,,,,,,,3010.098727118224,3010.6128413267434,3010.5961634367704,3010.5961634367704,3010.9965827688575,3011.497277826071,3011.596047464758,3012.602161616087,right,1,0.7015976421535015,0.4,,,,,,,,,,,s015,001,2024-07-17_14h42.19.614,simplestop_skeleton,2022.2.2,59.86828041667459,
None,None,,,,,,,,,1,0,1,0,7,3,31,1,,,,,,,,,3012.5832356885076,go,circleblack.png,left,0.4,,,,,,,,,,,,,,,,,,0.0018593445420265198,0.4898120351135731,,3015.085578583181,test,2,,,,,,,3012.602161616087,3013.1155952960253,3013.098870780319,3013.098870780319,3013.4994321987033,3014.000171560794,3014.100084643811,3015.1028100401163,left,1,1.1859489046037197,0.4,,,,,,,,,,,s015,001,2024-07-17_14h42.19.614,simplestop_skeleton,2022.2.2,59.86828041667459,
None,None,,,,,,,,,1,0,1,0,8,0,32,3,,,,,,,,,3015.0860364586115,go,squareblack.png,right,0.4,,,,,,,,,,,,,,,,,,0.0017074309289455414,0.4902663193643093,,3017.5886687748134,test,2,,,,,,,3015.1028100401163,3015.601966548711,3015.601966548711,3015.601966548711,3016.0024135820568,3016.5179605968297,3016.60148402676,3017.608670335263,right,1,0.5606667585670948,0.4,,,,,,,,,,,s015,001,2024-07-17_14h42.19.614,simplestop_skeleton,2022.2.2,59.86828041667459,
None,None,,,,,,,,,1,0,1,0,8,1,33,3,,,,,,,,,3017.589101649821,go,circleblack.png,left,0.4,,,,,,,,,,,,,,,,,,0.0024644769728183746,0.4890083037316799,,3020.091161556542,test,2,,,,,,,3017.608670335263,3018.1214697919786,3018.104696765542,3018.104696765542,3018.5050392858684,3019.020825956017,3019.1040798276663,3020.110206026584,left,1,0.5469725467264652,0.4,,,,,,,,,,,s015,001,2024-07-17_14h42.19.614,simplestop_skeleton,2022.2.2,59.86828041667459,
None,None,,,,,,,,,1,0,1,0,8,2,34,3,,,,,,,,,3020.0916130654514,go,squareblack.png,right,0.4,,,,,,,,,,,,,,,,,,0.0016958527266979218,0.4896252527832985,,3022.593974325806,test,2,,,,,,,3020.110206026584,3020.6237921752036,3020.6072382852435,3020.6072382852435,3021.0077232047915,3021.5082723274827,3021.60690253973,3022.613779064268,right,1,0.6919627711176872,0.4,,,,,,,,,,,s015,001,2024-07-17_14h42.19.614,simplestop_skeleton,2022.2.2,59.86828041667459,
None,None,,,,,,,,,1,0,1,0,8,3,35,2,,,,,,,,,3022.5944177284837,stop,circleblack.png,left,0.4,,,,,,,,,,,,,,,,,,0.0019551999866962433,0.48967279493808746,0.8899834752082825,3025.096924059093,test,2,,,,,,,3022.613779064268,3023.1267448216677,3023.1099380627275,3023.1099380627275,3023.5103491693735,3024.011056922376,3024.111141964793,3025.115731332451,None,0,,0.45,,,,,,,,,,,s015,001,2024-07-17_14h42.19.614,simplestop_skeleton,2022.2.2,59.86828041667459,
None,None,,,,,,,,,1,0,1,0,9,0,36,2,,,,,,,,,3025.0973595157266,stop,circleblack.png,left,0.45,,,,,,,,,,,,,,,,,,0.0013264082372188568,0.4897236339747906,0.9400889240205288,3027.599579643458,test,2,,,,,,,3025.115731332451,3025.629456050694,3025.6131826527417,3025.6131826527417,3026.0637104660273,3026.580302570015,3026.6134196184576,3027.6187181398273,left,1,0.40801382064819336,0.4,,,,,,,,,,,s015,001,2024-07-17_14h42.19.614,simplestop_skeleton,2022.2.2,59.86828041667459,
$currentCorrectResponse,$currentGoStim,,,,,,,,,1,0,1,0,9,1,37,0,,,,,,,,,3027.6000024601817,go,circleblack.png,left,0.4,,,,,,,,,,,,,,,,,,0.0013743117451667786,0.48954084888100624,,3030.102029647678,test,2,,,,,,,3027.6187181398273,3028.1324747279286,3028.1155992895365,3028.1155992895365,3028.516133606434,3029.031870584935,3029.1152520142496,3030.121355060488,left,1,0.5460930541157722,0.4,,,,,,,,,,,s015,001,2024-07-17_14h42.19.614,simplestop_skeleton,2022.2.2,59.86828041667459,
None,None,,,,,,,,,1,0,1,0,9,2,38,2,,,,,,,,,3030.102462552488,go,squareblack.png,right,0.4,,,,,,,,,,,,,,,,,,0.001749929040670395,0.48980608955025673,,3032.605011627078,test,2,,,,,,,3030.121355060488,3030.6350197046995,3030.6185238957405,3030.6185238957405,3031.0190048366785,3031.534574072808,3031.617955353111,3032.622628092766,right,1,0.5309958644211292,0.4,,,,,,,,,,,s015,001,2024-07-17_14h42.19.614,simplestop_skeleton,2022.2.2,59.86828041667459,
None,None,,,,,,,,,1,0,1,0,9,3,39,1,,,,,,,,,3032.6054502390325,go,squareblack.png,right,0.4,,,,,,,,,,,,,,,,,,0.0012068115174770355,0.4902009069919586,,3035.10827684775,test,2,,,,,,,3032.622628092766,3033.137798193842,3033.1210231520236,3033.1210231520236,3033.521541751921,3034.0372820198536,3034.1207150816917,3035.1304838247597,right,1,0.5645001903176308,0.4,,,,,,,,,,,s015,001,2024-07-17_14h42.19.614,simplestop_skeleton,2022.2.2,59.86828041667459,
None,None,,,,,,,,,1,0,1,0,10,0,40,3,,,,,,,,,3035.1088178120553,go,circleblack.png,left,0.4,,,,,,,,,,,,,,,,,,0.001920752227306366,0.4862659089267254,,3037.6103867068887,test,2,,,,,,,3035.1304838247597,3035.6405025199056,3035.6238828338683,3035.6238828338683,3036.0242654159665,3036.5248598381877,3036.62346476689,3037.6292871162295,left,1,0.6629150584340096,0.4,,,,,,,,,,,s015,001,2024-07-17_14h42.19.614,simplestop_skeleton,2022.2.2,59.86828041667459,
$currentCorrectResponse,$currentGoStim,,,,,,,,,1,0,1,0,10,1,41,0,,,,,,,,,3037.610827218741,go,circleblack.png,left,0.4,,,,,,,,,,,,,,,,,,0.00125063955783844,0.48989663273096085,,3040.113057117909,test,2,,,,,,,3037.6292871162295,3038.143186300993,3038.1265340298414,3038.1265340298414,3038.526940498501,3039.0260929204524,3039.127165801823,3040.1319773606956,left,1,0.45560047402977943,0.4,,,,,,,,,,,s015,001,2024-07-17_14h42.19.614,simplestop_skeleton,2022.2.2,59.86828041667459,
None,None,,,,,,,,,1,0,1,0,10,2,42,1,,,,,,,,,3040.1135489158332,go,circleblack.png,left,0.4,,,,,,,,,,,,,,,,,,0.0013604164123535156,0.4897955693304539,,3042.6161495633423,test,2,,,,,,,3040.1319773606956,3040.6462287157774,3040.629426084459,3040.629426084459,3041.0299206078053,3041.5455318130553,3041.6292521357536,3042.637990564108,left,1,0.5082038938999176,0.4,,,,,,,,,,,s015,001,2024-07-17_14h42.19.614,simplestop_skeleton,2022.2.2,59.86828041667459,
None,None,,,,,,,,,1,0,1,0,10,3,43,1,,,,,,,,,3042.6165915839374,stop,squareblack.png,right,0.4,,,,,,,,,,,,,,,,,,0.004229418933391571,0.48822004348039627,0.8894563242793083,3045.118849027902,test,2,,,,,,,3042.637990564108,3043.1481306813657,3043.1316183432937,3043.1316183432937,3043.5325289592147,3044.031899370253,3044.131909247488,3045.137529272586,right,1,0.5773082971572876,0.35,,,,,,,,,,,s015,001,2024-07-17_14h42.19.614,simplestop_skeleton,2022.2.2,59.86828041667459,
None,None,,,,,,,,,1,0,1,0,11,0,44,3,,,,,,,,,3045.1192830987275,go,squareblack.png,right,0.35,,,,,,,,,,,,,,,,,,0.0011828690767288208,0.4899008274078369,,3047.621792625636,test,2,,,,,,,3045.137529272586,3045.65156975016,3045.6350155360997,3045.6350155360997,3045.9852078296244,3046.484331358224,3046.6349676065147,3047.6408578529954,right,1,0.5196116007864475,0.35,,,,,,,,,,,s015,001,2024-07-17_14h42.19.614,simplestop_skeleton,2022.2.2,59.86828041667459,
None,None,,,,,,,,,1,0,1,0,11,1,45,1,,,,,,,,,3047.6222339868546,stop,squareblack.png,right,0.35,,,,,,,,,,,,,,,,,,0.0013110265135765076,0.4896123595535755,0.8399243727326393,3050.1243592463434,test,2,,,,,,,3047.6408578529954,3048.154372226447,3048.137669991702,3048.137669991702,3048.4881883487105,3049.003874462098,3049.137749861926,3050.1438082307577,right,1,0.4981287904083729,0.3,,,,,,,,,,,s015,001,2024-07-17_14h42.19.614,simplestop_skeleton,2022.2.2,59.86828041667459,
None,None,,,,,,,,,1,0,1,0,11,2,46,3,,,,,,,,,3050.124790035188,stop,circleblack.png,left,0.3,,,,,,,,,,,,,,,,,,0.0018832571804523468,0.4900036044418812,0.7902299724519253,3052.627247877419,test,2,,,,,,,3050.1438082307577,3050.6571493260562,3050.640659943223,3050.640659943223,3050.940807029605,3051.441803779453,3051.6417785175145,3052.646518036723,None,0,,0.35,,,,,,,,,,,s015,001,2024-07-17_14h42.19.614,simplestop_skeleton,2022.2.2,59.86828041667459,
$currentCorrectResponse,$currentGoStim,,,,,,,,,1,0,1,0,11,3,47,0,,,,,,,,,3052.6276951134205,go,squareblack.png,right,0.35,,,,,,,,,,,,,,,,,,0.0015744641423225403,0.48965390771627426,,3055.1299358680844,test,2,,,,,,,3052.646518036723,3053.160201665014,3053.143098127097,3053.143098127097,3053.4937100037932,3053.994188182056,3054.14284132421,3055.1453975215554,right,1,0.5682597234845161,0.35,,,,,,,,,,,s015,001,2024-07-17_14h42.19.614,simplestop_skeleton,2022.2.2,59.86828041667459,
,,,,,,,,,,1,0,1,0,,,,,,,,,,,,,,,,,,,,,,,,,,,,,,,,,,,,,,,,,,,,,,,,,,,,,,,,,,,3055.1453975215554,3055.1453975215554,return,1.79638334736228,"[{'fileName': 'squareblack.png', 'correct_response': 'right', 'condition': 'stop'}, {'fileName': 'circleblack.png', 'correct_response': 'left', 'condition': 'go'}, {'fileName': 'circleblack.png', 'correct_response': 'left', 'condition': 'go'}, {'fileName': 'circleblack.png', 'correct_response': 'left', 'condition': 'stop'}, {'fileName': 'squareblack.png', 'correct_response': 'right', 'condition': 'go'}, {'fileName': 'circleblack.png', 'correct_response': 'left', 'condition': 'stop'}, {'fileName': 'squareblack.png', 'correct_response': 'right', 'condition': 'go'}, {'fileName': 'squareblack.png', 'correct_response': 'right', 'condition': 'go'}, {'fileName': 'circleblack.png', 'correct_response': 'left', 'condition': 'go'}, {'fileName': 'circleblack.png', 'correct_response': 'left', 'condition': 'go'}, {'fileName': 'squareblack.png', 'correct_response': 'right', 'condition': 'stop'}, {'fileName': 'squareblack.png', 'correct_response': 'right', 'condition': 'go'}, {'fileName': 'squareblack.png', 'correct_response': 'right', 'condition': 'go'}, {'fileName': 'squareblack.png', 'correct_response': 'right', 'condition': 'go'}, {'fileName': 'circleblack.png', 'correct_response': 'left', 'condition': 'stop'}, {'fileName': 'circleblack.png', 'correct_response': 'left', 'condition': 'stop'}, {'fileName': 'circleblack.png', 'correct_response': 'left', 'condition': 'go'}, {'fileName': 'squareblack.png', 'correct_response': 'right', 'condition': 'stop'}, {'fileName': 'circleblack.png', 'correct_response': 'left', 'condition': 'go'}, {'fileName': 'circleblack.png', 'correct_response': 'left', 'condition': 'go'}, {'fileName': 'squareblack.png', 'correct_response': 'right', 'condition': 'go'}, {'fileName': 'squareblack.png', 'correct_response': 'right', 'condition': 'go'}, {'fileName': 'squareblack.png', 'correct_response': 'right', 'condition': 'stop'}, {'fileName': 'circleblack.png', 'correct_response': 'left', 'condition': 'go'}, {'fileName': 'circleblack.png', 'correct_response': 'left', 'condition': 'stop'}, {'fileName': 'circleblack.png', 'correct_response': 'left', 'condition': 'stop'}, {'fileName': 'circleblack.png', 'correct_response': 'left', 'condition': 'go'}, {'fileName': 'squareblack.png', 'correct_response': 'right', 'condition': 'go'}, {'fileName': 'squareblack.png', 'correct_response': 'right', 'condition': 'stop'}, {'fileName': 'circleblack.png', 'correct_response': 'left', 'condition': 'go'}, {'fileName': 'squareblack.png', 'correct_response': 'right', 'condition': 'stop'}, {'fileName': 'circleblack.png', 'correct_response': 'left', 'condition': 'go'}, {'fileName': 'squareblack.png', 'correct_response': 'right', 'condition': 'go'}, {'fileName': 'squareblack.png', 'correct_response': 'right', 'condition': 'go'}, {'fileName': 'circleblack.png', 'correct_response': 'left', 'condition': 'go'}, {'fileName': 'squareblack.png', 'correct_response': 'right', 'condition': 'go'}, {'fileName': 'squareblack.png', 'correct_response': 'right', 'condition': 'go'}, {'fileName': 'squareblack.png', 'correct_response': 'right', 'condition': 'stop'}, {'fileName': 'circleblack.png', 'correct_response': 'left', 'condition': 'stop'}, {'fileName': 'squareblack.png', 'correct_response': 'right', 'condition': 'stop'}, {'fileName': 'squareblack.png', 'correct_response': 'right', 'condition': 'go'}, {'fileName': 'circleblack.png', 'correct_response': 'left', 'condition': 'go'}, {'fileName': 'circleblack.png', 'correct_response': 'left', 'condition': 'stop'}, {'fileName': 'circleblack.png', 'correct_response': 'left', 'condition': 'go'}, {'fileName': 'circleblack.png', 'correct_response': 'left', 'condition': 'go'}, {'fileName': 'squareblack.png', 'correct_response': 'right', 'condition': 'go'}, {'fileName': 'circleblack.png', 'correct_response': 'left', 'condition': 'go'}, {'fileName': 'squareblack.png', 'correct_response': 'right', 'condition': 'go'}]",,,,,,s015,001,2024-07-17_14h42.19.614,simplestop_skeleton,2022.2.2,59.86828041667459,
$currentCorrectResponse,$currentGoStim,,,,,,,,,2,0,2,0,0,0,0,0,,,,,,,,,3056.9656304717064,stop,squareblack.png,right,0.35,,,,,,,,,,,,,,,,,,0.0013349466025829315,0.4873444736003876,0.8387684933841228,3059.4684311002493,test,3,,,,,,,3056.9854259081185,3057.498742982745,3057.480006739497,3057.480006739497,3057.831595417112,3058.332187946886,3058.482634034008,3059.4881601668894,left,0,0.4925719127058983,0.3,,,,,,,,,,,s015,001,2024-07-17_14h42.19.614,simplestop_skeleton,2022.2.2,59.86828041667459,
None,None,,,,,,,,,2,0,2,0,0,1,1,3,,,,,,,,,3059.468959391117,go,circleblack.png,left,0.3,,,,,,,,,,,,,,,,,,0.0027303583920001984,0.4889489859342575,,3061.9708809629083,test,3,,,,,,,3059.4881601668894,3060.000847171992,3059.984080158174,3059.984080158174,3060.284497603774,3060.785047072917,3060.9838297590613,3061.990091703832,left,1,0.5458227246999741,0.3,,,,,,,,,,,s015,001,2024-07-17_14h42.19.614,simplestop_skeleton,2022.2.2,59.86828041667459,
None,None,,,,,,,,,2,0,2,0,0,2,2,3,,,,,,,,,3061.9713238552213,go,circleblack.png,left,0.3,,,,,,,,,,,,,,,,,,0.0014106370508670807,0.4896687753498554,,3064.473832182586,test,3,,,,,,,3061.990091703832,3062.503454759717,3062.4870113134384,3062.4870113134384,3062.787134349346,3063.2862156927586,3063.4867206066847,3064.4925301484764,left,1,0.49359461665153503,0.3,,,,,,,,,,,s015,001,2024-07-17_14h42.19.614,simplestop_skeleton,2022.2.2,59.86828041667459,
$currentCorrectResponse,$currentGoStim,,,,,,,,,2,0,2,0,0,3,3,0,,,,,,,,,3064.4742737598717,stop,circleblack.png,left,0.3,,,,,,,,,,,,,,,,,,0.0013471618294715881,0.4895630441606045,0.7898928448557854,3066.976913623512,test,3,,,,,,,3064.4925301484764,3065.0063378699124,3064.989666376263,3064.989666376263,3065.2899427488446,3065.8057073242962,3065.9901273697615,3066.9962018579245,left,1,0.4197331815958023,0.25,,,,,,,,,,,s015,001,2024-07-17_14h42.19.614,simplestop_skeleton,2022.2.2,59.86828041667459,
None,None,,,,,,,,,2,0,2,0,1,0,4,1,,,,,,,,,3066.9773360975087,go,squareblack.png,right,0.25,,,,,,,,,,,,,,,,,,0.0025474950671195984,0.48946522921323776,,3069.4792162440717,test,3,,,,,,,3066.9962018579245,3067.508902184665,3067.4924802295864,3067.4924802295864,3067.742787171155,3068.2434108816087,3068.4923376515508,3069.498878225684,right,1,0.5060376487672329,0.25,,,,,,,,,,,s015,001,2024-07-17_14h42.19.614,simplestop_skeleton,2022.2.2,59.86828041667459,
None,None,,,,,,,,,2,0,2,0,1,1,5,3,,,,,,,,,3069.479637570679,stop,circleblack.png,left,0.25,,,,,,,,,,,,,,,,,,0.0019043684005737305,0.4891377240419388,0.7396134808659554,3071.982023999095,test,3,,,,,,,3069.498878225684,3070.0117721930146,3069.9953535459936,3069.9953535459936,3070.245490092784,3070.7460125274956,3070.996155899018,3072.000915993005,None,0,,0.3,,,,,,,,,,,s015,001,2024-07-17_14h42.19.614,simplestop_skeleton,2022.2.2,59.86828041667459,
None,None,,,,,,,,,2,0,2,0,1,2,6,2,,,,,,,,,3071.9824580438435,go,squareblack.png,right,0.3,,,,,,,,,,,,,,,,,,0.0016044192016124725,0.48973197489976883,,3074.4848291538656,test,3,,,,,,,3072.000915993005,3072.5145172923803,3072.4979840926826,3072.4979840926826,3072.798047889024,3073.2987342253327,3073.4976795613766,3074.5037593729794,right,1,0.6363856270909309,0.3,,,,,,,,,,,s015,001,2024-07-17_14h42.19.614,simplestop_skeleton,2022.2.2,59.86828041667459,
$currentCorrectResponse,$currentGoStim,,,,,,,,,2,0,2,0,1,3,7,0,,,,,,,,,3074.4852628335357,go,squareblack.png,right,0.3,,,,,,,,,,,,,,,,,,0.0013465248048305511,0.48958925530314445,,3076.9876828193665,test,3,,,,,,,3074.5037593729794,3075.01727187261,3075.0006385557353,3075.0006385557353,3075.3010810278356,3075.8167183995247,3076.000742338598,3077.0071946419775,right,1,0.5099089853465557,0.3,,,,,,,,,,,s015,001,2024-07-17_14h42.19.614,simplestop_skeleton,2022.2.2,59.86828041667459,
None,None,,,,,,,,,2,0,2,0,2,0,8,2,,,,,,,,,3076.9881182834506,go,circleblack.png,left,0.3,,,,,,,,,,,,,,,,,,0.002079535275697708,0.48946959525346756,,3079.490264829248,test,3,,,,,,,3077.0071946419775,3077.52004705742,3077.503316383809,3077.503316383809,3077.8037374950945,3078.302933756262,3078.5033621154726,3079.508922189474,left,1,0.49710096418857574,0.3,,,,,,,,,,,s015,001,2024-07-17_14h42.19.614,simplestop_skeleton,2022.2.2,59.86828041667459,
None,None,,,,,,,,,2,0,2,0,2,1,9,3,,,,,,,,,3079.490699775517,go,circleblack.png,left,0.3,,,,,,,,,,,,,,,,,,0.0013700388371944427,0.4895974099636078,,3081.99277504161,test,3,,,,,,,3079.508922189474,3080.022889316082,3080.006099257618,3080.006099257618,3080.306384846568,3080.8070504181087,3081.005807131529,3082.011938650161,left,1,0.5348952040076256,0.3,,,,,,,,,,,s015,001,2024-07-17_14h42.19.614,simplestop_skeleton,2022.2.2,59.86828041667459,
None,None,,,,,,,,,2,0,2,0,2,2,10,3,,,,,,,,,3081.993274446577,stop,squareblack.png,right,0.3,,,,,,,,,,,,,,,,,,0.0015858672559261322,0.4897652789950371,0.7901285998523235,3084.4957382529974,test,3,,,,,,,3082.011938650161,3082.5255256034434,3082.5088503807783,3082.5088503807783,3082.809421878308,3083.3097162246704,3083.5100427754223,3084.514612928033,None,0,,0.35,,,,,,,,,,,s015,001,2024-07-17_14h42.19.614,simplestop_skeleton,2022.2.2,59.86828041667459,
None,None,,,,,,,,,2,0,2,0,2,3,11,2,,,,,,,,,3084.496176343411,go,squareblack.png,right,0.35,,,,,,,,,,,,,,,,,,0.0013256222009658813,0.4894620217382908,,3086.9985604397953,test,3,,,,,,,3084.514612928033,3085.0283207409084,3085.0118820033967,3085.0118820033967,3085.362469661981,3085.877810832113,3086.0113083198667,3087.017472833395,right,1,0.6529911011457443,0.35,,,,,,,,,,,s015,001,2024-07-17_14h42.19.614,simplestop_skeleton,2022.2.2,59.86828041667459,
None,None,,,,,,,,,2,0,2,0,3,0,12,2,,,,,,,,,3086.9989951997995,go,squareblack.png,right,0.35,,,,,,,,,,,,,,,,,,0.0013373754918575287,0.48950305208563805,,3089.501496542245,test,3,,,,,,,3087.017472833395,3087.531178496778,3087.5143262557685,3087.5143262557685,3087.8649570159614,3088.3805740959942,3088.5141981877387,3089.5200857184827,right,1,0.48931267112493515,0.35,,,,,,,,,,,s015,001,2024-07-17_14h42.19.614,simplestop_skeleton,2022.2.2,59.86828041667459,
None,None,,,,,,,,,2,0,2,0,3,1,13,1,,,,,,,,,3089.501933246851,go,squareblack.png,right,0.35,,,,,,,,,,,,,,,,,,0.0012788847088813782,0.4895864501595497,,3092.0039315596223,test,3,,,,,,,3089.5200857184827,3090.03398514539,3090.01705769822,3090.01705769822,3090.367885284126,3090.8833733536303,3091.0169050619006,3092.0297226049006,right,1,0.47448817640542984,0.35,,,,,,,,,,,s015,001,2024-07-17_14h42.19.614,simplestop_skeleton,2022.2.2,59.86828041667459,
None,None,,,,,,,,,2,0,2,0,3,2,14,1,,,,,,,,,3092.004386782646,stop,circleblack.png,left,0.35,,,,,,,,,,,,,,,,,,0.008887253701686859,0.4899146780371666,0.8402428962290287,3094.506691545248,test,3,,,,,,,3092.0297226049006,3092.5367947630584,3092.520147357136,3092.520147357136,3092.8704797923565,3093.3708831444383,3093.5197657495737,3094.5254716463387,left,1,0.6720448024570942,0.3,,,,,,,,,,,s015,001,2024-07-17_14h42.19.614,simplestop_skeleton,2022.2.2,59.86828041667459,
$currentCorrectResponse,$currentGoStim,,,,,,,,,2,0,2,0,3,3,15,0,,,,,,,,,3094.507116433233,stop,circleblack.png,left,0.3,,,,,,,,,,,,,,,,,,0.0013756006956100464,0.4897642470896244,0.7899874597787857,3097.009386215359,test,3,,,,,,,3094.5254716463387,3095.039380669594,3095.0227878689766,3095.0227878689766,3095.3229199908674,3095.8221531175077,3096.0222530402243,3097.028429083526,left,1,0.4770871102809906,0.25,,,,,,,,,,,s015,001,2024-07-17_14h42.19.614,simplestop_skeleton,2022.2.2,59.86828041667459,
$currentCorrectResponse,$currentGoStim,,,,,,,,,2,0,2,0,4,0,16,0,,,,,,,,,3097.009819082916,go,circleblack.png,left,0.25,,,,,,,,,,,,,,,,,,0.0013816282153129578,0.48975682631134987,,3099.5124164260924,test,3,,,,,,,3097.028429083526,3097.5419452488422,3097.5254109054804,3097.5254109054804,3097.7755633741617,3098.2761754617095,3098.525085352361,3099.531756218523,left,1,0.5929801613092422,0.25,,,,,,,,,,,s015,001,2024-07-17_14h42.19.614,simplestop_skeleton,2022.2.2,59.86828041667459,
None,None,,,,,,,,,2,0,2,0,4,1,17,1,,,,,,,,,3099.512845147401,stop,squareblack.png,right,0.25,,,,,,,,,,,,,,,,,,0.001842208206653595,0.48954810947179794,0.7398600243031979,3102.014877114445,test,3,,,,,,,3099.531756218523,3100.045014977455,3100.0281149335206,3100.0281149335206,3100.2785034626722,3100.779021590948,3101.0293912030756,3102.033986631781,None,0,,0.3,,,,,,,,,,,s015,001,2024-07-17_14h42.19.614,simplestop_skeleton,2022.2.2,59.86828041667459,
None,None,,,,,,,,,2,0,2,0,4,2,18,2,,,,,,,,,3102.015347458422,go,circleblack.png,left,0.3,,,,,,,,,,,,,,,,,,0.0017693601548671722,0.4899103194475174,,3104.5179013833404,test,3,,,,,,,3102.033986631781,3102.5476794429123,3102.530961919576,3102.530961919576,3102.831315059215,3103.331898152828,3103.530586667359,3104.537039935589,left,1,0.6034234091639519,0.3,,,,,,,,,,,s015,001,2024-07-17_14h42.19.614,simplestop_skeleton,2022.2.2,59.86828041667459,
None,None,,,,,,,,,2,0,2,0,4,3,19,1,,,,,,,,,3104.5183466896415,go,circleblack.png,left,0.3,,,,,,,,,,,,,,,,,,0.001422051340341568,0.48926857486367226,,3107.020557165146,test,3,,,,,,,3104.537039935589,3105.050558131188,3105.0335576608777,3105.0335576608777,3105.3342041000724,3105.8331431485713,3106.033493708819,3107.039725020528,left,1,0.4997423067688942,0.3,,,,,,,,,,,s015,001,2024-07-17_14h42.19.614,simplestop_skeleton,2022.2.2,59.86828041667459,
None,None,,,,,,,,,2,0,2,0,5,0,20,3,,,,,,,,,3107.021008487791,go,squareblack.png,right,0.3,,,,,,,,,,,,,,,,,,0.0017640702426433563,0.4899534471333027,,3109.5234000086784,test,3,,,,,,,3107.039725020528,3107.5535693876445,3107.5365441925824,3107.5365441925824,3107.836918734014,3108.337441831827,3108.5362003408372,3109.542151335627,right,1,0.6009838432073593,0.3,,,,,,,,,,,s015,001,2024-07-17_14h42.19.614,simplestop_skeleton,2022.2.2,59.86828041667459,
None,None,,,,,,,,,2,0,2,0,5,1,21,3,,,,,,,,,3109.5238261818886,go,squareblack.png,right,0.3,,,,,,,,,,,,,,,,,,0.0013437718152999878,0.4897938296198845,,3112.0258747003973,test,3,,,,,,,3109.542151335627,3110.05591474846,3110.0392941236496,3110.0392941236496,3110.3396456949413,3110.840170055628,3111.0389677397907,3112.0445782393217,right,1,0.5180107466876507,0.3,,,,,,,,,,,s015,001,2024-07-17_14h42.19.614,simplestop_skeleton,2022.2.2,59.86828041667459,
$currentCorrectResponse,$currentGoStim,,,,,,,,,2,0,2,0,5,2,22,0,,,,,,,,,3112.0263048112392,stop,squareblack.png,right,0.3,,,,,,,,,,,,,,,,,,0.001188822090625763,0.4902176633477211,0.790358129888773,3114.5289081931114,test,3,,,,,,,3112.0445782393217,3112.558569442481,3112.542017109692,3112.542017109692,3112.842602647841,3113.3582669980824,3113.541845701635,3114.5485047623515,right,1,0.48349905014038086,0.25,,,,,,,,,,,s015,001,2024-07-17_14h42.19.614,simplestop_skeleton,2022.2.2,59.86828041667459,
$currentCorrectResponse,$currentGoStim,,,,,,,,,2,0,2,0,5,3,23,0,,,,,,,,,3114.529349051416,go,circleblack.png,left,0.25,,,,,,,,,,,,,,,,,,0.0020127855241298676,0.48943890258669853,,3117.0314079225063,test,3,,,,,,,3114.5485047623515,3115.06172381714,3115.0449709407985,3115.0449709407985,3115.2954696677625,3115.8112833574414,3116.044434711337,3117.050269138068,left,1,0.620512917637825,0.25,,,,,,,,,,,s015,001,2024-07-17_14h42.19.614,simplestop_skeleton,2022.2.2,59.86828041667459,
None,None,,,,,,,,,2,0,2,0,6,0,24,1,,,,,,,,,3117.031834334135,stop,circleblack.png,left,0.25,,,,,,,,,,,,,,,,,,0.0012559331953525543,0.49026862159371376,0.740187332034111,3119.5345581285655,test,3,,,,,,,3117.050269138068,3117.5642279572785,3117.5475958511233,3117.5475958511233,3117.7978925444186,3118.29833625257,3118.5486192516983,3119.5532908141613,None,0,,0.3,,,,,,,,,,,s015,001,2024-07-17_14h42.19.614,simplestop_skeleton,2022.2.2,59.86828041667459,
$currentCorrectResponse,$currentGoStim,,,,,,,,,2,0,2,0,6,1,25,0,,,,,,,,,3119.5349876768887,stop,circleblack.png,left,0.3,,,,,,,,,,,,,,,,,,0.0014248639345169067,0.48948928713798523,0.7898276783525944,3122.0372034050524,test,3,,,,,,,3119.5532908141613,3120.066967099905,3120.0503032803535,3120.0503032803535,3120.3506469987333,3120.851164445281,3121.051437098533,3122.0562710016966,None,0,,0.35,,,,,,,,,,,s015,001,2024-07-17_14h42.19.614,simplestop_skeleton,2022.2.2,59.86828041667459,
$currentCorrectResponse,$currentGoStim,,,,,,,,,2,0,2,0,6,2,26,0,,,,,,,,,3122.0376370325685,go,circleblack.png,left,0.35,,,,,,,,,,,,,,,,,,0.0014112778007984161,0.48974207788705826,,3124.539655275643,test,3,,,,,,,3122.0562710016966,3122.5696893557906,3122.553072281182,3122.553072281182,3122.9033412337303,3123.404036693275,3123.5526800975204,3124.564295336604,left,1,0.6466420851647854,0.35,,,,,,,,,,,s015,001,2024-07-17_14h42.19.614,simplestop_skeleton,2022.2.2,59.86828041667459,
None,None,,,,,,,,,2,0,2,0,6,3,27,2,,,,,,,,,3124.540140081197,go,squareblack.png,right,0.35,,,,,,,,,,,,,,,,,,0.007673937827348709,0.4896565414965153,,3127.0424118824303,test,3,,,,,,,3124.564295336604,3125.072405580431,3125.055957239121,3125.055957239121,3125.4061311520636,3125.9068012982607,3126.0554641224444,3127.0613270998,right,1,0.6111503839492798,0.35,,,,,,,,,,,s015,001,2024-07-17_14h42.19.614,simplestop_skeleton,2022.2.2,59.86828041667459,
$currentCorrectResponse,$currentGoStim,,,,,,,,,2,0,2,0,7,0,28,0,,,,,,,,,3127.0428410209715,stop,squareblack.png,right,0.35,,,,,,,,,,,,,,,,,,0.0012028999626636505,0.489894837141037,0.8402470014989376,3129.5454620979726,test,3,,,,,,,3127.0613270998,3127.575159214437,3127.558501780033,3127.558501780033,3127.908956065774,3128.4093991294503,3128.5596399754286,3129.564908064902,None,0,,0.4,,,,,,,,,,,s015,001,2024-07-17_14h42.19.614,simplestop_skeleton,2022.2.2,59.86828041667459,
None,None,,,,,,,,,2,0,2,0,7,1,29,2,,,,,,,,,3129.5458870902658,go,circleblack.png,left,0.4,,,,,,,,,,,,,,,,,,0.0020096823573112488,0.49012115970253944,,3132.048178009689,test,3,,,,,,,3129.564908064902,3130.0779931657016,3130.0612992197275,3130.0612992197275,3130.4618033729494,3130.9609202593565,3131.061073720455,3132.0673693343997,left,1,0.49359065666794777,0.4,,,,,,,,,,,s015,001,2024-07-17_14h42.19.614,simplestop_skeleton,2022.2.2,59.86828041667459,
None,None,,,,,,,,,2,0,2,0,7,2,30,2,,,,,,,,,3132.0486130714417,stop,squareblack.png,right,0.4,,,,,,,,,,,,,,,,,,0.0016552917659282684,0.48962850496172905,0.890075072646141,3134.550848737359,test,3,,,,,,,3132.0673693343997,3132.580696888268,3132.564335256815,3132.564335256815,3132.9646099060774,3133.463628489524,3133.5636896565557,3134.5701599232852,right,1,0.5275790467858315,0.35,,,,,,,,,,,s015,001,2024-07-17_14h42.19.614,simplestop_skeleton,2022.2.2,59.86828041667459,
None,None,,,,,,,,,2,0,2,0,7,3,31,1,,,,,,,,,3134.551288496703,go,circleblack.png,left,0.35,,,,,,,,,,,,,,,,,,0.0018875561654567719,0.48996514827013016,,3137.0536496527493,test,3,,,,,,,3134.5701599232852,3135.0834416002035,3135.066840186715,3135.066840186715,3135.4171605557203,3135.9162551499903,3136.066329654306,3137.072823226452,left,1,0.5358097516000271,0.35,,,,,,,,,,,s015,001,2024-07-17_14h42.19.614,simplestop_skeleton,2022.2.2,59.86828041667459,
None,None,,,,,,,,,2,0,2,0,8,0,32,1,,,,,,,,,3137.054075244814,go,squareblack.png,right,0.35,,,,,,,,,,,,,,,,,,0.0016731731593608856,0.4894985146820545,,3139.5564277358353,test,3,,,,,,,3137.072823226452,3137.586267400533,3137.5694514997303,3137.5694514997303,3137.9198783375323,3138.4204868115485,3138.569115936756,3139.5755464732647,right,1,0.5767051205039024,0.35,,,,,,,,,,,s015,001,2024-07-17_14h42.19.614,simplestop_skeleton,2022.2.2,59.86828041667459,
None,None,,,,,,,,,2,0,2,0,8,1,33,3,,,,,,,,,3139.556862041354,go,squareblack.png,right,0.35,,,,,,,,,,,,,,,,,,0.001252245157957077,0.4896303452551365,,3142.05909653008,test,3,,,,,,,3139.5755464732647,3140.089072842151,3140.0724733285606,3140.0724733285606,3140.4228460229933,3140.923614386469,3141.073527608067,3142.0784823559225,right,1,0.736706517636776,0.35,,,,,,,,,,,s015,001,2024-07-17_14h42.19.614,simplestop_skeleton,2022.2.2,59.86828041667459,
None,None,,,,,,,,,2,0,2,0,8,2,34,1,,,,,,,,,3142.0595266819,go,circleblack.png,left,0.35,,,,,,,,,,,,,,,,,,0.0018987320363521576,0.4901835732161999,,3144.5619238466024,test,3,,,,,,,3142.0784823559225,3142.591988950968,3142.57524176687,3142.57524176687,3142.9255476035178,3143.4260553494096,3143.574963159859,3144.581385333091,left,1,0.5723734758794308,0.35,,,,,,,,,,,s015,001,2024-07-17_14h42.19.614,simplestop_skeleton,2022.2.2,59.86828041667459,
None,None,,,,,,,,,2,0,2,0,8,3,35,1,,,,,,,,,3144.562363896519,go,squareblack.png,right,0.35,,,,,,,,,,,,,,,,,,0.0017302706837654114,0.48950355127453804,,3147.0647297799587,test,3,,,,,,,3144.581385333091,3145.0949671454728,3145.0778856240213,3145.0778856240213,3145.4285593777895,3145.944145374,3146.0778217688203,3147.083790063858,right,1,0.5901573896408081,0.35,,,,,,,,,,,s015,001,2024-07-17_14h42.19.614,simplestop_skeleton,2022.2.2,59.86828041667459,
None,None,,,,,,,,,2,0,2,0,9,0,36,1,,,,,,,,,3147.0651666633785,go,squareblack.png,right,0.35,,,,,,,,,,,,,,,,,,0.0013259798288345337,0.48963892832398415,,3149.5677341520786,test,3,,,,,,,3147.083790063858,3147.597383312881,3147.5808649919927,3147.5808649919927,3147.9311929680407,3148.43161027506,3148.5804005376995,3149.5866398215294,right,1,0.5627580173313618,0.35,,,,,,,,,,,s015,001,2024-07-17_14h42.19.614,simplestop_skeleton,2022.2.2,59.86828041667459,
None,None,,,,,,,,,2,0,2,0,9,1,37,3,,,,,,,,,3149.568177025765,stop,squareblack.png,right,0.35,,,,,,,,,,,,,,,,,,0.0013674870133399963,0.4894064702093601,0.8398455195128918,3152.07048593089,test,3,,,,,,,3149.5866398215294,3150.1002163924277,3150.0834359303117,3150.0834359303117,3150.4339782372117,3150.9328513778746,3151.0830106958747,3152.0899468287826,right,1,0.5410941615700722,0.3,,,,,,,,,,,s015,001,2024-07-17_14h42.19.614,simplestop_skeleton,2022.2.2,59.86828041667459,
$currentCorrectResponse,$currentGoStim,,,,,,,,,2,0,2,0,9,2,38,0,,,,,,,,,3152.0709253698587,stop,circleblack.png,left,0.3,,,,,,,,,,,,,,,,,,0.0020180046558380127,0.489646103233099,0.7896954007446766,3154.572964671999,test,3,,,,,,,3152.0899468287826,3152.602928906679,3152.586622726172,3152.586622726172,3152.8865454643965,3153.387506760657,3153.5879534594715,3154.5922514796257,None,0,,0.35,,,,,,,,,,,s015,001,2024-07-17_14h42.19.614,simplestop_skeleton,2022.2.2,59.86828041667459,
None,None,,,,,,,,,2,0,2,0,9,3,39,2,,,,,,,,,3154.57339932397,stop,squareblack.png,right,0.35,,,,,,,,,,,,,,,,,,0.001639537513256073,0.4894040897488594,0.8398003503680229,3157.0755819045007,test,3,,,,,,,3154.5922514796257,3155.1057515107095,3155.0890531390905,3155.0890531390905,3155.4392551779747,3155.938438590616,3156.0885918959975,3157.0944500155747,right,1,0.5229266136884689,0.3,,,,,,,,,,,s015,001,2024-07-17_14h42.19.614,simplestop_skeleton,2022.2.2,59.86828041667459,
None,None,,,,,,,,,2,0,2,0,10,0,40,3,,,,,,,,,3157.0760100334883,go,squareblack.png,right,0.3,,,,,,,,,,,,,,,,,,0.0012143924832344055,0.48984553292393684,,3159.578620404005,test,3,,,,,,,3157.0944500155747,3157.6085385344923,3157.5917490273714,3157.5917490273714,3157.8918889909983,3158.3924731574953,3158.591406237334,3159.5981719642878,right,1,0.5558752454817295,0.3,,,,,,,,,,,s015,001,2024-07-17_14h42.19.614,simplestop_skeleton,2022.2.2,59.86828041667459,
None,None,,,,,,,,,2,0,2,0,10,1,41,3,,,,,,,,,3159.579049434513,go,circleblack.png,left,0.3,,,,,,,,,,,,,,,,,,0.001973971724510193,0.4894799180328846,,3162.0822387821972,test,3,,,,,,,3159.5981719642878,3160.1111431866884,3160.094371266663,3160.094371266663,3160.3948004990816,3160.895614374429,3161.0943106636405,3162.1013255938888,right,0,0.7012463957071304,0.3,,,,,,,,,,,s015,001,2024-07-17_14h42.19.614,simplestop_skeleton,2022.2.2,59.86828041667459,
None,None,,,,,,,,,2,0,2,0,10,2,42,3,,,,,,,,,3162.082841858268,stop,circleblack.png,left,0.3,,,,,,,,,,,,,,,,,,0.001804068684577942,0.48700613528490067,0.7877628058195114,3164.5843450278044,test,3,,,,,,,3162.1013255938888,3162.612717434764,3162.5958273634315,3162.5958273634315,3162.8977186754346,3163.3982625342906,3163.598322134465,3164.603091876954,None,0,,0.35,,,,,,,,,,,s015,001,2024-07-17_14h42.19.614,simplestop_skeleton,2022.2.2,59.86828041667459,
None,None,,,,,,,,,2,0,2,0,10,3,43,2,,,,,,,,,3164.584775093943,go,circleblack.png,left,0.35,,,,,,,,,,,,,,,,,,0.0014101006090641022,0.48930685222148895,,3167.086654957384,test,3,,,,,,,3164.603091876954,3165.1167043857276,3165.1001278422773,3165.1001278422773,3165.450430203229,3165.9496082365513,3166.1006561145186,3167.1058610975742,left,1,0.38477884232997894,0.35,,,,,,,,,,,s015,001,2024-07-17_14h42.19.614,simplestop_skeleton,2022.2.2,59.86828041667459,
$currentCorrectResponse,$currentGoStim,,,,,,,,,2,0,2,0,11,0,44,0,,,,,,,,,3167.0871472507715,go,circleblack.png,left,0.35,,,,,,,,,,,,,,,,,,0.001379944384098053,0.4896925911307335,,3169.589458670467,test,3,,,,,,,3167.1058610975742,3167.6194539926946,3167.6027913577855,3167.6027913577855,3167.9531361833215,3168.4526508934796,3168.6026314757764,3169.614029880613,left,1,0.5459429174661636,0.35,,,,,,,,,,,s015,001,2024-07-17_14h42.19.614,simplestop_skeleton,2022.2.2,59.86828041667459,
None,None,,,,,,,,,2,0,2,0,11,1,45,2,,,,,,,,,3169.589879281819,go,squareblack.png,right,0.35,,,,,,,,,,,,,,,,,,0.0077162981033325195,0.4894864410161972,,3172.092221483588,test,3,,,,,,,3169.614029880613,3170.121990453452,3170.1053569726646,3170.1053569726646,3170.4559237882495,3170.9548708684742,3171.1053803786635,3172.111507438123,right,1,0.46435726061463356,0.35,,,,,,,,,,,s015,001,2024-07-17_14h42.19.614,simplestop_skeleton,2022.2.2,59.86828041667459,
None,None,,,,,,,,,2,0,2,0,11,2,46,1,,,,,,,,,3172.092644955963,go,circleblack.png,left,0.35,,,,,,,,,,,,,,,,,,0.0018306784331798553,0.48973507806658745,,3174.5953524187207,test,3,,,,,,,3172.111507438123,3172.624853927642,3172.608159478754,3172.608159478754,3172.958478219807,3173.459079861641,3173.607952207327,3174.6146912947297,left,1,0.6014936342835426,0.35,,,,,,,,,,,s015,001,2024-07-17_14h42.19.614,simplestop_skeleton,2022.2.2,59.86828041667459,
None,None,,,,,,,,,2,0,2,0,11,3,47,2,,,,,,,,,3174.595797467977,go,squareblack.png,right,0.35,,,,,,,,,,,,,,,,,,0.0018114298582077026,0.48924386873841286,,3177.0977477021515,test,3,,,,,,,3174.6146912947297,3175.127750393003,3175.1111713908613,3175.1111713908613,3175.4614079147577,3175.9619167372584,3176.110646042973,3177.1131621859968,right,1,0.5360909774899483,0.35,,,,,,,,,,,s015,001,2024-07-17_14h42.19.614,simplestop_skeleton,2022.2.2,59.86828041667459,
