corrGoResp,shape,practiceBlocks.thisRepN,practiceBlocks.thisTrialN,practiceBlocks.thisN,practiceBlocks.thisIndex,practiceTrials.thisRepN,practiceTrials.thisTrialN,practiceTrials.thisN,practiceTrials.thisIndex,stopBlocks.thisRepN,stopBlocks.thisTrialN,stopBlocks.thisN,stopBlocks.thisIndex,testTrials.thisRepN,testTrials.thisTrialN,testTrials.thisN,testTrials.thisIndex,stopPracTrialList,Test Block: 1,welcome.started,start_exp.started,start_exp.keys,start_exp.rt,instrStopText.started,start_prac.started,StartTrialTimeStamp,trialType,goStim,correctResponse,ssd,fixation.started,rules.started,goStim.started,goResp.started,fixation.stopped,stopSignal.started,stopSignal.stopped,goStim.stopped,goResp.stopped,rules.stopped,goResp.keys,goResp.corr,goResp.rt,text.started,rules_2.started,text.stopped,rules_2.stopped,fixationOnset,goStimOnset,stopSignalOnset,EndTrialTimeStamp,Phase,Block,text_5.started,key_resp_3.started,key_resp_3.keys,key_resp_3.rt,key_resp.started,testText.started,test_fixation.started,test_fixation.stopped,goStim_test.started,goResp_test.started,stopSignal_test.started,stopSignal_test.stopped,goStim_test.stopped,goResp_test.stopped,goResp_test.keys,goResp_test.corr,goResp_test.rt,EndingSSD,text_6.started,key_resp_4.started,key_resp_4.keys,key_resp_4.rt,Test Block: 2,Test Block: 3,ending_text.started,end_resp.started,end_resp.keys,end_resp.rt,participant,session,date,expName,psychopyVersion,frameRate,
,,,,,,,,,,,,,,,,,,"[{'fileName': 'circleblack.png', 'correct_response': 'left', 'condition': 'go'}, {'fileName': 'squareblack.png', 'correct_response': 'right', 'condition': 'stop'}, {'fileName': 'circleblack.png', 'correct_response': 'left', 'condition': 'stop'}, {'fileName': 'squareblack.png', 'correct_response': 'right', 'condition': 'go'}, {'fileName': 'circleblack.png', 'correct_response': 'left', 'condition': 'stop'}, {'fileName': 'squareblack.png', 'correct_response': 'right', 'condition': 'go'}, {'fileName': 'circleblack.png', 'correct_response': 'left', 'condition': 'go'}, {'fileName': 'squareblack.png', 'correct_response': 'right', 'condition': 'stop'}, {'fileName': 'squareblack.png', 'correct_response': 'right', 'condition': 'go'}, {'fileName': 'circleblack.png', 'correct_response': 'left', 'condition': 'go'}, {'fileName': 'circleblack.png', 'correct_response': 'left', 'condition': 'go'}, {'fileName': 'squareblack.png', 'correct_response': 'right', 'condition': 'go'}, {'fileName': 'squareblack.png', 'correct_response': 'right', 'condition': 'go'}, {'fileName': 'circleblack.png', 'correct_response': 'left', 'condition': 'stop'}, {'fileName': 'squareblack.png', 'correct_response': 'right', 'condition': 'go'}, {'fileName': 'squareblack.png', 'correct_response': 'right', 'condition': 'go'}, {'fileName': 'squareblack.png', 'correct_response': 'right', 'condition': 'stop'}, {'fileName': 'circleblack.png', 'correct_response': 'left', 'condition': 'go'}, {'fileName': 'circleblack.png', 'correct_response': 'left', 'condition': 'go'}, {'fileName': 'squareblack.png', 'correct_response': 'right', 'condition': 'stop'}, {'fileName': 'squareblack.png', 'correct_response': 'right', 'condition': 'go'}, {'fileName': 'circleblack.png', 'correct_response': 'left', 'condition': 'go'}, {'fileName': 'circleblack.png', 'correct_response': 'left', 'condition': 'stop'}, {'fileName': 'circleblack.png', 'correct_response': 'left', 'condition': 'go'}]","[{'fileName': 'circleblack.png', 'correct_response': 'left', 'condition': 'go'}, {'fileName': 'squareblack.png', 'correct_response': 'right', 'condition': 'go'}, {'fileName': 'squareblack.png', 'correct_response': 'right', 'condition': 'stop'}, {'fileName': 'circleblack.png', 'correct_response': 'left', 'condition': 'go'}, {'fileName': 'circleblack.png', 'correct_response': 'left', 'condition': 'go'}, {'fileName': 'squareblack.png', 'correct_response': 'right', 'condition': 'go'}, {'fileName': 'circleblack.png', 'correct_response': 'left', 'condition': 'stop'}, {'fileName': 'squareblack.png', 'correct_response': 'right', 'condition': 'go'}, {'fileName': 'circleblack.png', 'correct_response': 'left', 'condition': 'go'}, {'fileName': 'squareblack.png', 'correct_response': 'right', 'condition': 'go'}, {'fileName': 'squareblack.png', 'correct_response': 'right', 'condition': 'stop'}, {'fileName': 'circleblack.png', 'correct_response': 'left', 'condition': 'stop'}, {'fileName': 'squareblack.png', 'correct_response': 'right', 'condition': 'go'}, {'fileName': 'circleblack.png', 'correct_response': 'left', 'condition': 'stop'}, {'fileName': 'squareblack.png', 'correct_response': 'right', 'condition': 'go'}, {'fileName': 'circleblack.png', 'correct_response': 'left', 'condition': 'go'}, {'fileName': 'circleblack.png', 'correct_response': 'left', 'condition': 'go'}, {'fileName': 'circleblack.png', 'correct_response': 'left', 'condition': 'go'}, {'fileName': 'squareblack.png', 'correct_response': 'right', 'condition': 'stop'}, {'fileName': 'squareblack.png', 'correct_response': 'right', 'condition': 'go'}, {'fileName': 'circleblack.png', 'correct_response': 'left', 'condition': 'stop'}, {'fileName': 'squareblack.png', 'correct_response': 'right', 'condition': 'go'}, {'fileName': 'squareblack.png', 'correct_response': 'right', 'condition': 'stop'}, {'fileName': 'circleblack.png', 'correct_response': 'left', 'condition': 'go'}, {'fileName': 'squareblack.png', 'correct_response': 'right', 'condition': 'go'}, {'fileName': 'squareblack.png', 'correct_response': 'right', 'condition': 'go'}, {'fileName': 'circleblack.png', 'correct_response': 'left', 'condition': 'go'}, {'fileName': 'circleblack.png', 'correct_response': 'left', 'condition': 'stop'}, {'fileName': 'circleblack.png', 'correct_response': 'left', 'condition': 'stop'}, {'fileName': 'circleblack.png', 'correct_response': 'left', 'condition': 'go'}, {'fileName': 'squareblack.png', 'correct_response': 'right', 'condition': 'go'}, {'fileName': 'circleblack.png', 'correct_response': 'left', 'condition': 'go'}, {'fileName': 'squareblack.png', 'correct_response': 'right', 'condition': 'go'}, {'fileName': 'squareblack.png', 'correct_response': 'right', 'condition': 'stop'}, {'fileName': 'squareblack.png', 'correct_response': 'right', 'condition': 'stop'}, {'fileName': 'circleblack.png', 'correct_response': 'left', 'condition': 'go'}, {'fileName': 'squareblack.png', 'correct_response': 'right', 'condition': 'stop'}, {'fileName': 'circleblack.png', 'correct_response': 'left', 'condition': 'stop'}, {'fileName': 'squareblack.png', 'correct_response': 'right', 'condition': 'go'}, {'fileName': 'squareblack.png', 'correct_response': 'right', 'condition': 'go'}, {'fileName': 'squareblack.png', 'correct_response': 'right', 'condition': 'stop'}, {'fileName': 'squareblack.png', 'correct_response': 'right', 'condition': 'go'}, {'fileName': 'circleblack.png', 'correct_response': 'left', 'condition': 'stop'}, {'fileName': 'circleblack.png', 'correct_response': 'left', 'condition': 'go'}, {'fileName': 'circleblack.png', 'correct_response': 'left', 'condition': 'go'}, {'fileName': 'squareblack.png', 'correct_response': 'right', 'condition': 'go'}, {'fileName': 'circleblack.png', 'correct_response': 'left', 'condition': 'go'}, {'fileName': 'circleblack.png', 'correct_response': 'left', 'condition': 'go'}]",2887.9978195801377,2887.9978195801377,return,3.962232753634453,,,,,,,,,,,,,,,,,,,,,,,,,,,,,,,,,,,,,,,,,,,,,,,,,,,,,,,,,,,s037,001,2024-09-26_10h15.16.231,simplestop_skeleton,2022.2.2,59.6590504449324,
$currentCorrectResponse,$currentGoStim,0,0,0,0,0,0,0,0,,,,,,,,,,,,,,,2891.992580063641,2891.992580063641,2947.353687904775,go,circleblack.png,left,0.35,2947.379559956491,2947.379559956491,2947.871134072542,2947.871134072542,2947.8876188248396,2948.2210971415043,2948.721749417484,2948.872066780925,2949.8733641058207,2949.889734826982,right,0,1.537682205438614,2949.889734826982,2949.889734826982,2950.398524045944,2950.398524045944,0.0035896971821784973,0.49086088687181473,0.8410700932145119,2950.3746275752783,practice,1,,,,,,,,,,,,,,,,,,,,,,,,,,,,,s037,001,2024-09-26_10h15.16.231,simplestop_skeleton,2022.2.2,59.6590504449324,
None,None,0,0,0,0,0,1,1,2,,,,,,,,,,,,,,,,,2950.375213049352,stop,squareblack.png,right,0.35,2950.398524045944,2950.398524045944,2950.8907660990953,2950.8907660990953,2950.907478451729,2951.2411284670234,2951.7417590022087,2951.892176389694,2952.893097706139,2952.9098443314433,None,0,,2952.9098443314433,2952.9098443314433,,,0.007277444005012512,0.4901517778635025,0.8401520699262619,2953.394567489624,practice,1,,,,,,,,,,,,,,,,,,,,,,,,,,,,,s037,001,2024-09-26_10h15.16.231,simplestop_skeleton,2022.2.2,59.6590504449324,
$currentCorrectResponse,$currentGoStim,0,0,0,0,0,2,2,0,,,,,,,,,,,,,,,,,2953.394998110831,stop,circleblack.png,left,0.4,2953.414373651147,2953.414373651147,2953.910900130868,2953.910900130868,2953.9274715036154,2954.3111940324306,2954.8119721263647,2954.912191621959,2955.913339033723,2955.929730862379,None,0,,2955.929730862379,2955.929730862379,2956.434647746384,2956.434647746384,0.0018000602722167969,0.4902367815375328,0.8905680552124977,2956.414681918919,practice,1,,,,,,,,,,,,,,,,,,,,,,,,,,,,,s037,001,2024-09-26_10h15.16.231,simplestop_skeleton,2022.2.2,59.6590504449324,
$currentCorrectResponse,$currentGoStim,0,0,0,0,0,3,3,0,,,,,,,,,,,,,,,,,2956.4150997772813,go,squareblack.png,right,0.45,2956.434647746384,2956.434647746384,2956.9308314546943,2956.9308314546943,2956.9474562332034,2957.381574653089,2957.8818434923887,2957.9320863857865,2958.933042228222,2958.9497130811214,None,0,,2958.9497130811214,2958.9497130811214,,,0.0016345679759979248,0.4900106266140938,0.9403517916798592,2959.4344738200307,practice,1,,,,,,,,,,,,,,,,,,,,,,,,,,,,,s037,001,2024-09-26_10h15.16.231,simplestop_skeleton,2022.2.2,59.6590504449324,
None,None,0,0,0,0,1,0,4,2,,,,,,,,,,,,,,,,,2959.4349176958203,stop,circleblack.png,left,0.45,2959.4542369395494,2959.4542369395494,2959.950888544321,2959.950888544321,2959.967916212976,2960.401518173516,2960.902211293578,2960.951887026429,2961.953190341592,2961.9699166193604,None,0,,2961.9699166193604,2961.9699166193604,2962.47417049855,2962.47417049855,0.0018425211310386658,0.4900953695178032,0.9405874758958817,2962.4544269368052,practice,1,,,,,,,,,,,,,,,,,,,,,,,,,,,,,s037,001,2024-09-26_10h15.16.231,simplestop_skeleton,2022.2.2,59.6590504449324,
$currentCorrectResponse,$currentGoStim,0,0,0,0,1,1,5,0,,,,,,,,,,,,,,,,,2962.454850681126,go,squareblack.png,right,0.5,2962.47417049855,2962.47417049855,2962.971115797758,2962.971115797758,2962.987536072731,2963.4714451283216,2963.971981666982,2963.971981666982,2964.973213337362,2964.9897055998445,right,1,0.7532480508089066,2964.9897055998445,2964.9897055998445,2965.4942920804024,2965.4942920804024,0.0016548112034797668,0.4902990832924843,0.9908300265669823,2965.4745397269726,practice,1,,,,,,,,,,,,,,,,,,,,,,,,,,,,,s037,001,2024-09-26_10h15.16.231,simplestop_skeleton,2022.2.2,59.6590504449324,
None,None,0,0,0,0,1,2,6,1,,,,,,,,,,,,,,,,,2965.4749664589763,go,circleblack.png,left,0.5,2965.4942920804024,2965.4942920804024,2965.9907166957855,2965.9907166957855,2966.0073704496026,2966.4913040474057,2966.991911739111,2966.991911739111,2967.993202857673,2968.0096796378493,None,0,,2968.0096796378493,2968.0096796378493,2968.514293655753,2968.514293655753,0.0017901211977005005,0.49018481373786926,0.9905575439333916,2968.4945160225034,practice,1,,,,,,,,,,,,,,,,,,,,,,,,,,,,,s037,001,2024-09-26_10h15.16.231,simplestop_skeleton,2022.2.2,59.6590504449324,
None,None,0,0,0,0,1,3,7,1,,,,,,,,,,,,,,,,,2968.494944624603,stop,squareblack.png,right,0.5,2968.514293655753,2968.514293655753,2969.010941244662,2969.010941244662,2969.0276513397694,2969.5113177374005,2970.0113560035825,2970.0113560035825,2971.012823499739,2971.0296417847276,left,0,0.356625534594059,2971.0296417847276,2971.0296417847276,2971.5337388515472,2971.5337388515472,0.0017331093549728394,0.49006620794534683,0.9906792491674423,2971.514348976314,practice,1,,,,,,,,,,,,,,,,,,,,,,,,,,,,,s037,001,2024-09-26_10h15.16.231,simplestop_skeleton,2022.2.2,59.6590504449324,
None,None,0,0,0,0,2,0,8,3,,,,,,,,,,,,,,,,,2971.5147756561637,go,squareblack.png,right,0.45,2971.5337388515472,2971.5337388515472,2972.0307019129395,2972.0307019129395,2972.047615043819,2972.4811544194818,2972.981612637639,2973.03185133636,2974.0327937975526,2974.0495233386755,right,1,0.4912538230419159,2974.0495233386755,2974.0495233386755,,,0.0012254789471626282,0.4902157485485077,0.9404275491833687,2974.5345573425293,practice,1,,,,,,,,,,,,,,,,,,,,,,,,,,,,,s037,001,2024-09-26_10h15.16.231,simplestop_skeleton,2022.2.2,59.6590504449324,
None,None,0,0,0,0,2,1,9,1,,,,,,,,,,,,,,,,,2974.534989282489,go,circleblack.png,left,0.45,2974.554480098188,2974.554480098188,2975.050721049309,2975.050721049309,2975.067295566201,2975.5018400996923,2976.001347243786,2976.051296427846,2977.0530126020312,2977.0695947036147,left,1,0.3601154759526253,2977.0695947036147,2977.0695947036147,2977.5742580890656,2977.5742580890656,0.0019357949495315552,0.4902503713965416,0.9406664147973061,2977.5545502603054,practice,1,,,,,,,,,,,,,,,,,,,,,,,,,,,,,s037,001,2024-09-26_10h15.16.231,simplestop_skeleton,2022.2.2,59.6590504449324,
None,None,0,0,0,0,2,2,10,2,,,,,,,,,,,,,,,,,2977.5549890324473,go,circleblack.png,left,0.45,2977.5742580890656,2977.5742580890656,2978.0708437487483,2978.0708437487483,2978.0872759222984,2978.5216038003564,2979.0217093899846,2979.0720958411694,2980.073254570365,2980.08966524899,right,0,0.2382008507847786,2980.08966524899,2980.08966524899,2980.594272084534,2980.594272084534,0.001322045922279358,0.4902215600013733,0.9405743926763535,2980.5745263695717,practice,1,,,,,,,,,,,,,,,,,,,,,,,,,,,,,s037,001,2024-09-26_10h15.16.231,simplestop_skeleton,2022.2.2,59.6590504449324,
None,None,0,0,0,0,2,3,11,3,,,,,,,,,,,,,,,,,2980.5749483183026,go,squareblack.png,right,0.45,2980.594272084534,2980.594272084534,2981.090902671218,2981.090902671218,2981.107902534306,2981.541336879134,2982.0420561507344,2982.0921891108155,2983.092996098101,2983.109689116478,right,1,0.379902645945549,2983.109689116478,2983.109689116478,2983.6140626072884,2983.6140626072884,0.0018238872289657593,0.49042464792728424,0.9407056197524071,2983.5945488363504,practice,1,,,,,,,,,,,,,,,,,,,,,,,,,,,,,s037,001,2024-09-26_10h15.16.231,simplestop_skeleton,2022.2.2,59.6590504449324,
None,None,0,0,0,0,3,0,12,2,,,,,,,,,,,,,,,,,2983.594992108643,go,squareblack.png,right,0.45,2983.6140626072884,2983.6140626072884,2984.110925786197,2984.110925786197,2984.1276400238276,2984.5612507760525,2985.061228491366,2985.111438192427,2986.1130759567022,2986.1296219676733,right,1,0.40827561914920807,2986.1296219676733,2986.1296219676733,2986.634088873863,2986.634088873863,0.0011814534664154053,0.49006444960832596,0.9404881596565247,2986.614394016564,practice,1,,,,,,,,,,,,,,,,,,,,,,,,,,,,,s037,001,2024-09-26_10h15.16.231,simplestop_skeleton,2022.2.2,59.6590504449324,
None,None,0,0,0,0,3,1,13,1,,,,,,,,,,,,,,,,,2986.614846006036,stop,circleblack.png,left,0.45,2986.634088873863,2986.634088873863,2987.1308909356594,2987.1308909356594,2987.1474974676967,2987.5812597870827,2988.082054145634,2988.132371842861,2989.133116096258,2989.1498194783926,left,1,0.2771202549338341,2989.1498194783926,2989.1498194783926,2989.6542519256473,2989.6542519256473,0.0019259974360466003,0.49036283046007156,0.9407444447278976,2989.6346136555076,practice,1,,,,,,,,,,,,,,,,,,,,,,,,,,,,,s037,001,2024-09-26_10h15.16.231,simplestop_skeleton,2022.2.2,59.6590504449324,
$currentCorrectResponse,$currentGoStim,0,0,0,0,3,2,14,0,,,,,,,,,,,,,,,,,2989.635045848787,go,squareblack.png,right,0.4,2989.6542519256473,2989.6542519256473,2990.150723978877,2990.150723978877,2990.1673690229654,2990.5510297864676,2991.0503992810845,2991.151356369257,2992.153163358569,2992.1696873754263,left,0,0.5274674370884895,2992.1696873754263,2992.1696873754263,2992.674075998366,2992.674075998366,0.001733534038066864,0.48978402465581894,0.8904467597603798,2992.654471218586,practice,1,,,,,,,,,,,,,,,,,,,,,,,,,,,,,s037,001,2024-09-26_10h15.16.231,simplestop_skeleton,2022.2.2,59.6590504449324,
None,None,0,0,0,0,3,3,15,3,,,,,,,,,,,,,,,,,2992.654913008213,go,squareblack.png,right,0.4,2992.674075998366,2992.674075998366,2993.170575506985,2993.170575506985,2993.187564432621,2993.5711681842804,2994.0716246291995,2994.1718919351697,2995.1732236891985,2995.189791895449,right,1,0.36779748648405075,2995.189791895449,2995.189791895449,2995.6941780522466,2995.6941780522466,0.0013055726885795593,0.49012936651706696,0.8904276713728905,2995.674850985408,practice,1,,,,,,,,,,,,,,,,,,,,,,,,,,,,,s037,001,2024-09-26_10h15.16.231,simplestop_skeleton,2022.2.2,59.6590504449324,
None,None,0,0,0,0,4,0,16,1,,,,,,,,,,,,,,,,,2995.675279572606,stop,squareblack.png,right,0.4,2995.6941780522466,2995.6941780522466,2996.1910702958703,2996.1910702958703,2996.2080596089363,2996.591128729284,2997.091892488301,2997.19190351665,2998.1930912211537,2998.209611468017,right,1,0.38609328866004944,2998.209611468017,2998.209611468017,2998.7146058902144,2998.7146058902144,0.0012121796607971191,0.49002549052238464,0.8903329148888588,2998.6945714876056,practice,1,,,,,,,,,,,,,,,,,,,,,,,,,,,,,s037,001,2024-09-26_10h15.16.231,simplestop_skeleton,2022.2.2,59.6590504449324,
None,None,0,0,0,0,4,1,17,2,,,,,,,,,,,,,,,,,2998.6950114518404,go,circleblack.png,left,0.35,2998.7146058902144,2998.7146058902144,2999.2108825594187,2999.2108825594187,2999.2277896627784,2999.5612500607967,3000.0613690391183,3000.21124779433,3001.2131245434284,3001.229866668582,left,1,0.4079815000295639,3001.229866668582,3001.229866668582,3001.734099857509,3001.734099857509,0.0018431544303894043,0.4901042506098747,0.8407332822680473,3001.7146372795105,practice,1,,,,,,,,,,,,,,,,,,,,,,,,,,,,,s037,001,2024-09-26_10h15.16.231,simplestop_skeleton,2022.2.2,59.6590504449324,
$currentCorrectResponse,$currentGoStim,0,0,0,0,4,2,18,0,,,,,,,,,,,,,,,,,3001.7150552272797,go,circleblack.png,left,0.35,3001.734099857509,3001.734099857509,3002.230980537832,3002.230980537832,3002.247600235045,3002.581436395645,3003.0805172100663,3003.2317971140146,3004.233131028712,3004.249955371022,left,1,0.49774740636348724,3004.249955371022,3004.249955371022,3004.754227720201,3004.754227720201,0.0012431517243385315,0.4902961328625679,0.840298019349575,3004.7345649302006,practice,1,,,,,,,,,,,,,,,,,,,,,,,,,,,,,s037,001,2024-09-26_10h15.16.231,simplestop_skeleton,2022.2.2,59.6590504449324,
None,None,0,0,0,0,4,3,19,2,,,,,,,,,,,,,,,,,3004.734980560839,stop,squareblack.png,right,0.35,3004.754227720201,3004.754227720201,3005.250850379467,3005.250850379467,3005.267418332398,3005.6011317521334,3006.1011927202344,3006.251258969307,3007.252837985754,3007.2695902585983,right,1,0.37506596744060516,3007.2695902585983,3007.2695902585983,,,0.0016700252890586853,0.4897901490330696,0.8401534557342529,3007.7543695792556,practice,1,,,,,,,,,,,,,,,,,,,,,,,,,,,,,s037,001,2024-09-26_10h15.16.231,simplestop_skeleton,2022.2.2,59.6590504449324,
None,None,0,0,0,0,5,0,20,3,,,,,,,,,,,,,,,,,3007.754811897874,go,squareblack.png,right,0.3,3007.7738579660654,3007.7738579660654,3008.2707286924124,3008.2707286924124,3008.287389665842,3008.5709948390722,3009.070257537067,3009.2710647061467,3010.2730197981,3010.2730197981,right,1,0.4568132683634758,3010.2730197981,3010.2730197981,3010.777682699263,3010.777682699263,0.0012002065777778625,0.4901634678244591,0.7904655486345291,3010.757889844477,practice,1,,,,,,,,,,,,,,,,,,,,,,,,,,,,,s037,001,2024-09-26_10h15.16.231,simplestop_skeleton,2022.2.2,59.6590504449324,
None,None,0,0,0,0,5,1,21,3,,,,,,,,,,,,,,,,,3010.758319377899,go,circleblack.png,left,0.3,3010.777682699263,3010.777682699263,3011.274242527783,3011.274242527783,3011.290947318077,3011.5744320228696,3012.0736219212413,3012.2748894765973,3013.2764561101794,3013.293220050633,left,1,0.44085589051246643,3013.293220050633,3013.293220050633,3013.7975932508707,3013.7975932508707,0.0018107667565345764,0.4900028556585312,0.7905400767922401,3013.777906768024,practice,1,,,,,,,,,,,,,,,,,,,,,,,,,,,,,s037,001,2024-09-26_10h15.16.231,simplestop_skeleton,2022.2.2,59.6590504449324,
None,None,0,0,0,0,5,2,22,3,,,,,,,,,,,,,,,,,3013.778326049447,stop,circleblack.png,left,0.3,3013.7975932508707,3013.7975932508707,3014.294066078961,3014.294066078961,3014.311050064862,3014.594535984099,3015.0948779135942,3015.2944579273462,3016.2961755916476,3016.313015334308,left,1,0.5396038889884949,3016.313015334308,3016.313015334308,,,0.0013982653617858887,0.4898255318403244,0.7899787649512291,3016.797661177814,practice,1,,,,,,,,,,,,,,,,,,,,,,,,,,,,,s037,001,2024-09-26_10h15.16.231,simplestop_skeleton,2022.2.2,59.6590504449324,
None,None,0,0,0,0,5,3,23,1,,,,,,,,,,,,,,,,,3016.7980928197503,go,circleblack.png,left,0.25,3016.8169919475913,3016.8169919475913,3017.315030492842,3017.315030492842,3017.33061298728,3017.563841186464,3018.0650506690145,3018.331551834941,3019.316174477339,3019.316174477339,left,1,0.5954425632953644,3019.316174477339,3019.316174477339,,,0.0012555718421936035,0.48880643397569656,0.7398497462272644,3019.8010945394635,practice,1,,,,,,,,,,,,,,,,,,,,,,,,,,,,,s037,001,2024-09-26_10h15.16.231,simplestop_skeleton,2022.2.2,59.6590504449324,
,,0,0,0,0,,,,,,,,,,,,,"[{'fileName': 'circleblack.png', 'correct_response': 'left', 'condition': 'go'}, {'fileName': 'squareblack.png', 'correct_response': 'right', 'condition': 'go'}, {'fileName': 'circleblack.png', 'correct_response': 'left', 'condition': 'go'}, {'fileName': 'circleblack.png', 'correct_response': 'left', 'condition': 'stop'}, {'fileName': 'circleblack.png', 'correct_response': 'left', 'condition': 'stop'}, {'fileName': 'squareblack.png', 'correct_response': 'right', 'condition': 'go'}, {'fileName': 'circleblack.png', 'correct_response': 'left', 'condition': 'go'}, {'fileName': 'squareblack.png', 'correct_response': 'right', 'condition': 'go'}, {'fileName': 'squareblack.png', 'correct_response': 'right', 'condition': 'stop'}, {'fileName': 'squareblack.png', 'correct_response': 'right', 'condition': 'stop'}, {'fileName': 'circleblack.png', 'correct_response': 'left', 'condition': 'go'}, {'fileName': 'squareblack.png', 'correct_response': 'right', 'condition': 'go'}, {'fileName': 'squareblack.png', 'correct_response': 'right', 'condition': 'go'}, {'fileName': 'circleblack.png', 'correct_response': 'left', 'condition': 'go'}, {'fileName': 'squareblack.png', 'correct_response': 'right', 'condition': 'go'}, {'fileName': 'squareblack.png', 'correct_response': 'right', 'condition': 'stop'}, {'fileName': 'circleblack.png', 'correct_response': 'left', 'condition': 'stop'}, {'fileName': 'circleblack.png', 'correct_response': 'left', 'condition': 'go'}, {'fileName': 'circleblack.png', 'correct_response': 'left', 'condition': 'go'}, {'fileName': 'circleblack.png', 'correct_response': 'left', 'condition': 'go'}, {'fileName': 'circleblack.png', 'correct_response': 'left', 'condition': 'stop'}, {'fileName': 'squareblack.png', 'correct_response': 'right', 'condition': 'stop'}, {'fileName': 'squareblack.png', 'correct_response': 'right', 'condition': 'go'}, {'fileName': 'squareblack.png', 'correct_response': 'right', 'condition': 'go'}]",,,,,,,,,,,,,,,,,,,,,,,,,,,,,,,,,,,,3019.8188885971904,3019.8188885971904,return,1.3358457759022713,,,,,,,,,,,,,,,,,,,,,,,,,s037,001,2024-09-26_10h15.16.231,simplestop_skeleton,2022.2.2,59.6590504449324,
None,None,,,,,,,,,0,0,0,0,0,0,0,1,,,,,,,,,3024.4650530666113,go,circleblack.png,left,0.25,,,,,,,,,,,,,,,,,,0.0023473575711250305,0.4971407353878021,,3026.9765509217978,test,1,,,,,3021.185112670064,3021.185112670064,3024.485232055187,3024.9890019521117,3024.9890019521117,3024.9890019521117,3025.2393420040607,3025.7399589940906,3025.9902704283595,3026.99560123682,left,1,0.478879876434803,0.25,,,,,,,,,,,s037,001,2024-09-26_10h15.16.231,simplestop_skeleton,2022.2.2,59.6590504449324,
None,None,,,,,,,,,0,0,0,0,0,1,1,2,,,,,,,,,3026.9771020933986,go,squareblack.png,right,0.25,,,,,,,,,,,,,,,,,,0.0019691064953804016,0.48902543634176254,,3029.4790523797274,test,1,,,,,,,3026.99560123682,3027.508604951203,3027.491939842701,3027.491939842701,3027.7420802786946,3028.2426796481013,3028.4929693341255,3029.4975815862417,right,1,0.812814474105835,0.25,,,,,,,,,,,s037,001,2024-09-26_10h15.16.231,simplestop_skeleton,2022.2.2,59.6590504449324,
$currentCorrectResponse,$currentGoStim,,,,,,,,,0,0,0,0,0,2,2,0,,,,,,,,,3029.4794882908463,stop,squareblack.png,right,0.25,,,,,,,,,,,,,,,,,,0.001305989921092987,0.48954451084136963,0.7397976666688919,3031.9816460236907,test,1,,,,,,,3029.4975815862417,3030.011504970491,3029.9950649887323,3029.9950649887323,3030.2452406212687,3030.7443558201194,3030.995225377381,3032.000751823187,right,1,0.3889027535915375,0.2,,,,,,,,,,,s037,001,2024-09-26_10h15.16.231,simplestop_skeleton,2022.2.2,59.6590504449324,
None,None,,,,,,,,,0,0,0,0,0,3,3,3,,,,,,,,,3031.982094809413,go,circleblack.png,left,0.2,,,,,,,,,,,,,,,,,,0.0018419697880744934,0.48965343832969666,,3034.484281644225,test,1,,,,,,,3032.000751823187,3032.5143944099545,3032.4975168406963,3032.4975168406963,3032.697824984789,3033.19710791111,3033.4986180588603,3034.503443144262,left,1,0.38457783311605453,0.2,,,,,,,,,,,s037,001,2024-09-26_10h15.16.231,simplestop_skeleton,2022.2.2,59.6590504449324,
$currentCorrectResponse,$currentGoStim,,,,,,,,,0,0,0,0,1,0,4,0,,,,,,,,,3034.4847319349647,go,circleblack.png,left,0.2,,,,,,,,,,,,,,,,,,0.001429431140422821,0.48963378369808197,,3036.986764781177,test,1,,,,,,,3034.503443144262,3035.0169286951423,3035.000398516655,3035.000398516655,3035.20046171546,3035.7012299895287,3036.0004203394055,3037.005908675492,left,1,0.39830027520656586,0.2,,,,,,,,,,,s037,001,2024-09-26_10h15.16.231,simplestop_skeleton,2022.2.2,59.6590504449324,
None,None,,,,,,,,,0,0,0,0,1,1,5,1,,,,,,,,,3036.9872544035316,go,squareblack.png,right,0.2,,,,,,,,,,,,,,,,,,0.0017473623156547546,0.48977039009332657,,3039.490169607103,test,1,,,,,,,3037.005908675492,3037.519680030644,3037.5028400421143,3037.5028400421143,3037.7030575349927,3038.203874886036,3038.5070643797517,3039.5095591396093,right,1,0.8689353242516518,0.2,,,,,,,,,,,s037,001,2024-09-26_10h15.16.231,simplestop_skeleton,2022.2.2,59.6590504449324,
None,None,,,,,,,,,0,0,0,0,1,2,6,1,,,,,,,,,3039.4906201064587,stop,circleblack.png,left,0.2,,,,,,,,,,,,,,,,,,0.0018577426671981812,0.4896637499332428,0.6897427663207054,3041.9928227365017,test,1,,,,,,,3039.5095591396093,3040.022526025772,3040.0057328641415,3040.0057328641415,3040.2061701342463,3040.7069207429886,3041.0070782899857,3042.011798851192,None,0,,0.25,,,,,,,,,,,s037,001,2024-09-26_10h15.16.231,simplestop_skeleton,2022.2.2,59.6590504449324,
None,None,,,,,,,,,0,0,0,0,1,3,7,3,,,,,,,,,3041.9933182150126,go,squareblack.png,right,0.25,,,,,,,,,,,,,,,,,,0.0015795454382896423,0.48958974331617355,,3044.4952144399285,test,1,,,,,,,3042.011798851192,3042.5252999961376,3042.508671812713,3042.508671812713,3042.759111329913,3043.259566247463,3043.5090552717447,3044.5145087093115,right,1,0.46123509854078293,0.25,,,,,,,,,,,s037,001,2024-09-26_10h15.16.231,simplestop_skeleton,2022.2.2,59.6590504449324,
None,None,,,,,,,,,0,0,0,0,2,0,8,1,,,,,,,,,3044.4956517145038,go,circleblack.png,left,0.25,,,,,,,,,,,,,,,,,,0.001673482358455658,0.48977071046829224,,3046.998163856566,test,1,,,,,,,3044.5145087093115,3045.0282127335668,3045.011174418032,3045.011174418032,3045.261571854353,3045.761018432677,3046.0118693187833,3047.017092682421,left,1,0.38675177842378616,0.25,,,,,,,,,,,s037,001,2024-09-26_10h15.16.231,simplestop_skeleton,2022.2.2,59.6590504449324,
None,None,,,,,,,,,0,0,0,0,2,1,9,2,,,,,,,,,3046.998615063727,go,squareblack.png,right,0.25,,,,,,,,,,,,,,,,,,0.0016327425837516785,0.4898633509874344,,3049.5009205564857,test,1,,,,,,,3047.017092682421,3047.5310227796435,3047.514260403812,3047.514260403812,3047.7645308226347,3048.26402528584,3048.5147122442722,3049.520070068538,right,1,0.43393924087285995,0.25,,,,,,,,,,,s037,001,2024-09-26_10h15.16.231,simplestop_skeleton,2022.2.2,59.6590504449324,
$currentCorrectResponse,$currentGoStim,,,,,,,,,0,0,0,0,2,2,10,0,,,,,,,,,3049.501380801201,stop,squareblack.png,right,0.25,,,,,,,,,,,,,,,,,,0.00128183513879776,0.48997244983911514,0.7399564310908318,3052.0036794245243,test,1,,,,,,,3049.520070068538,3050.033621817827,3050.0170013308525,3050.0170013308525,3050.267060510814,3050.7676239982247,3051.017915189266,3052.023009583354,right,1,0.5180373638868332,0.2,,,,,,,,,,,s037,001,2024-09-26_10h15.16.231,simplestop_skeleton,2022.2.2,59.6590504449324,
None,None,,,,,,,,,0,0,0,0,2,3,11,3,,,,,,,,,3052.0041309446096,stop,circleblack.png,left,0.2,,,,,,,,,,,,,,,,,,0.001976899802684784,0.48963671177625656,0.689859114587307,3054.506744466722,test,1,,,,,,,3052.023009583354,3052.536242738366,3052.5198121145368,3052.5198121145368,3052.7200802862644,3053.2203851118684,3053.5205979943275,3054.5266290456057,left,1,0.44237884879112244,0.15,,,,,,,,,,,s037,001,2024-09-26_10h15.16.231,simplestop_skeleton,2022.2.2,59.6590504449324,
None,None,,,,,,,,,0,0,0,0,3,0,12,1,,,,,,,,,3054.5071802958846,go,squareblack.png,right,0.15,,,,,,,,,,,,,,,,,,0.0026085078716278076,0.48919545859098434,,3057.009062767029,test,1,,,,,,,3054.5266290456057,3055.0390633121133,3055.02245336771,3055.02245336771,3055.1727493032813,3055.6735299900174,3056.0230655372143,3057.028178423643,right,1,0.3142329603433609,0.15,,,,,,,,,,,s037,001,2024-09-26_10h15.16.231,simplestop_skeleton,2022.2.2,59.6590504449324,
None,None,,,,,,,,,0,0,0,0,3,1,13,3,,,,,,,,,3057.009500809014,stop,circleblack.png,left,0.15,,,,,,,,,,,,,,,,,,0.0018061697483062744,0.4900955781340599,0.6399832367897034,3059.5119778439403,test,1,,,,,,,3057.028178423643,3057.54177647084,3057.5254590287805,3057.5254590287805,3057.6753600537777,3058.176270991564,3058.526459261775,3059.531140036881,None,0,,0.2,,,,,,,,,,,s037,001,2024-09-26_10h15.16.231,simplestop_skeleton,2022.2.2,59.6590504449324,
$currentCorrectResponse,$currentGoStim,,,,,,,,,0,0,0,0,3,2,14,0,,,,,,,,,3059.5124282240868,go,squareblack.png,right,0.2,,,,,,,,,,,,,,,,,,0.0016847625374794006,0.4896518364548683,,3062.0146451741457,test,1,,,,,,,3059.531140036881,3060.0445332974195,3060.0280683487654,3060.0280683487654,3060.2281433194876,3060.7286182567477,3061.029077038169,3062.0337692648172,right,1,0.4907148703932762,0.2,,,,,,,,,,,s037,001,2024-09-26_10h15.16.231,simplestop_skeleton,2022.2.2,59.6590504449324,
None,None,,,,,,,,,0,0,0,0,3,3,15,3,,,,,,,,,3062.015096716583,go,circleblack.png,left,0.2,,,,,,,,,,,,,,,,,,0.0017230287194252014,0.4898449778556824,,3064.517335690558,test,1,,,,,,,3062.0337692648172,3062.547638244927,3062.53063185513,3062.53063185513,3062.7308151572943,3063.2312413603067,3063.5318175926805,3064.5362165495753,left,1,0.6784510165452957,0.2,,,,,,,,,,,s037,001,2024-09-26_10h15.16.231,simplestop_skeleton,2022.2.2,59.6590504449324,
None,None,,,,,,,,,0,0,0,0,4,0,16,3,,,,,,,,,3064.5177881792188,go,circleblack.png,left,0.2,,,,,,,,,,,,,,,,,,0.0013187006115913391,0.489951953291893,,3067.020036265254,test,1,,,,,,,3064.5362165495753,3065.050393514335,3065.033572115004,3065.033572115004,3065.233686052263,3065.734186142683,3066.03456877172,3067.038862451911,left,1,0.9452671334147453,0.2,,,,,,,,,,,s037,001,2024-09-26_10h15.16.231,simplestop_skeleton,2022.2.2,59.6590504449324,
None,None,,,,,,,,,0,0,0,0,4,1,17,2,,,,,,,,,3067.020483151078,go,circleblack.png,left,0.2,,,,,,,,,,,,,,,,,,0.0012534558773040771,0.4899440184235573,,3069.522821225226,test,1,,,,,,,3067.038862451911,3067.5529986172915,3067.5361441001296,3067.5361441001296,3067.736320488155,3068.237065769732,3068.536743544042,3069.5417905151844,left,1,0.37799201160669327,0.2,,,,,,,,,,,s037,001,2024-09-26_10h15.16.231,simplestop_skeleton,2022.2.2,59.6590504449324,
None,None,,,,,,,,,0,0,0,0,4,2,18,1,,,,,,,,,3069.523255608976,stop,squareblack.png,right,0.2,,,,,,,,,,,,,,,,,,0.0016223564743995667,0.4898555725812912,0.6902715042233467,3072.0257255584,test,1,,,,,,,3069.5417905151844,3070.0555662438273,3070.0392157435417,3070.0392157435417,3070.2392175123096,3070.739652775228,3071.040018208325,3072.0443636775017,None,0,,0.25,,,,,,,,,,,s037,001,2024-09-26_10h15.16.231,simplestop_skeleton,2022.2.2,59.6590504449324,
None,None,,,,,,,,,0,0,0,0,4,3,19,3,,,,,,,,,3072.0261717140675,go,squareblack.png,right,0.25,,,,,,,,,,,,,,,,,,0.0012095794081687927,0.4899519234895706,,3074.5285248830914,test,1,,,,,,,3072.0443636775017,3072.5586059615016,3072.541723780334,3072.541723780334,3072.79209818691,3073.293410219252,3073.5426560267806,3074.547864690423,right,1,0.38787538558244705,0.25,,,,,,,,,,,s037,001,2024-09-26_10h15.16.231,simplestop_skeleton,2022.2.2,59.6590504449324,
None,None,,,,,,,,,0,0,0,0,5,0,20,1,,,,,,,,,3074.5289791226387,stop,circleblack.png,left,0.25,,,,,,,,,,,,,,,,,,0.002019323408603668,0.48959317058324814,0.7401478961110115,3077.031383998692,test,1,,,,,,,3074.547864690423,3075.0611959025264,3075.0446882024407,3075.0446882024407,3075.2947750613093,3075.795427277684,3076.04563832283,3077.050661161542,None,0,,0.3,,,,,,,,,,,s037,001,2024-09-26_10h15.16.231,simplestop_skeleton,2022.2.2,59.6590504449324,
None,None,,,,,,,,,0,0,0,0,5,1,21,1,,,,,,,,,3077.0318330079317,go,squareblack.png,right,0.3,,,,,,,,,,,,,,,,,,0.0016444772481918335,0.48968128859996796,,3079.533894509077,test,1,,,,,,,3077.050661161542,3077.563870988786,3077.547425441444,3077.547425441444,3077.8474919497967,3078.3475241810083,3078.54780010134,3079.552528247237,right,1,0.38345663994550705,0.3,,,,,,,,,,,s037,001,2024-09-26_10h15.16.231,simplestop_skeleton,2022.2.2,59.6590504449324,
None,None,,,,,,,,,0,0,0,0,5,2,22,2,,,,,,,,,3079.5343341827393,stop,squareblack.png,right,0.3,,,,,,,,,,,,,,,,,,0.0012230053544044495,0.4897170066833496,0.7901345491409302,3082.0369113460183,test,1,,,,,,,3079.552528247237,3080.066597111523,3080.0500146970153,3080.0500146970153,3080.3503782972693,3080.8502752929926,3081.051061615348,3082.05600502342,right,1,0.3219569995999336,0.25,,,,,,,,,,,s037,001,2024-09-26_10h15.16.231,simplestop_skeleton,2022.2.2,59.6590504449324,
None,None,,,,,,,,,0,0,0,0,5,3,23,2,,,,,,,,,3082.0373574644327,go,circleblack.png,left,0.25,,,,,,,,,,,,,,,,,,0.0019379854202270508,0.4896702244877815,,3084.5393959209323,test,1,,,,,,,3082.05600502342,3082.569565050304,3082.5527066662908,3082.5527066662908,3082.8031246215105,3083.3067883104086,3083.553769595921,3084.5581430718303,left,1,0.5891308337450027,0.25,,,,,,,,,,,s037,001,2024-09-26_10h15.16.231,simplestop_skeleton,2022.2.2,59.6590504449324,
None,None,,,,,,,,,0,0,0,0,6,0,24,2,,,,,,,,,3084.53983489424,go,squareblack.png,right,0.25,,,,,,,,,,,,,,,,,,0.0017072036862373352,0.4901970773935318,,3087.0423791632056,test,1,,,,,,,3084.5581430718303,3085.0722695738077,3085.055570885539,3085.055570885539,3085.3062325417995,3085.8064725399017,3086.056438907981,3087.0611875653267,right,1,0.6574717983603477,0.25,,,,,,,,,,,s037,001,2024-09-26_10h15.16.231,simplestop_skeleton,2022.2.2,59.6590504449324,
None,None,,,,,,,,,0,0,0,0,6,1,25,3,,,,,,,,,3087.0428278148174,go,squareblack.png,right,0.25,,,,,,,,,,,,,,,,,,0.0013356134295463562,0.48949794471263885,,3089.5452066734433,test,1,,,,,,,3087.0611875653267,3087.574825182557,3087.55825330317,3087.55825330317,3087.808521643281,3088.3089253529906,3088.5593219175935,3089.564426422119,right,1,0.3343812897801399,0.25,,,,,,,,,,,s037,001,2024-09-26_10h15.16.231,simplestop_skeleton,2022.2.2,59.6590504449324,
None,None,,,,,,,,,0,0,0,0,6,2,26,1,,,,,,,,,3089.5456511974335,go,circleblack.png,left,0.25,,,,,,,,,,,,,,,,,,0.001981303095817566,0.48963796347379684,,3092.0480331107974,test,1,,,,,,,3089.564426422119,3090.077872939408,3090.061222434044,3090.061222434044,3090.3115652799606,3090.8110402598977,3091.0616799220443,3092.0670439600945,left,1,0.4407069906592369,0.25,,,,,,,,,,,s037,001,2024-09-26_10h15.16.231,simplestop_skeleton,2022.2.2,59.6590504449324,
$currentCorrectResponse,$currentGoStim,,,,,,,,,0,0,0,0,6,3,27,0,,,,,,,,,3092.0484876930714,stop,circleblack.png,left,0.25,,,,,,,,,,,,,,,,,,0.0014180988073349,0.4895841106772423,0.7398484647274017,3094.5505333319306,test,1,,,,,,,3092.0670439600945,3092.5807516872883,3092.5637981146574,3092.5637981146574,3092.8140993341804,3093.31499119848,3093.5643365308642,3094.569401331246,left,1,0.38927775621414185,0.2,,,,,,,,,,,s037,001,2024-09-26_10h15.16.231,simplestop_skeleton,2022.2.2,59.6590504449324,
None,None,,,,,,,,,0,0,0,0,7,0,28,3,,,,,,,,,3094.5509894415736,stop,circleblack.png,left,0.2,,,,,,,,,,,,,,,,,,0.0012895241379737854,0.49017784744501114,0.6899754777550697,3097.0533804371953,test,1,,,,,,,3094.569401331246,3095.083277888596,3095.0667981877923,3095.0667981877923,3095.2669004276395,3095.7671582996845,3096.067691475153,3097.072365909815,None,0,,0.25,,,,,,,,,,,s037,001,2024-09-26_10h15.16.231,simplestop_skeleton,2022.2.2,59.6590504449324,
$currentCorrectResponse,$currentGoStim,,,,,,,,,0,0,0,0,7,1,29,0,,,,,,,,,3097.0538275316358,go,circleblack.png,left,0.25,,,,,,,,,,,,,,,,,,0.0013620629906654358,0.4898063614964485,,3099.555871129036,test,1,,,,,,,3097.072365909815,3097.585889428854,3097.5694121792912,3097.5694121792912,3097.8195771872997,3098.3201512917876,3098.570212468505,3099.5748202055693,left,1,0.5566519722342491,0.25,,,,,,,,,,,s037,001,2024-09-26_10h15.16.231,simplestop_skeleton,2022.2.2,59.6590504449324,
None,None,,,,,,,,,0,0,0,0,7,2,30,1,,,,,,,,,3099.556335389614,go,squareblack.png,right,0.25,,,,,,,,,,,,,,,,,,0.0016614124178886414,0.4898954927921295,,3102.058703869581,test,1,,,,,,,3099.5748202055693,3100.0886112600565,3100.0720984116197,3100.0720984116197,3100.3221997991204,3100.8228212222457,3101.0726647153497,3102.0777866989374,right,1,0.4838710427284241,0.25,,,,,,,,,,,s037,001,2024-09-26_10h15.16.231,simplestop_skeleton,2022.2.2,59.6590504449324,
None,None,,,,,,,,,0,0,0,0,7,3,31,2,,,,,,,,,3102.0591940507293,go,circleblack.png,left,0.25,,,,,,,,,,,,,,,,,,0.0017583966255187988,0.48977817595005035,,3104.561599768698,test,1,,,,,,,3102.0777866989374,3102.5915487483144,3102.574737288058,3102.574737288058,3102.8250783607364,3103.325531296432,3103.5759996771812,3104.5809153988957,left,1,0.9902769029140472,0.25,,,,,,,,,,,s037,001,2024-09-26_10h15.16.231,simplestop_skeleton,2022.2.2,59.6590504449324,
$currentCorrectResponse,$currentGoStim,,,,,,,,,0,0,0,0,8,0,32,0,,,,,,,,,3104.5620560497046,go,squareblack.png,right,0.25,,,,,,,,,,,,,,,,,,0.0017042383551597595,0.4894816428422928,,3107.0643483921885,test,1,,,,,,,3104.5809153988957,3105.0944029688835,3105.0775652974844,3105.0775652974844,3105.32786270231,3105.827877059579,3106.0785076394677,3107.0834089815617,right,1,0.31856734305620193,0.25,,,,,,,,,,,s037,001,2024-09-26_10h15.16.231,simplestop_skeleton,2022.2.2,59.6590504449324,
$currentCorrectResponse,$currentGoStim,,,,,,,,,0,0,0,0,8,1,33,0,,,,,,,,,3107.0647844597697,stop,squareblack.png,right,0.25,,,,,,,,,,,,,,,,,,0.0013754218816757202,0.4897395446896553,0.7400158047676086,3109.567239150405,test,1,,,,,,,3107.0834089815617,3107.5973271876574,3107.580202244222,3107.580202244222,3107.8307840004563,3108.331224113703,3108.58150562644,3109.5868567600846,None,0,,0.3,,,,,,,,,,,s037,001,2024-09-26_10h15.16.231,simplestop_skeleton,2022.2.2,59.6590504449324,
None,None,,,,,,,,,0,0,0,0,8,2,34,2,,,,,,,,,3109.5676778554916,stop,squareblack.png,right,0.3,,,,,,,,,,,,,,,,,,0.002047598361968994,0.48860476166009903,0.7888869643211365,3112.070100173354,test,1,,,,,,,3109.5868567600846,3110.099896147847,3110.0832282677293,3110.0832282677293,3110.383613668382,3110.884199999273,3111.084552578628,3112.089363820851,None,0,,0.35,,,,,,,,,,,s037,001,2024-09-26_10h15.16.231,simplestop_skeleton,2022.2.2,59.6590504449324,
None,None,,,,,,,,,0,0,0,0,8,3,35,2,,,,,,,,,3112.070550069213,go,circleblack.png,left,0.35,,,,,,,,,,,,,,,,,,0.001960545778274536,0.4896351471543312,,3114.57250610739,test,1,,,,,,,3112.089363820851,3112.6025409325957,3112.5858694687486,3112.5858694687486,3112.9362357333302,3113.4369166865945,3113.586630962789,3114.591299891472,left,1,0.5781109556555748,0.35,,,,,,,,,,,s037,001,2024-09-26_10h15.16.231,simplestop_skeleton,2022.2.2,59.6590504449324,
None,None,,,,,,,,,0,0,0,0,9,0,36,1,,,,,,,,,3114.5729394182563,stop,squareblack.png,right,0.35,,,,,,,,,,,,,,,,,,0.001684725284576416,0.4902341440320015,0.8404007032513618,3117.075490117073,test,1,,,,,,,3114.591299891472,3115.105360150337,3115.0889105647802,3115.0889105647802,3115.439246326685,3115.9381610527635,3116.0892518237233,3117.094542771578,right,1,0.502701073884964,0.3,,,,,,,,,,,s037,001,2024-09-26_10h15.16.231,simplestop_skeleton,2022.2.2,59.6590504449324,
None,None,,,,,,,,,0,0,0,0,9,1,37,1,,,,,,,,,3117.075933881104,stop,circleblack.png,left,0.3,,,,,,,,,,,,,,,,,,0.0018317624926567078,0.4896637499332428,0.7904831022024155,3119.577985547483,test,1,,,,,,,3117.094542771578,3117.6079802513123,3117.591342307627,3117.591342307627,3117.891652330756,3118.3923176825047,3118.5927296951413,3119.5970187336206,None,0,,0.35,,,,,,,,,,,s037,001,2024-09-26_10h15.16.231,simplestop_skeleton,2022.2.2,59.6590504449324,
$currentCorrectResponse,$currentGoStim,,,,,,,,,0,0,0,0,9,2,38,0,,,,,,,,,3119.578420512378,go,squareblack.png,right,0.35,,,,,,,,,,,,,,,,,,0.0016970932483673096,0.4899829253554344,,3122.080854281783,test,1,,,,,,,3119.5970187336206,3120.1106401085854,3120.094004996121,3120.094004996121,3120.444393776357,3120.945120200515,3121.0950753837824,3122.0991299524903,right,1,0.7622469142079353,0.35,,,,,,,,,,,s037,001,2024-09-26_10h15.16.231,simplestop_skeleton,2022.2.2,59.6590504449324,
None,None,,,,,,,,,0,0,0,0,9,3,39,3,,,,,,,,,3122.081311248243,go,squareblack.png,right,0.35,,,,,,,,,,,,,,,,,,0.0011823326349258423,0.49003563821315765,,3124.5836224779487,test,1,,,,,,,3122.0991299524903,3122.613475896418,3122.5968107506633,3122.5968107506633,3122.9472692608833,3123.447088561952,3123.597642853856,3124.6021889820695,right,1,0.5132800862193108,0.35,,,,,,,,,,,s037,001,2024-09-26_10h15.16.231,simplestop_skeleton,2022.2.2,59.6590504449324,
$currentCorrectResponse,$currentGoStim,,,,,,,,,0,0,0,0,10,0,40,0,,,,,,,,,3124.584075294435,stop,squareblack.png,right,0.35,,,,,,,,,,,,,,,,,,0.0012585967779159546,0.489732950925827,0.8402014151215553,3127.0862937048078,test,1,,,,,,,3124.6021889820695,3125.1163519620895,3125.0997421592474,3125.0997421592474,3125.449970752001,3125.9506373256445,3126.1005697622895,3127.104936994612,None,0,,0.4,,,,,,,,,,,s037,001,2024-09-26_10h15.16.231,simplestop_skeleton,2022.2.2,59.6590504449324,
None,None,,,,,,,,,0,0,0,0,10,1,41,2,,,,,,,,,3127.0867336392403,go,squareblack.png,right,0.4,,,,,,,,,,,,,,,,,,0.0012328997254371643,0.4896644800901413,,3129.589056201279,test,1,,,,,,,3127.104936994612,3127.619064517319,3127.602352268994,3127.602352268994,3128.002680942416,3128.5072193667293,3128.6033376976848,3129.6084082499146,right,1,0.7257663980126381,0.4,,,,,,,,,,,s037,001,2024-09-26_10h15.16.231,simplestop_skeleton,2022.2.2,59.6590504449324,
$currentCorrectResponse,$currentGoStim,,,,,,,,,0,0,0,0,10,2,42,0,,,,,,,,,3129.5894904881716,stop,circleblack.png,left,0.4,,,,,,,,,,,,,,,,,,0.0017781034111976624,0.48992180079221725,0.8895111009478569,3132.091982036829,test,1,,,,,,,3129.6084082499146,3130.1219937354326,3130.105798728764,3130.105798728764,3130.505342684686,3131.0063470825553,3131.106295891106,3132.1103527098894,left,1,0.5080672055482864,0.35,,,,,,,,,,,s037,001,2024-09-26_10h15.16.231,simplestop_skeleton,2022.2.2,59.6590504449324,
None,None,,,,,,,,,0,0,0,0,10,3,43,3,,,,,,,,,3132.0924162119627,go,circleblack.png,left,0.35,,,,,,,,,,,,,,,,,,0.0012804120779037476,0.4899776950478554,,3134.594628766179,test,1,,,,,,,3132.1103527098894,3132.624553978443,3132.607916921377,3132.607916921377,3132.9586431011558,3133.459021151066,3133.6084143444896,3134.61337916553,left,1,0.6150874421000481,0.35,,,,,,,,,,,s037,001,2024-09-26_10h15.16.231,simplestop_skeleton,2022.2.2,59.6590504449324,
None,None,,,,,,,,,0,0,0,0,11,0,44,2,,,,,,,,,3134.595081537962,go,circleblack.png,left,0.35,,,,,,,,,,,,,,,,,,0.0012987703084945679,0.4897747039794922,,3137.097593277693,test,1,,,,,,,3134.61337916553,3135.127338320017,3135.1107664704323,3135.1107664704323,3135.461257457733,3135.961204789579,3136.111246138811,3137.116847537458,left,1,0.44147492200136185,0.35,,,,,,,,,,,s037,001,2024-09-26_10h15.16.231,simplestop_skeleton,2022.2.2,59.6590504449324,
None,None,,,,,,,,,0,0,0,0,11,1,45,3,,,,,,,,,3137.0980367660522,go,squareblack.png,right,0.35,,,,,,,,,,,,,,,,,,0.0017789602279663086,0.4897870793938637,,3139.600259207189,test,1,,,,,,,3137.116847537458,3137.6304824203253,3137.6134296506643,3137.6134296506643,3137.964478261769,3138.4635595828295,3138.6139150485396,3139.6192459389567,right,1,0.3467272222042084,0.35,,,,,,,,,,,s037,001,2024-09-26_10h15.16.231,simplestop_skeleton,2022.2.2,59.6590504449324,
None,None,,,,,,,,,0,0,0,0,11,2,46,2,,,,,,,,,3139.600710824132,go,circleblack.png,left,0.35,,,,,,,,,,,,,,,,,,0.0017856508493423462,0.4896843060851097,,3142.102794520557,test,1,,,,,,,3139.6192459389567,3140.1329148337245,3140.116432495415,3140.116432495415,3140.4665562212467,3140.967147037387,3141.1175085306168,3142.1213387548923,left,1,0.9216873273253441,0.35,,,,,,,,,,,s037,001,2024-09-26_10h15.16.231,simplestop_skeleton,2022.2.2,59.6590504449324,
$currentCorrectResponse,$currentGoStim,,,,,,,,,0,0,0,0,11,3,47,0,,,,,,,,,3142.103242918849,go,circleblack.png,left,0.35,,,,,,,,,,,,,,,,,,0.0012517869472503662,0.4898364767432213,,3144.605692215264,test,1,,,,,,,3142.1213387548923,3142.6356035023928,3142.618936650455,3142.618936650455,3142.969254657626,3143.4698157534003,3143.6200171858072,3144.6263476610184,left,1,0.7886137962341309,0.35,,,,,,,,,,,s037,001,2024-09-26_10h15.16.231,simplestop_skeleton,2022.2.2,59.6590504449324,
,,,,,,,,,,0,0,0,0,,,,,,"[{'fileName': 'squareblack.png', 'correct_response': 'right', 'condition': 'go'}, {'fileName': 'squareblack.png', 'correct_response': 'right', 'condition': 'go'}, {'fileName': 'squareblack.png', 'correct_response': 'right', 'condition': 'stop'}, {'fileName': 'squareblack.png', 'correct_response': 'right', 'condition': 'stop'}, {'fileName': 'squareblack.png', 'correct_response': 'right', 'condition': 'go'}, {'fileName': 'circleblack.png', 'correct_response': 'left', 'condition': 'go'}, {'fileName': 'circleblack.png', 'correct_response': 'left', 'condition': 'stop'}, {'fileName': 'circleblack.png', 'correct_response': 'left', 'condition': 'go'}, {'fileName': 'circleblack.png', 'correct_response': 'left', 'condition': 'go'}, {'fileName': 'circleblack.png', 'correct_response': 'left', 'condition': 'go'}, {'fileName': 'squareblack.png', 'correct_response': 'right', 'condition': 'go'}, {'fileName': 'circleblack.png', 'correct_response': 'left', 'condition': 'stop'}, {'fileName': 'circleblack.png', 'correct_response': 'left', 'condition': 'stop'}, {'fileName': 'squareblack.png', 'correct_response': 'right', 'condition': 'stop'}, {'fileName': 'circleblack.png', 'correct_response': 'left', 'condition': 'stop'}, {'fileName': 'squareblack.png', 'correct_response': 'right', 'condition': 'go'}, {'fileName': 'circleblack.png', 'correct_response': 'left', 'condition': 'go'}, {'fileName': 'squareblack.png', 'correct_response': 'right', 'condition': 'go'}, {'fileName': 'squareblack.png', 'correct_response': 'right', 'condition': 'stop'}, {'fileName': 'squareblack.png', 'correct_response': 'right', 'condition': 'go'}, {'fileName': 'circleblack.png', 'correct_response': 'left', 'condition': 'go'}, {'fileName': 'circleblack.png', 'correct_response': 'left', 'condition': 'go'}, {'fileName': 'squareblack.png', 'correct_response': 'right', 'condition': 'go'}, {'fileName': 'circleblack.png', 'correct_response': 'left', 'condition': 'go'}, {'fileName': 'squareblack.png', 'correct_response': 'right', 'condition': 'stop'}, {'fileName': 'circleblack.png', 'correct_response': 'left', 'condition': 'go'}, {'fileName': 'circleblack.png', 'correct_response': 'left', 'condition': 'go'}, {'fileName': 'circleblack.png', 'correct_response': 'left', 'condition': 'go'}, {'fileName': 'squareblack.png', 'correct_response': 'right', 'condition': 'go'}, {'fileName': 'circleblack.png', 'correct_response': 'left', 'condition': 'stop'}, {'fileName': 'squareblack.png', 'correct_response': 'right', 'condition': 'go'}, {'fileName': 'circleblack.png', 'correct_response': 'left', 'condition': 'go'}, {'fileName': 'squareblack.png', 'correct_response': 'right', 'condition': 'go'}, {'fileName': 'squareblack.png', 'correct_response': 'right', 'condition': 'stop'}, {'fileName': 'squareblack.png', 'correct_response': 'right', 'condition': 'go'}, {'fileName': 'circleblack.png', 'correct_response': 'left', 'condition': 'stop'}, {'fileName': 'squareblack.png', 'correct_response': 'right', 'condition': 'go'}, {'fileName': 'circleblack.png', 'correct_response': 'left', 'condition': 'go'}, {'fileName': 'squareblack.png', 'correct_response': 'right', 'condition': 'go'}, {'fileName': 'circleblack.png', 'correct_response': 'left', 'condition': 'go'}, {'fileName': 'squareblack.png', 'correct_response': 'right', 'condition': 'go'}, {'fileName': 'circleblack.png', 'correct_response': 'left', 'condition': 'go'}, {'fileName': 'circleblack.png', 'correct_response': 'left', 'condition': 'stop'}, {'fileName': 'circleblack.png', 'correct_response': 'left', 'condition': 'stop'}, {'fileName': 'circleblack.png', 'correct_response': 'left', 'condition': 'go'}, {'fileName': 'squareblack.png', 'correct_response': 'right', 'condition': 'stop'}, {'fileName': 'squareblack.png', 'correct_response': 'right', 'condition': 'stop'}, {'fileName': 'squareblack.png', 'correct_response': 'right', 'condition': 'go'}]",,,,,,,,,,,,,,,,,,,,,,,,,,,,,,,,,,,,,,,,,,,,,,,,,,,,,3144.6263476610184,3144.6263476610184,return,3.916695438325405,,,,,,,s037,001,2024-09-26_10h15.16.231,simplestop_skeleton,2022.2.2,59.6590504449324,
$currentCorrectResponse,$currentGoStim,,,,,,,,,1,0,1,0,0,0,0,0,,,,,,,,,3148.567717857659,go,squareblack.png,right,0.35,,,,,,,,,,,,,,,,,,0.001805916428565979,0.4986511766910553,,3151.0796493962407,test,2,,,,,,,3148.5875783339143,3149.0929782167077,3149.0929782167077,3149.0929782167077,3149.4431386962533,3149.943691186607,3150.0939708426595,3151.098894432187,right,1,0.613581970334053,0.35,,,,,,,,,,,s037,001,2024-09-26_10h15.16.231,simplestop_skeleton,2022.2.2,59.6590504449324,
$currentCorrectResponse,$currentGoStim,,,,,,,,,1,0,1,0,0,1,1,0,,,,,,,,,3151.0801860541105,go,squareblack.png,right,0.35,,,,,,,,,,,,,,,,,,0.0013436824083328247,0.4895905628800392,,3153.5824780389667,test,2,,,,,,,3151.098894432187,3151.612521879375,3151.595504745841,3151.595504745841,3151.945821635425,3152.445859901607,3152.596379891038,3153.6009510606527,right,1,0.41835977137088776,0.35,,,,,,,,,,,s037,001,2024-09-26_10h15.16.231,simplestop_skeleton,2022.2.2,59.6590504449324,
None,None,,,,,,,,,1,0,1,0,0,2,2,1,,,,,,,,,3153.582914315164,stop,squareblack.png,right,0.35,,,,,,,,,,,,,,,,,,0.0012811124324798584,0.48940564692020416,0.8399433940649033,3156.085386246443,test,2,,,,,,,3153.6009510606527,3154.1150685101748,3154.098512507975,3154.098512507975,3154.449112854898,3154.965696282685,3155.0989559590816,3156.103877425194,right,1,0.4725240245461464,0.3,,,,,,,,,,,s037,001,2024-09-26_10h15.16.231,simplestop_skeleton,2022.2.2,59.6590504449324,
None,None,,,,,,,,,1,0,1,0,0,3,3,2,,,,,,,,,3156.0858278647065,stop,squareblack.png,right,0.3,,,,,,,,,,,,,,,,,,0.0013322606682777405,0.4895592927932739,0.7899940609931946,3158.587772488594,test,2,,,,,,,3156.103877425194,3156.617823086679,3156.60135769099,3156.60135769099,3156.9013426676393,3157.4019199088216,3157.601719327271,3158.6066395267844,right,1,0.578795462846756,0.25,,,,,,,,,,,s037,001,2024-09-26_10h15.16.231,simplestop_skeleton,2022.2.2,59.6590504449324,
$currentCorrectResponse,$currentGoStim,,,,,,,,,1,0,1,0,1,0,4,0,,,,,,,,,3158.5882079079747,go,squareblack.png,right,0.25,,,,,,,,,,,,,,,,,,0.0012973099946975708,0.4896812364459038,,3161.0907090604305,test,2,,,,,,,3158.6066395267844,3159.120330236852,3159.104141071439,3159.104141071439,3159.3542407751083,3159.8545592427254,3160.1049673333764,3161.109924264252,right,1,0.6714360937476158,0.25,,,,,,,,,,,s037,001,2024-09-26_10h15.16.231,simplestop_skeleton,2022.2.2,59.6590504449324,
None,None,,,,,,,,,1,0,1,0,1,1,5,3,,,,,,,,,3161.091146759689,go,circleblack.png,left,0.25,,,,,,,,,,,,,,,,,,0.0018853247165679932,0.48996537923812866,,3163.593550607562,test,2,,,,,,,3161.109924264252,3161.623286791146,3161.606573522091,3161.606573522091,3161.8569388613105,3162.356121517718,3162.606792151928,3163.612881362438,left,1,0.39343298226594925,0.25,,,,,,,,,,,s037,001,2024-09-26_10h15.16.231,simplestop_skeleton,2022.2.2,59.6590504449324,
None,None,,,,,,,,,1,0,1,0,1,2,6,2,,,,,,,,,3163.5940158218145,stop,circleblack.png,left,0.25,,,,,,,,,,,,,,,,,,0.0014189183712005615,0.4892391338944435,0.7393921539187431,3166.095959328115,test,2,,,,,,,3163.612881362438,3164.126026250422,3164.109622232616,3164.109622232616,3164.3595781102777,3164.8607313632965,3165.109951071441,3166.1150780394673,left,1,0.3495093360543251,0.2,,,,,,,,,,,s037,001,2024-09-26_10h15.16.231,simplestop_skeleton,2022.2.2,59.6590504449324,
$currentCorrectResponse,$currentGoStim,,,,,,,,,1,0,1,0,1,3,7,0,,,,,,,,,3166.0963899195194,go,circleblack.png,left,0.2,,,,,,,,,,,,,,,,,,0.0013516172766685486,0.48960208147764206,,3168.598773881793,test,2,,,,,,,3166.1150780394673,3166.628961071372,3166.611947596073,3166.611947596073,3166.812166802585,3167.3128007799387,3167.6131191924214,3168.6175822913647,left,1,0.4782308489084244,0.2,,,,,,,,,,,s037,001,2024-09-26_10h15.16.231,simplestop_skeleton,2022.2.2,59.6590504449324,
$currentCorrectResponse,$currentGoStim,,,,,,,,,1,0,1,0,2,0,8,0,,,,,,,,,3168.5992172285914,go,circleblack.png,left,0.2,,,,,,,,,,,,,,,,,,0.00124436616897583,0.489695280790329,,3171.1015973240137,test,2,,,,,,,3168.6175822913647,3169.131461247802,3169.1151614412665,3169.1151614412665,3169.314994648099,3169.815747335553,3170.115375086665,3171.1203204095364,left,1,0.4188258573412895,0.2,,,,,,,,,,,s037,001,2024-09-26_10h15.16.231,simplestop_skeleton,2022.2.2,59.6590504449324,
$currentCorrectResponse,$currentGoStim,,,,,,,,,1,0,1,0,2,1,9,0,,,,,,,,,3171.10203923285,go,circleblack.png,left,0.2,,,,,,,,,,,,,,,,,,0.0014347434043884277,0.4898504838347435,,3173.6043134108186,test,2,,,,,,,3171.1203204095364,3171.6341995820403,3171.6175783351064,3171.6175783351064,3171.8178647980094,3172.3175642862916,3172.6180714964867,3173.6234165877104,left,1,0.39655107259750366,0.2,,,,,,,,,,,s037,001,2024-09-26_10h15.16.231,simplestop_skeleton,2022.2.2,59.6590504449324,
None,None,,,,,,,,,1,0,1,0,2,2,10,1,,,,,,,,,3173.6047588959336,go,squareblack.png,right,0.2,,,,,,,,,,,,,,,,,,0.0016059502959251404,0.49005764722824097,,3176.107236623764,test,2,,,,,,,3173.6234165877104,3174.1371105760336,3174.120674803853,3174.120674803853,3174.320643365383,3174.8212883770466,3175.1218289211392,3176.1262926012278,right,1,0.6326058954000473,0.2,,,,,,,,,,,s037,001,2024-09-26_10h15.16.231,simplestop_skeleton,2022.2.2,59.6590504449324,
None,None,,,,,,,,,1,0,1,0,2,3,11,2,,,,,,,,,3176.1076915711164,stop,circleblack.png,left,0.2,,,,,,,,,,,,,,,,,,0.001838088035583496,0.4898803308606148,0.6898310482501984,3178.6098212227225,test,2,,,,,,,3176.1262926012278,3176.6398423984647,3176.6231733858585,3176.6231733858585,3176.823354154825,3177.323767133057,3177.624202437699,3178.6287093237042,None,0,,0.25,,,,,,,,,,,s037,001,2024-09-26_10h15.16.231,simplestop_skeleton,2022.2.2,59.6590504449324,
None,None,,,,,,,,,1,0,1,0,3,0,12,2,,,,,,,,,3178.6103274449706,stop,circleblack.png,left,0.25,,,,,,,,,,,,,,,,,,0.0013576000928878784,0.49007710814476013,0.7398672327399254,3181.1125302687287,test,2,,,,,,,3178.6287093237042,3179.1427042484283,3179.1260056495667,3179.1260056495667,3179.376313969493,3179.8769068792462,3180.1273597478867,3181.131628975272,None,0,,0.3,,,,,,,,,,,s037,001,2024-09-26_10h15.16.231,simplestop_skeleton,2022.2.2,59.6590504449324,
None,None,,,,,,,,,1,0,1,0,3,1,13,1,,,,,,,,,3181.112982146442,stop,squareblack.png,right,0.3,,,,,,,,,,,,,,,,,,0.0016067400574684143,0.4899105429649353,0.7900457605719566,3183.6153510659933,test,2,,,,,,,3181.131628975272,3181.6452749073505,3181.628733538091,3181.628733538091,3181.9296102002263,3182.429432094097,3182.6298164501786,3183.6345486864448,None,0,,0.35,,,,,,,,,,,s037,001,2024-09-26_10h15.16.231,simplestop_skeleton,2022.2.2,59.6590504449324,
None,None,,,,,,,,,1,0,1,0,3,2,14,2,,,,,,,,,3183.615788027644,stop,circleblack.png,left,0.35,,,,,,,,,,,,,,,,,,0.0018074363470077515,0.4898967742919922,0.8404951617121696,3186.1182315200567,test,2,,,,,,,3183.6345486864448,3184.1482819467783,3184.131631873548,3184.131631873548,3184.4821158498526,3184.9825351014733,3185.1326067224145,3186.137129753828,None,0,,0.4,,,,,,,,,,,s037,001,2024-09-26_10h15.16.231,simplestop_skeleton,2022.2.2,59.6590504449324,
$currentCorrectResponse,$currentGoStim,,,,,,,,,1,0,1,0,3,3,15,0,,,,,,,,,3186.118660904467,go,squareblack.png,right,0.4,,,,,,,,,,,,,,,,,,0.0016191303730010986,0.4898113012313843,,3188.6211038827896,test,2,,,,,,,3186.137129753828,3186.6509713009,3186.634545505047,3186.634545505047,3187.034569554031,3187.534722864628,3187.634848870337,3188.6405558511615,right,1,0.4311253949999809,0.4,,,,,,,,,,,s037,001,2024-09-26_10h15.16.231,simplestop_skeleton,2022.2.2,59.6590504449324,
None,None,,,,,,,,,1,0,1,0,4,0,16,1,,,,,,,,,3188.6215516850352,go,circleblack.png,left,0.4,,,,,,,,,,,,,,,,,,0.0019562095403671265,0.48959534615278244,,3191.123604916036,test,2,,,,,,,3188.6405558511615,3189.153709128499,3189.137101434171,3189.137101434171,3189.5372218191624,3190.0380877032876,3190.1382042467594,3191.142445795238,left,1,0.7200102731585503,0.4,,,,,,,,,,,s037,001,2024-09-26_10h15.16.231,simplestop_skeleton,2022.2.2,59.6590504449324,
None,None,,,,,,,,,1,0,1,0,4,1,17,2,,,,,,,,,3191.1240458115935,go,squareblack.png,right,0.4,,,,,,,,,,,,,,,,,,0.0016877427697181702,0.4899803251028061,,3193.626364901662,test,2,,,,,,,3191.142445795238,3191.656542956829,3191.639685459435,3191.639685459435,3192.040228419006,3192.5395576134324,3192.640500150621,3193.6438790261745,right,1,0.569078117609024,0.4,,,,,,,,,,,s037,001,2024-09-26_10h15.16.231,simplestop_skeleton,2022.2.2,59.6590504449324,
None,None,,,,,,,,,1,0,1,0,4,2,18,2,,,,,,,,,3193.6268036812544,stop,squareblack.png,right,0.4,,,,,,,,,,,,,,,,,,0.0012522265315055847,0.4903494417667389,0.8904678449034691,3196.1292481720448,test,2,,,,,,,3193.6438790261745,3194.1594416722655,3194.14251922071,3194.14251922071,3194.543320044875,3195.0599682703614,3195.143089480698,3196.1478735879064,right,1,0.5184842571616173,0.35,,,,,,,,,,,s037,001,2024-09-26_10h15.16.231,simplestop_skeleton,2022.2.2,59.6590504449324,
None,None,,,,,,,,,1,0,1,0,4,3,19,3,,,,,,,,,3196.12975423038,go,squareblack.png,right,0.35,,,,,,,,,,,,,,,,,,0.0012391582131385803,0.48985907435417175,,3198.6321362033486,test,2,,,,,,,3196.1478735879064,3196.6618883013725,3196.645336277783,3196.645336277783,3196.9956579059362,3197.495822414756,3197.645767144859,3198.6515197381377,right,1,0.38347548246383667,0.35,,,,,,,,,,,s037,001,2024-09-26_10h15.16.231,simplestop_skeleton,2022.2.2,59.6590504449324,
None,None,,,,,,,,,1,0,1,0,5,0,20,1,,,,,,,,,3198.6325765773654,go,circleblack.png,left,0.35,,,,,,,,,,,,,,,,,,0.0019780993461608887,0.4896112084388733,,3201.134594798088,test,2,,,,,,,3198.6515197381377,3199.165018327534,3199.1484025493264,3199.1484025493264,3199.4983549565077,3199.9990776106715,3200.148783184588,3201.1534976512194,left,1,0.549321137368679,0.35,,,,,,,,,,,s037,001,2024-09-26_10h15.16.231,simplestop_skeleton,2022.2.2,59.6590504449324,
None,None,,,,,,,,,1,0,1,0,5,1,21,2,,,,,,,,,3201.135025985539,go,circleblack.png,left,0.35,,,,,,,,,,,,,,,,,,0.001252293586730957,0.4898549094796181,,3203.637417845428,test,2,,,,,,,3201.1534976512194,3201.667424827814,3201.650894962251,3201.650894962251,3202.0017755255103,3202.500695154071,3202.651407405734,3203.656357422471,left,1,0.5512304455041885,0.35,,,,,,,,,,,s037,001,2024-09-26_10h15.16.231,simplestop_skeleton,2022.2.2,59.6590504449324,
None,None,,,,,,,,,1,0,1,0,5,2,22,2,,,,,,,,,3203.637863226235,go,squareblack.png,right,0.35,,,,,,,,,,,,,,,,,,0.0016283690929412842,0.48983967304229736,,3206.140507489443,test,2,,,,,,,3203.656357422471,3204.170185364783,3204.153477959335,3204.153477959335,3204.5043046697974,3205.021939970553,3205.154097735882,3206.15951000154,right,1,0.47599370032548904,0.35,,,,,,,,,,,s037,001,2024-09-26_10h15.16.231,simplestop_skeleton,2022.2.2,59.6590504449324,
None,None,,,,,,,,,1,0,1,0,5,3,23,3,,,,,,,,,3206.1409499645233,go,circleblack.png,left,0.35,,,,,,,,,,,,,,,,,,0.0016784071922302246,0.4898969680070877,,3208.643021069467,test,2,,,,,,,3206.15951000154,3206.6729908436537,3206.6567028984427,3206.6567028984427,3207.006798379123,3207.507409930229,3207.656735867262,3208.6621771380305,left,1,0.5734145641326904,0.35,,,,,,,,,,,s037,001,2024-09-26_10h15.16.231,simplestop_skeleton,2022.2.2,59.6590504449324,
None,None,,,,,,,,,1,0,1,0,6,0,24,3,,,,,,,,,3208.643464758992,stop,squareblack.png,right,0.35,,,,,,,,,,,,,,,,,,0.0016038566827774048,0.4895883798599243,0.8402538746595383,3211.145600900054,test,2,,,,,,,3208.6621771380305,3209.175883576274,3209.1592628732324,3209.1592628732324,3209.509550794959,3210.0098972320557,3210.160180531442,3211.1647310629487,None,0,,0.4,,,,,,,,,,,s037,001,2024-09-26_10h15.16.231,simplestop_skeleton,2022.2.2,59.6590504449324,
None,None,,,,,,,,,1,0,1,0,6,1,25,3,,,,,,,,,3211.146033398807,go,circleblack.png,left,0.4,,,,,,,,,,,,,,,,,,0.0017941668629646301,0.48987822234630585,,3213.6486012786627,test,2,,,,,,,3211.1647310629487,3211.678539380431,3211.6619912162423,3211.6619912162423,3212.0621225610375,3212.5626533851027,3212.662978425622,3213.667312629521,left,1,0.9397844597697258,0.4,,,,,,,,,,,s037,001,2024-09-26_10h15.16.231,simplestop_skeleton,2022.2.2,59.6590504449324,
$currentCorrectResponse,$currentGoStim,,,,,,,,,1,0,1,0,6,2,26,0,,,,,,,,,3213.649042993784,go,circleblack.png,left,0.4,,,,,,,,,,,,,,,,,,0.0013434812426567078,0.4897410199046135,,3216.1516657546163,test,2,,,,,,,3213.667312629521,3214.1815037876368,3214.1646273732185,3214.1646273732185,3214.5650087743998,3215.0649218037724,3215.165238983929,3216.1704190447927,left,1,0.35805126279592514,0.4,,,,,,,,,,,s037,001,2024-09-26_10h15.16.231,simplestop_skeleton,2022.2.2,59.6590504449324,
None,None,,,,,,,,,1,0,1,0,6,3,27,3,,,,,,,,,3216.1521065086126,go,circleblack.png,left,0.4,,,,,,,,,,,,,,,,,,0.001384630799293518,0.48960334062576294,,3218.654278218746,test,2,,,,,,,3216.1704190447927,3216.6840086355805,3216.6673666089773,3216.6673666089773,3217.0678434446454,3217.568156518042,3217.6683225780725,3218.6731494292617,left,1,0.35962630808353424,0.4,,,,,,,,,,,s037,001,2024-09-26_10h15.16.231,simplestop_skeleton,2022.2.2,59.6590504449324,
None,None,,,,,,,,,1,0,1,0,7,0,28,3,,,,,,,,,3218.6547092422843,go,squareblack.png,right,0.4,,,,,,,,,,,,,,,,,,0.0015755966305732727,0.48965901881456375,,3221.1565632224083,test,2,,,,,,,3218.6731494292617,3219.1868149861693,3219.1703426912427,3219.1703426912427,3219.570546552539,3220.0702825039625,3220.1713084056973,3221.175804309547,right,1,0.28392723202705383,0.4,,,,,,,,,,,s037,001,2024-09-26_10h15.16.231,simplestop_skeleton,2022.2.2,59.6590504449324,
None,None,,,,,,,,,1,0,1,0,7,1,29,3,,,,,,,,,3221.1570099517703,stop,circleblack.png,left,0.4,,,,,,,,,,,,,,,,,,0.0017271339893341064,0.4898298606276512,0.8904981389641762,3223.6596407294273,test,2,,,,,,,3221.175804309547,3221.6894682347775,3221.6727720350027,3221.6727720350027,3222.07357621938,3222.573867969215,3222.6737462058663,3223.678796596825,None,0,,0.45,,,,,,,,,,,s037,001,2024-09-26_10h15.16.231,simplestop_skeleton,2022.2.2,59.6590504449324,
None,None,,,,,,,,,1,0,1,0,7,2,30,1,,,,,,,,,3223.660091549158,go,squareblack.png,right,0.45,,,,,,,,,,,,,,,,,,0.0017607957124710083,0.4895747974514961,,3226.1621805503964,test,2,,,,,,,3223.678796596825,3224.192119538784,3224.17582590878,3224.17582590878,3224.6259617358446,3225.1260757297277,3225.1759523674846,3226.1815012916923,right,1,0.4979441910982132,0.45,,,,,,,,,,,s037,001,2024-09-26_10h15.16.231,simplestop_skeleton,2022.2.2,59.6590504449324,
None,None,,,,,,,,,1,0,1,0,7,3,31,3,,,,,,,,,3226.1626327708364,go,circleblack.png,left,0.45,,,,,,,,,,,,,,,,,,0.0017290934920310974,0.48972729593515396,,3228.6649631485343,test,2,,,,,,,3226.1815012916923,3226.6949051842093,3226.6783631145954,3226.6783631145954,3227.128903530538,3227.6294117718935,3227.679487526417,3228.6839974597096,None,0,,0.45,,,,,,,,,,,s037,001,2024-09-26_10h15.16.231,simplestop_skeleton,2022.2.2,59.6590504449324,
None,None,,,,,,,,,1,0,1,0,8,0,32,1,,,,,,,,,3228.665413029492,go,squareblack.png,right,0.45,,,,,,,,,,,,,,,,,,0.0016597360372543335,0.4899588078260422,,3231.167759478092,test,2,,,,,,,3228.6839974597096,3229.1977128833532,3229.181135736406,3229.181135736406,3229.6316072121263,3230.1312486603856,3230.1817882433534,3231.186668112874,right,1,0.32581398636102676,0.45,,,,,,,,,,,s037,001,2024-09-26_10h15.16.231,simplestop_skeleton,2022.2.2,59.6590504449324,
$currentCorrectResponse,$currentGoStim,,,,,,,,,1,0,1,0,8,1,33,0,,,,,,,,,3231.1681890413165,stop,squareblack.png,right,0.45,,,,,,,,,,,,,,,,,,0.001328982412815094,0.48958808928728104,0.9405738338828087,3233.670489296317,test,2,,,,,,,3231.186668112874,3231.7005709409714,3231.683597356081,3231.683597356081,3232.1344835832715,3232.634564101696,3232.6850572749972,3233.6894512698054,right,1,0.3205490782856941,0.4,,,,,,,,,,,s037,001,2024-09-26_10h15.16.231,simplestop_skeleton,2022.2.2,59.6590504449324,
None,None,,,,,,,,,1,0,1,0,8,2,34,1,,,,,,,,,3233.6709174737334,go,squareblack.png,right,0.4,,,,,,,,,,,,,,,,,,0.0011914297938346863,0.48966509848833084,,3236.1733376681805,test,2,,,,,,,3233.6894512698054,3234.2032368332148,3234.186808846891,3234.186808846891,3234.5870350524783,3235.087031982839,3235.18785161525,3236.193191856146,right,1,0.3132900968194008,0.4,,,,,,,,,,,s037,001,2024-09-26_10h15.16.231,simplestop_skeleton,2022.2.2,59.6590504449324,
None,None,,,,,,,,,1,0,1,0,8,3,35,3,,,,,,,,,3236.17377319932,stop,circleblack.png,left,0.4,,,,,,,,,,,,,,,,,,0.0018787384033203125,0.4895741045475006,0.8901982232928276,3238.6763740852475,test,2,,,,,,,3236.193191856146,3236.7061817646027,3236.6893748119473,3236.6893748119473,3237.089798524976,3237.5895127803087,3237.689727909863,3238.6952277198434,left,1,0.3516301289200783,0.35,,,,,,,,,,,s037,001,2024-09-26_10h15.16.231,simplestop_skeleton,2022.2.2,59.6590504449324,
None,None,,,,,,,,,1,0,1,0,9,0,36,1,,,,,,,,,3238.676819510758,go,squareblack.png,right,0.35,,,,,,,,,,,,,,,,,,0.0016344711184501648,0.48938560485839844,,3241.179264612496,test,2,,,,,,,3238.6952277198434,3239.2086455076933,3239.192424401641,3239.192424401641,3239.5428377464414,3240.042616389692,3240.1934908926487,3241.198293864727,right,1,0.39747779816389084,0.35,,,,,,,,,,,s037,001,2024-09-26_10h15.16.231,simplestop_skeleton,2022.2.2,59.6590504449324,
None,None,,,,,,,,,1,0,1,0,9,1,37,1,,,,,,,,,3241.179710485041,go,circleblack.png,left,0.35,,,,,,,,,,,,,,,,,,0.0018033236265182495,0.48943157494068146,,3243.681740127504,test,2,,,,,,,3241.198293864727,3241.711563527584,3241.694927714765,3241.694927714765,3242.045266330242,3242.5453369766474,3242.6960226893425,3243.7006063759327,left,1,0.43019627034664154,0.35,,,,,,,,,,,s037,001,2024-09-26_10h15.16.231,simplestop_skeleton,2022.2.2,59.6590504449324,
None,None,,,,,,,,,1,0,1,0,9,2,38,1,,,,,,,,,3243.6821845173836,go,squareblack.png,right,0.35,,,,,,,,,,,,,,,,,,0.0016215965151786804,0.489936925470829,,3246.1845740526915,test,2,,,,,,,3243.7006063759327,3244.214467905462,3244.197919599712,3244.197919599712,3244.5484311059117,3245.0487239435315,3245.1991716995835,3246.2034903913736,right,1,0.7049001380801201,0.35,,,,,,,,,,,s037,001,2024-09-26_10h15.16.231,simplestop_skeleton,2022.2.2,59.6590504449324,
None,None,,,,,,,,,1,0,1,0,9,3,39,3,,,,,,,,,3246.185021802783,go,circleblack.png,left,0.35,,,,,,,,,,,,,,,,,,0.001627124845981598,0.4898413047194481,,3248.6872281059623,test,2,,,,,,,3246.2034903913736,3246.7173689305782,3246.700597964227,3246.700597964227,3247.0506969615817,3247.5511410310864,3247.7010631263256,3248.706443145871,left,1,0.4334103837609291,0.35,,,,,,,,,,,s037,001,2024-09-26_10h15.16.231,simplestop_skeleton,2022.2.2,59.6590504449324,
None,None,,,,,,,,,1,0,1,0,10,0,40,2,,,,,,,,,3248.687662318349,go,squareblack.png,right,0.35,,,,,,,,,,,,,,,,,,0.0017120018601417542,0.4899900183081627,,3251.1897155046463,test,2,,,,,,,3248.706443145871,3249.2200045213103,3249.20361944288,3249.20361944288,3249.5536638125777,3250.05387275666,3250.2045201808214,3251.2091844528913,right,1,0.3264360874891281,0.35,,,,,,,,,,,s037,001,2024-09-26_10h15.16.231,simplestop_skeleton,2022.2.2,59.6590504449324,
None,None,,,,,,,,,1,0,1,0,10,1,41,2,,,,,,,,,3251.1901466548443,go,circleblack.png,left,0.35,,,,,,,,,,,,,,,,,,0.0018027722835540771,0.4899846464395523,,3253.69278909266,test,2,,,,,,,3251.2091844528913,3251.7225093096495,3251.70582164824,3251.70582164824,3252.0564446374774,3252.57226896286,3252.7062242254615,3253.711480550468,right,0,0.5338146984577179,0.35,,,,,,,,,,,s037,001,2024-09-26_10h15.16.231,simplestop_skeleton,2022.2.2,59.6590504449324,
None,None,,,,,,,,,1,0,1,0,10,2,42,3,,,,,,,,,3253.693228676915,stop,circleblack.png,left,0.35,,,,,,,,,,,,,,,,,,0.001296602189540863,0.4897354543209076,0.8401865139603615,3256.195273861289,test,2,,,,,,,3253.711480550468,3254.2252487167716,3254.208710834384,3254.208710834384,3254.558982260525,3255.0591421872377,3255.2092389687896,3256.213893994689,left,1,0.36791621148586273,0.3,,,,,,,,,,,s037,001,2024-09-26_10h15.16.231,simplestop_skeleton,2022.2.2,59.6590504449324,
None,None,,,,,,,,,1,0,1,0,10,3,43,1,,,,,,,,,3256.1957134976983,stop,circleblack.png,left,0.3,,,,,,,,,,,,,,,,,,0.0012490898370742798,0.49005313962697983,0.7901982814073563,3258.698226109147,test,2,,,,,,,3256.213893994689,3256.7282194793224,3256.71140242368,3256.71140242368,3257.011993378401,3257.5110523179173,3257.711776405573,3258.7171542048454,left,1,0.47373637557029724,0.25,,,,,,,,,,,s037,001,2024-09-26_10h15.16.231,simplestop_skeleton,2022.2.2,59.6590504449324,
$currentCorrectResponse,$currentGoStim,,,,,,,,,1,0,1,0,11,0,44,0,,,,,,,,,3258.6986649036407,go,circleblack.png,left,0.25,,,,,,,,,,,,,,,,,,0.00136624276638031,0.48967093229293823,,3261.201156564057,test,2,,,,,,,3258.7171542048454,3259.2311269938946,3259.2142102122307,3259.2142102122307,3259.464451931417,3259.963834516704,3260.2151588872075,3261.2200760543346,left,1,0.4146396815776825,0.25,,,,,,,,,,,s037,001,2024-09-26_10h15.16.231,simplestop_skeleton,2022.2.2,59.6590504449324,
None,None,,,,,,,,,1,0,1,0,11,1,45,2,,,,,,,,,3261.2016245424747,stop,squareblack.png,right,0.25,,,,,,,,,,,,,,,,,,0.001692250370979309,0.4897012636065483,0.740075021982193,3263.704063385725,test,2,,,,,,,3261.2200760543346,3261.733637943864,3261.7172889113426,3261.7172889113426,3261.9672606140375,3262.4679595679045,3262.7177589535713,3263.7229752987623,right,1,0.4908769130706787,0.2,,,,,,,,,,,s037,001,2024-09-26_10h15.16.231,simplestop_skeleton,2022.2.2,59.6590504449324,
$currentCorrectResponse,$currentGoStim,,,,,,,,,1,0,1,0,11,2,46,0,,,,,,,,,3263.7045155391097,stop,squareblack.png,right,0.2,,,,,,,,,,,,,,,,,,0.0013084858655929565,0.48909491300582886,0.68946573138237,3266.2071659341455,test,2,,,,,,,3263.7229752987623,3264.236427485943,3264.2198542952538,3264.2198542952538,3264.4201013594866,3264.920726545155,3265.221082419157,3266.227294638753,None,0,,0.25,,,,,,,,,,,s037,001,2024-09-26_10h15.16.231,simplestop_skeleton,2022.2.2,59.6590504449324,
$currentCorrectResponse,$currentGoStim,,,,,,,,,1,0,1,0,11,3,47,0,,,,,,,,,3266.2077737152576,go,squareblack.png,right,0.25,,,,,,,,,,,,,,,,,,0.0022026002407073975,0.4881347119808197,,3268.7095346450806,test,2,,,,,,,3266.227294638753,3266.739494495094,3266.7228286862373,3266.7228286862373,3266.972882196307,3267.4735394641757,3267.7230603694916,3268.725035779178,right,1,0.5225006565451622,0.25,,,,,,,,,,,s037,001,2024-09-26_10h15.16.231,simplestop_skeleton,2022.2.2,59.6590504449324,
,,,,,,,,,,1,0,1,0,,,,,,,,,,,,,,,,,,,,,,,,,,,,,,,,,,,,,,,,,,,,,,,,,,,,,,,,,,,3268.725035779178,3268.725035779178,return,51.168021105229855,"[{'fileName': 'circleblack.png', 'correct_response': 'left', 'condition': 'stop'}, {'fileName': 'squareblack.png', 'correct_response': 'right', 'condition': 'go'}, {'fileName': 'circleblack.png', 'correct_response': 'left', 'condition': 'go'}, {'fileName': 'circleblack.png', 'correct_response': 'left', 'condition': 'go'}, {'fileName': 'circleblack.png', 'correct_response': 'left', 'condition': 'go'}, {'fileName': 'circleblack.png', 'correct_response': 'left', 'condition': 'go'}, {'fileName': 'squareblack.png', 'correct_response': 'right', 'condition': 'stop'}, {'fileName': 'squareblack.png', 'correct_response': 'right', 'condition': 'go'}, {'fileName': 'squareblack.png', 'correct_response': 'right', 'condition': 'go'}, {'fileName': 'squareblack.png', 'correct_response': 'right', 'condition': 'stop'}, {'fileName': 'circleblack.png', 'correct_response': 'left', 'condition': 'stop'}, {'fileName': 'squareblack.png', 'correct_response': 'right', 'condition': 'go'}, {'fileName': 'squareblack.png', 'correct_response': 'right', 'condition': 'go'}, {'fileName': 'circleblack.png', 'correct_response': 'left', 'condition': 'stop'}, {'fileName': 'squareblack.png', 'correct_response': 'right', 'condition': 'stop'}, {'fileName': 'squareblack.png', 'correct_response': 'right', 'condition': 'go'}, {'fileName': 'squareblack.png', 'correct_response': 'right', 'condition': 'go'}, {'fileName': 'circleblack.png', 'correct_response': 'left', 'condition': 'go'}, {'fileName': 'circleblack.png', 'correct_response': 'left', 'condition': 'go'}, {'fileName': 'squareblack.png', 'correct_response': 'right', 'condition': 'stop'}, {'fileName': 'squareblack.png', 'correct_response': 'right', 'condition': 'go'}, {'fileName': 'circleblack.png', 'correct_response': 'left', 'condition': 'stop'}, {'fileName': 'circleblack.png', 'correct_response': 'left', 'condition': 'go'}, {'fileName': 'circleblack.png', 'correct_response': 'left', 'condition': 'go'}, {'fileName': 'squareblack.png', 'correct_response': 'right', 'condition': 'go'}, {'fileName': 'circleblack.png', 'correct_response': 'left', 'condition': 'go'}, {'fileName': 'squareblack.png', 'correct_response': 'right', 'condition': 'stop'}, {'fileName': 'circleblack.png', 'correct_response': 'left', 'condition': 'stop'}, {'fileName': 'squareblack.png', 'correct_response': 'right', 'condition': 'go'}, {'fileName': 'circleblack.png', 'correct_response': 'left', 'condition': 'stop'}, {'fileName': 'squareblack.png', 'correct_response': 'right', 'condition': 'go'}, {'fileName': 'squareblack.png', 'correct_response': 'right', 'condition': 'go'}, {'fileName': 'squareblack.png', 'correct_response': 'right', 'condition': 'stop'}, {'fileName': 'circleblack.png', 'correct_response': 'left', 'condition': 'go'}, {'fileName': 'circleblack.png', 'correct_response': 'left', 'condition': 'go'}, {'fileName': 'circleblack.png', 'correct_response': 'left', 'condition': 'go'}, {'fileName': 'squareblack.png', 'correct_response': 'right', 'condition': 'go'}, {'fileName': 'circleblack.png', 'correct_response': 'left', 'condition': 'go'}, {'fileName': 'circleblack.png', 'correct_response': 'left', 'condition': 'go'}, {'fileName': 'squareblack.png', 'correct_response': 'right', 'condition': 'go'}, {'fileName': 'squareblack.png', 'correct_response': 'right', 'condition': 'go'}, {'fileName': 'circleblack.png', 'correct_response': 'left', 'condition': 'go'}, {'fileName': 'squareblack.png', 'correct_response': 'right', 'condition': 'go'}, {'fileName': 'circleblack.png', 'correct_response': 'left', 'condition': 'stop'}, {'fileName': 'squareblack.png', 'correct_response': 'right', 'condition': 'stop'}, {'fileName': 'circleblack.png', 'correct_response': 'left', 'condition': 'stop'}, {'fileName': 'circleblack.png', 'correct_response': 'left', 'condition': 'go'}, {'fileName': 'squareblack.png', 'correct_response': 'right', 'condition': 'stop'}]",,,,,,s037,001,2024-09-26_10h15.16.231,simplestop_skeleton,2022.2.2,59.6590504449324,
None,None,,,,,,,,,2,0,2,0,0,0,0,1,,,,,,,,,3319.906828150153,stop,circleblack.png,left,0.25,,,,,,,,,,,,,,,,,,0.0018281787633895874,0.49860310554504395,0.7489710822701454,3322.4188165813684,test,3,,,,,,,3319.9267792999744,3320.431756928563,3320.431756928563,3320.431756928563,3320.6823523044586,3321.182607345283,3321.432887047529,3322.43789254874,None,0,,0.3,,,,,,,,,,,s037,001,2024-09-26_10h15.16.231,simplestop_skeleton,2022.2.2,59.6590504449324,
$currentCorrectResponse,$currentGoStim,,,,,,,,,2,0,2,0,0,1,1,0,,,,,,,,,3322.419480264187,go,squareblack.png,right,0.3,,,,,,,,,,,,,,,,,,0.0017617568373680115,0.48937731981277466,,3324.921156682074,test,3,,,,,,,3322.43789254874,3322.9514035135508,3322.934699513018,3322.934699513018,3323.2350310385227,3323.734905421734,3323.9350072294474,3324.9401632472873,right,1,0.33252807706594467,0.3,,,,,,,,,,,s037,001,2024-09-26_10h15.16.231,simplestop_skeleton,2022.2.2,59.6590504449324,
$currentCorrectResponse,$currentGoStim,,,,,,,,,2,0,2,0,0,2,2,0,,,,,,,,,3324.921601243317,go,circleblack.png,left,0.3,,,,,,,,,,,,,,,,,,0.0017277970910072327,0.4898640513420105,,3327.423911355436,test,3,,,,,,,3324.9401632472873,3325.453965201974,3325.437210664153,3325.437210664153,3325.7377668097615,3326.237176887691,3326.4379645362496,3327.442914105952,left,1,0.4479419067502022,0.3,,,,,,,,,,,s037,001,2024-09-26_10h15.16.231,simplestop_skeleton,2022.2.2,59.6590504449324,
None,None,,,,,,,,,2,0,2,0,0,3,3,1,,,,,,,,,3327.424342788756,go,circleblack.png,left,0.3,,,,,,,,,,,,,,,,,,0.0012787505984306335,0.4898660033941269,,3329.9268114715815,test,3,,,,,,,3327.442914105952,3327.956750832498,3327.9400489777327,3327.9400489777327,3328.240308776498,3328.739782385528,3328.940652988851,3329.9442147165537,left,1,0.4248073846101761,0.3,,,,,,,,,,,s037,001,2024-09-26_10h15.16.231,simplestop_skeleton,2022.2.2,59.6590504449324,
None,None,,,,,,,,,2,0,2,0,1,0,4,2,,,,,,,,,3329.927262045443,go,circleblack.png,left,0.3,,,,,,,,,,,,,,,,,,0.001384630799293518,0.4886842966079712,,3332.4297474101186,test,3,,,,,,,3329.9442147165537,3330.458195321262,3330.4414865896106,3330.4414865896106,3330.743080124259,3331.243706062436,3331.444087162614,3332.448567405343,left,1,0.3374399393796921,0.3,,,,,,,,,,,s037,001,2024-09-26_10h15.16.231,simplestop_skeleton,2022.2.2,59.6590504449324,
$currentCorrectResponse,$currentGoStim,,,,,,,,,2,0,2,0,1,1,5,0,,,,,,,,,3332.4301854223013,go,circleblack.png,left,0.3,,,,,,,,,,,,,,,,,,0.0013647451996803284,0.4895126149058342,,3334.932682149112,test,3,,,,,,,3332.448567405343,3332.9621868804097,3332.945584669709,3332.945584669709,3333.246308505535,3333.746875822544,3333.9467040225863,3334.9525761306286,left,1,0.3442283570766449,0.3,,,,,,,,,,,s037,001,2024-09-26_10h15.16.231,simplestop_skeleton,2022.2.2,59.6590504449324,
None,None,,,,,,,,,2,0,2,0,1,2,6,1,,,,,,,,,3334.9331231936812,stop,squareblack.png,right,0.3,,,,,,,,,,,,,,,,,,0.0018650591373443604,0.48940813541412354,0.789453774690628,3337.435424298048,test,3,,,,,,,3334.9525761306286,3335.4654923826456,3335.4482004269958,3335.4482004269958,3335.7488623037934,3336.248754635453,3336.4488954767585,3337.4543802067637,right,1,0.34607260674238205,0.25,,,,,,,,,,,s037,001,2024-09-26_10h15.16.231,simplestop_skeleton,2022.2.2,59.6590504449324,
None,None,,,,,,,,,2,0,2,0,1,3,7,3,,,,,,,,,3337.435864239931,go,squareblack.png,right,0.25,,,,,,,,,,,,,,,,,,0.001391395926475525,0.48930594325065613,,3339.9377563223243,test,3,,,,,,,3337.4543802067637,3337.9678658023477,3337.9512283429503,3337.9512283429503,3338.201583132148,3338.701494395733,3338.9521440193057,3339.9565272033215,right,1,0.30883484333753586,0.25,,,,,,,,,,,s037,001,2024-09-26_10h15.16.231,simplestop_skeleton,2022.2.2,59.6590504449324,
None,None,,,,,,,,,2,0,2,0,2,0,8,1,,,,,,,,,3339.938190124929,go,squareblack.png,right,0.25,,,,,,,,,,,,,,,,,,0.001222372055053711,0.4895257502794266,,3342.4403906315565,test,3,,,,,,,3339.9565272033215,3340.470430083573,3340.453919582069,3340.453919582069,3340.7041696235538,3341.203633695841,3341.4542810097337,3342.4594921693206,right,1,0.3705480396747589,0.25,,,,,,,,,,,s037,001,2024-09-26_10h15.16.231,simplestop_skeleton,2022.2.2,59.6590504449324,
None,None,,,,,,,,,2,0,2,0,2,1,9,1,,,,,,,,,3342.4408235549927,stop,squareblack.png,right,0.25,,,,,,,,,,,,,,,,,,0.0012275353074073792,0.48967404663562775,0.7399895861744881,3344.9434187561274,test,3,,,,,,,3342.4594921693206,3342.973287180066,3342.9563803970814,3342.9563803970814,3343.207035459578,3343.7229313254356,3343.9572812467813,3344.962989345193,right,1,0.36451806873083115,0.2,,,,,,,,,,,s037,001,2024-09-26_10h15.16.231,simplestop_skeleton,2022.2.2,59.6590504449324,
None,None,,,,,,,,,2,0,2,0,2,2,10,2,,,,,,,,,3344.9438510090113,stop,circleblack.png,left,0.2,,,,,,,,,,,,,,,,,,0.002097509801387787,0.48952287435531616,0.6903489604592323,3347.4464783519506,test,3,,,,,,,3344.962989345193,3345.4764366447926,3345.4595273062587,3345.4595273062587,3345.6597658619285,3346.160360150039,3346.4607082903385,3347.465519182384,None,0,,0.25,,,,,,,,,,,s037,001,2024-09-26_10h15.16.231,simplestop_skeleton,2022.2.2,59.6590504449324,
$currentCorrectResponse,$currentGoStim,,,,,,,,,2,0,2,0,2,3,11,0,,,,,,,,,3347.4469232186675,go,squareblack.png,right,0.25,,,,,,,,,,,,,,,,,,0.0017012730240821838,0.48937268555164337,,3349.949284031987,test,3,,,,,,,3347.465519182384,3347.9791422635317,3347.9623374789953,3347.9623374789953,3348.212373241782,3348.712895423174,3348.962915495038,3349.9678253009915,right,1,0.5241025611758232,0.25,,,,,,,,,,,s037,001,2024-09-26_10h15.16.231,simplestop_skeleton,2022.2.2,59.6590504449324,
None,None,,,,,,,,,2,0,2,0,3,0,12,3,,,,,,,,,3349.9497246593237,go,squareblack.png,right,0.25,,,,,,,,,,,,,,,,,,0.0013155043125152588,0.489477775990963,,3352.4516200497746,test,3,,,,,,,3349.9678253009915,3350.481602586806,3350.4650262370706,3350.4650262370706,3350.7154853641987,3351.2145553976297,3351.4654213786125,3352.4708457812667,right,1,0.42166540026664734,0.25,,,,,,,,,,,s037,001,2024-09-26_10h15.16.231,simplestop_skeleton,2022.2.2,59.6590504449324,
$currentCorrectResponse,$currentGoStim,,,,,,,,,2,0,2,0,3,1,13,0,,,,,,,,,3352.4520606845617,stop,circleblack.png,left,0.25,,,,,,,,,,,,,,,,,,0.0017255768179893494,0.48982927203178406,0.7403991147875786,3354.9546149522066,test,3,,,,,,,3352.4708457812667,3352.984307013452,3352.967770397663,3352.967770397663,3353.2179706022143,3353.7185202091932,3353.9689866006374,3354.97361908108,None,0,,0.3,,,,,,,,,,,s037,001,2024-09-26_10h15.16.231,simplestop_skeleton,2022.2.2,59.6590504449324,
None,None,,,,,,,,,2,0,2,0,3,2,14,3,,,,,,,,,3354.9550508484244,stop,squareblack.png,right,0.3,,,,,,,,,,,,,,,,,,0.0016338974237442017,0.48965784907341003,0.790115587413311,3357.457220122218,test,3,,,,,,,3354.97361908108,3355.4872817993164,3355.470665335655,3355.470665335655,3355.770934186876,3356.2702170982957,3356.4712147042155,3357.4758776649833,None,0,,0.35,,,,,,,,,,,s037,001,2024-09-26_10h15.16.231,simplestop_skeleton,2022.2.2,59.6590504449324,
$currentCorrectResponse,$currentGoStim,,,,,,,,,2,0,2,0,3,3,15,0,,,,,,,,,3357.457654096186,go,squareblack.png,right,0.35,,,,,,,,,,,,,,,,,,0.0011751800775527954,0.4894596263766289,,3359.9597964957356,test,3,,,,,,,3357.4758776649833,3357.989439688623,3357.972613491118,3357.972613491118,3358.323747843504,3358.8230558931828,3358.9736004173756,3359.9784295111895,None,0,,0.35,,,,,,,,,,,s037,001,2024-09-26_10h15.16.231,simplestop_skeleton,2022.2.2,59.6590504449324,
$currentCorrectResponse,$currentGoStim,,,,,,,,,2,0,2,0,4,0,16,0,,,,,,,,,3359.960225664079,go,squareblack.png,right,0.35,,,,,,,,,,,,,,,,,,0.0012582466006278992,0.4900206997990608,,3362.462728485465,test,3,,,,,,,3359.9784295111895,3360.4929427802563,3360.475867174566,3360.475867174566,3360.8263333514333,3361.3268279358745,3361.4763297066092,3362.482087418437,right,1,0.3583211153745651,0.35,,,,,,,,,,,s037,001,2024-09-26_10h15.16.231,simplestop_skeleton,2022.2.2,59.6590504449324,
None,None,,,,,,,,,2,0,2,0,4,1,17,3,,,,,,,,,3362.4631656706333,go,circleblack.png,left,0.35,,,,,,,,,,,,,,,,,,0.0019861310720443726,0.48973044753074646,,3364.9654067903757,test,3,,,,,,,3362.482087418437,3362.995966345072,3362.978572487831,3362.978572487831,3363.329240716994,3363.8296147212386,3363.979781009257,3364.9841403737664,left,1,0.37553057074546814,0.35,,,,,,,,,,,s037,001,2024-09-26_10h15.16.231,simplestop_skeleton,2022.2.2,59.6590504449324,
None,None,,,,,,,,,2,0,2,0,4,2,18,3,,,,,,,,,3364.965841129422,go,circleblack.png,left,0.35,,,,,,,,,,,,,,,,,,0.0012401789426803589,0.4898623377084732,,3367.4682956188917,test,3,,,,,,,3364.9841403737664,3365.4984025731683,3365.4816531538963,3365.4816531538963,3365.831833921373,3366.3322091400623,3366.482280418277,3367.4874343574047,left,1,0.361201673746109,0.35,,,,,,,,,,,s037,001,2024-09-26_10h15.16.231,simplestop_skeleton,2022.2.2,59.6590504449324,
None,None,,,,,,,,,2,0,2,0,4,3,19,3,,,,,,,,,3367.468739308417,stop,squareblack.png,right,0.35,,,,,,,,,,,,,,,,,,0.001696661114692688,0.49010035395622253,0.8400611728429794,3369.9711881950498,test,3,,,,,,,3367.4874343574047,3368.0011177510023,3367.984333537519,3367.984333537519,3368.334789402783,3368.834749005735,3368.9846258610487,3369.9900930523872,right,1,0.37746116518974304,0.3,,,,,,,,,,,s037,001,2024-09-26_10h15.16.231,simplestop_skeleton,2022.2.2,59.6590504449324,
$currentCorrectResponse,$currentGoStim,,,,,,,,,2,0,2,0,5,0,20,0,,,,,,,,,3369.971618153155,go,squareblack.png,right,0.3,,,,,,,,,,,,,,,,,,0.0013626143336296082,0.48940130323171616,,3372.473642550409,test,3,,,,,,,3369.9900930523872,3370.503605283797,3370.487062394619,3370.487062394619,3370.787318870425,3371.287174575031,3371.4875662997365,3372.4931221455336,right,1,0.35134196281433105,0.3,,,,,,,,,,,s037,001,2024-09-26_10h15.16.231,simplestop_skeleton,2022.2.2,59.6590504449324,
None,None,,,,,,,,,2,0,2,0,5,1,21,3,,,,,,,,,3372.474080465734,stop,circleblack.png,left,0.3,,,,,,,,,,,,,,,,,,0.001911453902721405,0.4895988330245018,0.7899422273039818,3374.9762459397316,test,3,,,,,,,3372.4931221455336,3373.006751589477,3372.9898077473044,3372.9898077473044,3373.290134705603,3373.789391748607,3373.9904129579663,3374.993871860206,left,1,0.4561086967587471,0.25,,,,,,,,,,,s037,001,2024-09-26_10h15.16.231,simplestop_skeleton,2022.2.2,59.6590504449324,
None,None,,,,,,,,,2,0,2,0,5,2,22,2,,,,,,,,,3374.976676173508,go,circleblack.png,left,0.25,,,,,,,,,,,,,,,,,,0.001253269612789154,0.48963513225317,,3377.4791278764606,test,3,,,,,,,3374.993871860206,3375.5091412216425,3375.4924244731665,3375.4924244731665,3375.7426612004638,3376.242015451193,3376.493004053831,3377.4980973675847,left,1,0.4054909721016884,0.25,,,,,,,,,,,s037,001,2024-09-26_10h15.16.231,simplestop_skeleton,2022.2.2,59.6590504449324,
None,None,,,,,,,,,2,0,2,0,5,3,23,3,,,,,,,,,3377.4795670956373,go,circleblack.png,left,0.25,,,,,,,,,,,,,,,,,,0.00129806250333786,0.48954952508211136,,3379.9820722788572,test,3,,,,,,,3377.4980973675847,3378.011891104281,3377.9950315877795,3377.9950315877795,3378.245555244386,3378.748617976904,3378.995683915913,3380.0012290254235,left,1,0.4514160379767418,0.25,,,,,,,,,,,s037,001,2024-09-26_10h15.16.231,simplestop_skeleton,2022.2.2,59.6590504449324,
None,None,,,,,,,,,2,0,2,0,6,0,24,2,,,,,,,,,3379.982520699501,go,squareblack.png,right,0.25,,,,,,,,,,,,,,,,,,0.001646772027015686,0.4898286387324333,,3382.4849174916744,test,3,,,,,,,3380.0012290254235,3380.5149429813027,3380.4981114938855,3380.4981114938855,3380.7484347224236,3381.251842059195,3381.4986959397793,3382.50493401289,right,1,0.45221663266420364,0.25,,,,,,,,,,,s037,001,2024-09-26_10h15.16.231,simplestop_skeleton,2022.2.2,59.6590504449324,
$currentCorrectResponse,$currentGoStim,,,,,,,,,2,0,2,0,6,1,25,0,,,,,,,,,3382.4853689298034,go,circleblack.png,left,0.25,,,,,,,,,,,,,,,,,,0.0024328529834747314,0.48868560045957565,,3384.987356066704,test,3,,,,,,,3382.50493401289,3383.017469651997,3383.001087062061,3383.001087062061,3383.2513744160533,3383.75040551275,3384.001729115844,3385.0068229958415,left,1,0.41778514534235,0.25,,,,,,,,,,,s037,001,2024-09-26_10h15.16.231,simplestop_skeleton,2022.2.2,59.6590504449324,
None,None,,,,,,,,,2,0,2,0,6,2,26,2,,,,,,,,,3384.9877949655056,stop,squareblack.png,right,0.25,,,,,,,,,,,,,,,,,,0.001721702516078949,0.48972511291503906,0.7401447743177414,3387.4904424846172,test,3,,,,,,,3385.0068229958415,3385.5202989652753,3385.5035095736384,3385.5035095736384,3385.753903836012,3386.253386937082,3386.503949470818,3387.5102025941014,right,1,0.3419710248708725,0.2,,,,,,,,,,,s037,001,2024-09-26_10h15.16.231,simplestop_skeleton,2022.2.2,59.6590504449324,
None,None,,,,,,,,,2,0,2,0,6,3,27,2,,,,,,,,,3387.4908802360296,stop,circleblack.png,left,0.2,,,,,,,,,,,,,,,,,,0.0020154565572738647,0.48944444209337234,0.6898676678538322,3389.993180900812,test,3,,,,,,,3387.5102025941014,3388.0232457965612,3388.0064640045166,3388.0064640045166,3388.2068311423063,3388.7073020637035,3389.0076102763414,3390.0124731212854,None,0,,0.25,,,,,,,,,,,s037,001,2024-09-26_10h15.16.231,simplestop_skeleton,2022.2.2,59.6590504449324,
None,None,,,,,,,,,2,0,2,0,7,0,28,1,,,,,,,,,3389.9936344772577,go,squareblack.png,right,0.25,,,,,,,,,,,,,,,,,,0.001722864806652069,0.489718459546566,,3392.4959338083863,test,3,,,,,,,3390.0124731212854,3390.525675483048,3390.5089007019997,3390.5089007019997,3390.75932367146,3391.2598881945014,3391.5095710232854,3392.515319213271,right,1,0.5260292515158653,0.25,,,,,,,,,,,s037,001,2024-09-26_10h15.16.231,simplestop_skeleton,2022.2.2,59.6590504449324,
None,None,,,,,,,,,2,0,2,0,7,1,29,2,,,,,,,,,3392.496376171708,stop,circleblack.png,left,0.25,,,,,,,,,,,,,,,,,,0.0018563494086265564,0.4899597689509392,0.7397748157382011,3394.9990769028664,test,3,,,,,,,3392.515319213271,3393.028437450528,3393.0120103359222,3393.0120103359222,3393.2620984613895,3393.7626157850027,3394.0128361806273,3395.0182362645864,left,1,0.3609195947647095,0.2,,,,,,,,,,,s037,001,2024-09-26_10h15.16.231,simplestop_skeleton,2022.2.2,59.6590504449324,
None,None,,,,,,,,,2,0,2,0,7,2,30,2,,,,,,,,,3394.999520711601,go,squareblack.png,right,0.2,,,,,,,,,,,,,,,,,,0.001750841736793518,0.48947442322969437,,3397.501300036907,test,3,,,,,,,3395.0182362645864,3395.5312722325325,3395.514660872519,3395.514660872519,3395.7150399163365,3396.215329810977,3396.5151903778315,3397.5200918465853,right,1,0.4547630771994591,0.2,,,,,,,,,,,s037,001,2024-09-26_10h15.16.231,simplestop_skeleton,2022.2.2,59.6590504449324,
None,None,,,,,,,,,2,0,2,0,7,3,31,2,,,,,,,,,3397.501731403172,go,squareblack.png,right,0.2,,,,,,,,,,,,,,,,,,0.0011756643652915955,0.48972851037979126,,3400.004264973104,test,3,,,,,,,3397.5200918465853,3398.0339580774307,3398.0175404325128,3398.0175404325128,3398.217506185174,3398.7182189673185,3399.018177598715,3400.0229278430343,right,1,0.4693041816353798,0.2,,,,,,,,,,,s037,001,2024-09-26_10h15.16.231,simplestop_skeleton,2022.2.2,59.6590504449324,
None,None,,,,,,,,,2,0,2,0,8,0,32,2,,,,,,,,,3400.004709035158,stop,squareblack.png,right,0.2,,,,,,,,,,,,,,,,,,0.001288086175918579,0.4896635040640831,0.6901142448186874,3402.507016211748,test,3,,,,,,,3400.0229278430343,3400.5368319898844,3400.52003903687,3400.52003903687,3400.7203334644437,3401.2195935174823,3401.5205894857645,3402.5265768393874,right,1,0.3648081123828888,0.15,,,,,,,,,,,s037,001,2024-09-26_10h15.16.231,simplestop_skeleton,2022.2.2,59.6590504449324,
None,None,,,,,,,,,2,0,2,0,8,1,33,3,,,,,,,,,3402.5074618533254,go,circleblack.png,left,0.15,,,,,,,,,,,,,,,,,,0.002131529152393341,0.4895701929926872,,3405.009521380067,test,3,,,,,,,3402.5265768393874,3403.0394826084375,3403.0229098796844,3403.0229098796844,3403.173001624644,3403.6736242100596,3404.0234533771873,3405.0283030495048,left,1,0.4421370103955269,0.15,,,,,,,,,,,s037,001,2024-09-26_10h15.16.231,simplestop_skeleton,2022.2.2,59.6590504449324,
None,None,,,,,,,,,2,0,2,0,8,2,34,3,,,,,,,,,3405.009962335229,go,circleblack.png,left,0.15,,,,,,,,,,,,,,,,,,0.0012918561697006226,0.48968708515167236,,3407.51227799803,test,3,,,,,,,3405.0283030495048,3405.5422107875347,3405.5255867168307,3405.5255867168307,3405.6758429333568,3406.1762190312147,3406.526119120419,3407.5311071053147,left,1,0.4511156678199768,0.15,,,,,,,,,,,s037,001,2024-09-26_10h15.16.231,simplestop_skeleton,2022.2.2,59.6590504449324,
None,None,,,,,,,,,2,0,2,0,8,3,35,1,,,,,,,,,3407.5127179175615,go,circleblack.png,left,0.15,,,,,,,,,,,,,,,,,,0.0013574957847595215,0.4897330328822136,,3410.0153411254287,test,3,,,,,,,3407.5311071053147,3408.044927895069,3408.0282640755177,3408.0282640755177,3408.1786121577024,3408.679391734302,3409.028896525502,3410.034425534308,left,1,0.36190491169691086,0.15,,,,,,,,,,,s037,001,2024-09-26_10h15.16.231,simplestop_skeleton,2022.2.2,59.6590504449324,
None,None,,,,,,,,,2,0,2,0,9,0,36,2,,,,,,,,,3410.015774704516,go,squareblack.png,right,0.15,,,,,,,,,,,,,,,,,,0.0018017441034317017,0.489655964076519,,3412.51793807745,test,3,,,,,,,3410.034425534308,3410.5478085801005,3410.5312929302454,3410.5312929302454,3410.68150678277,3411.181917987764,3411.531805217266,3412.537623144686,right,1,0.41758303344249725,0.15,,,,,,,,,,,s037,001,2024-09-26_10h15.16.231,simplestop_skeleton,2022.2.2,59.6590504449324,
None,None,,,,,,,,,2,0,2,0,9,1,37,1,,,,,,,,,3412.5183776542544,go,circleblack.png,left,0.15,,,,,,,,,,,,,,,,,,0.001726105809211731,0.4898379221558571,,3415.020787589252,test,3,,,,,,,3412.537623144686,3413.050711862743,3413.0339035093784,3413.0339035093784,3413.183967359364,3413.683409847319,3414.0351080670953,3415.039372526109,left,1,0.4185189977288246,0.15,,,,,,,,,,,s037,001,2024-09-26_10h15.16.231,simplestop_skeleton,2022.2.2,59.6590504449324,
None,None,,,,,,,,,2,0,2,0,9,2,38,1,,,,,,,,,3415.021229632199,go,circleblack.png,left,0.15,,,,,,,,,,,,,,,,,,0.0012768656015396118,0.48980526626110077,,3417.5237658917904,test,3,,,,,,,3415.039372526109,3415.553329601884,3415.5367572531104,3415.5367572531104,3415.6870699599385,3416.1876701265574,3416.5373946130276,3417.5429317057133,left,1,0.39171112328767776,0.15,,,,,,,,,,,s037,001,2024-09-26_10h15.16.231,simplestop_skeleton,2022.2.2,59.6590504449324,
$currentCorrectResponse,$currentGoStim,,,,,,,,,2,0,2,0,9,3,39,0,,,,,,,,,3417.5242199227214,go,squareblack.png,right,0.15,,,,,,,,,,,,,,,,,,0.0017608553171157837,0.48931312561035156,,3420.026200249791,test,3,,,,,,,3417.5429317057133,3418.056117758155,3418.0399300679564,3418.0399300679564,3418.1896558254957,3418.6901115700603,3419.0406011641026,3420.0449601635337,None,0,,0.15,,,,,,,,,,,s037,001,2024-09-26_10h15.16.231,simplestop_skeleton,2022.2.2,59.6590504449324,
None,None,,,,,,,,,2,0,2,0,10,0,40,1,,,,,,,,,3420.02663898468,go,squareblack.png,right,0.15,,,,,,,,,,,,,,,,,,0.001303248107433319,0.4898126944899559,,3422.529215492308,test,3,,,,,,,3420.0449601635337,3420.55884231627,3420.542595475912,3420.542595475912,3420.692352168262,3421.192956201732,3421.5432594791055,3422.5487016290426,None,0,,0.15,,,,,,,,,,,s037,001,2024-09-26_10h15.16.231,simplestop_skeleton,2022.2.2,59.6590504449324,
None,None,,,,,,,,,2,0,2,0,10,1,41,1,,,,,,,,,3422.529648385942,go,circleblack.png,left,0.15,,,,,,,,,,,,,,,,,,0.0019668638706207275,0.48954009264707565,,3425.0314921289682,test,3,,,,,,,3422.5487016290426,3423.0616681799293,3423.044949106872,3423.044949106872,3423.195120573044,3423.695965848863,3424.0463074445724,3425.050600372255,left,1,0.4144110754132271,0.15,,,,,,,,,,,s037,001,2024-09-26_10h15.16.231,simplestop_skeleton,2022.2.2,59.6590504449324,
None,None,,,,,,,,,2,0,2,0,10,2,42,3,,,,,,,,,3425.03194154799,go,squareblack.png,right,0.15,,,,,,,,,,,,,,,,,,0.0016693994402885437,0.48976729065179825,,3427.5344714298844,test,3,,,,,,,3425.050600372255,3425.5642314702272,3425.547523960471,3425.547523960471,3425.697856463492,3426.1982261016965,3426.5481782779098,3427.553704023361,right,1,0.42354028671979904,0.15,,,,,,,,,,,s037,001,2024-09-26_10h15.16.231,simplestop_skeleton,2022.2.2,59.6590504449324,
None,None,,,,,,,,,2,0,2,0,10,3,43,2,,,,,,,,,3427.534915663302,stop,circleblack.png,left,0.15,,,,,,,,,,,,,,,,,,0.0018590018153190613,0.48961291462183,0.6396861523389816,3430.0376444607973,test,3,,,,,,,3427.553704023361,3428.067080654204,3428.0502517819405,3428.0502517819405,3428.200497955084,3428.7010092809796,3429.051334410906,3430.057229347527,right,0,1.812638282775879,0.1,,,,,,,,,,,s037,001,2024-09-26_10h15.16.231,simplestop_skeleton,2022.2.2,59.6590504449324,
None,None,,,,,,,,,2,0,2,0,11,0,44,1,,,,,,,,,3430.038099333644,stop,squareblack.png,right,0.1,,,,,,,,,,,,,,,,,,0.00241687148809433,0.4886210486292839,0.5885360613465309,3432.540858924389,test,3,,,,,,,3430.057229347527,3430.5698417797685,3430.5526864379644,3430.5526864379644,3430.6527280807495,3431.153939694166,3431.554242119193,3432.5604311823845,None,0,,0.15,,,,,,,,,,,s037,001,2024-09-26_10h15.16.231,simplestop_skeleton,2022.2.2,59.6590504449324,
$currentCorrectResponse,$currentGoStim,,,,,,,,,2,0,2,0,11,1,45,0,,,,,,,,,3432.541374273598,stop,circleblack.png,left,0.15,,,,,,,,,,,,,,,,,,0.0024646371603012085,0.48949119448661804,0.6391233801841736,3435.044064722955,test,3,,,,,,,3432.5604311823845,3433.072613917291,3433.0561693683267,3433.0561693683267,3433.206559434533,3433.7249404117465,3434.056725487113,3435.0638423636556,None,0,,0.2,,,,,,,,,,,s037,001,2024-09-26_10h15.16.231,simplestop_skeleton,2022.2.2,59.6590504449324,
$currentCorrectResponse,$currentGoStim,,,,,,,,,2,0,2,0,11,2,46,0,,,,,,,,,3435.044511139393,go,circleblack.png,left,0.2,,,,,,,,,,,,,,,,,,0.0019063055515289307,0.48904048651456833,,3437.545769840479,test,3,,,,,,,3435.0638423636556,3435.575262352824,3435.5587056726217,3435.5587056726217,3435.759173296392,3436.2594031244516,3436.55977794528,3437.564668111503,left,1,0.4417818635702133,0.2,,,,,,,,,,,s037,001,2024-09-26_10h15.16.231,simplestop_skeleton,2022.2.2,59.6590504449324,
None,None,,,,,,,,,2,0,2,0,11,3,47,3,,,,,,,,,3437.5462133064866,stop,squareblack.png,right,0.2,,,,,,,,,,,,,,,,,,0.0016973987221717834,0.4885202869772911,0.689398281276226,3440.048330910504,test,3,,,,,,,3437.564668111503,3438.0790155529976,3438.0602107420564,3438.0602107420564,3438.2614213377237,3438.7625140845776,3439.0627068653703,3440.064070008695,right,1,0.3398446589708328,0.15,,,,,,,,,,,s037,001,2024-09-26_10h15.16.231,simplestop_skeleton,2022.2.2,59.6590504449324,
