corrGoResp,shape,practiceBlocks.thisRepN,practiceBlocks.thisTrialN,practiceBlocks.thisN,practiceBlocks.thisIndex,practiceTrials.thisRepN,practiceTrials.thisTrialN,practiceTrials.thisN,practiceTrials.thisIndex,stopBlocks.thisRepN,stopBlocks.thisTrialN,stopBlocks.thisN,stopBlocks.thisIndex,testTrials.thisRepN,testTrials.thisTrialN,testTrials.thisN,testTrials.thisIndex,stopPracTrialList,Test Block: 1,welcome.started,start_exp.started,start_exp.keys,start_exp.rt,instrStopText.started,start_prac.started,StartTrialTimeStamp,trialType,goStim,correctResponse,ssd,fixation.started,rules.started,goStim.started,goResp.started,fixation.stopped,stopSignal.started,stopSignal.stopped,goStim.stopped,goResp.stopped,rules.stopped,goResp.keys,goResp.corr,text.started,rules_2.started,fixationOnset,goStimOnset,stopSignalOnset,EndTrialTimeStamp,Phase,Block,goResp.rt,text.stopped,rules_2.stopped,text_5.started,key_resp_3.started,key_resp_3.keys,key_resp_3.rt,key_resp.started,testText.started,test_fixation.started,goStim_test.started,goResp_test.started,test_fixation.stopped,stopSignal_test.started,stopSignal_test.stopped,goStim_test.stopped,goResp_test.stopped,goResp_test.keys,goResp_test.corr,goResp_test.rt,EndingSSD,text_6.started,key_resp_4.started,key_resp_4.keys,key_resp_4.rt,Test Block: 2,Test Block: 3,ending_text.started,end_resp.started,end_resp.keys,end_resp.rt,participant,session,date,expName,psychopyVersion,frameRate,
,,,,,,,,,,,,,,,,,,"[{'fileName': 'squareblack.png', 'correct_response': 'right', 'condition': 'go'}, {'fileName': 'squareblack.png', 'correct_response': 'right', 'condition': 'go'}, {'fileName': 'squareblack.png', 'correct_response': 'right', 'condition': 'stop'}, {'fileName': 'squareblack.png', 'correct_response': 'right', 'condition': 'go'}, {'fileName': 'circleblack.png', 'correct_response': 'left', 'condition': 'go'}, {'fileName': 'circleblack.png', 'correct_response': 'left', 'condition': 'stop'}, {'fileName': 'circleblack.png', 'correct_response': 'left', 'condition': 'go'}, {'fileName': 'circleblack.png', 'correct_response': 'left', 'condition': 'go'}, {'fileName': 'circleblack.png', 'correct_response': 'left', 'condition': 'stop'}, {'fileName': 'circleblack.png', 'correct_response': 'left', 'condition': 'go'}, {'fileName': 'squareblack.png', 'correct_response': 'right', 'condition': 'go'}, {'fileName': 'squareblack.png', 'correct_response': 'right', 'condition': 'stop'}, {'fileName': 'squareblack.png', 'correct_response': 'right', 'condition': 'stop'}, {'fileName': 'circleblack.png', 'correct_response': 'left', 'condition': 'go'}, {'fileName': 'circleblack.png', 'correct_response': 'left', 'condition': 'go'}, {'fileName': 'squareblack.png', 'correct_response': 'right', 'condition': 'go'}, {'fileName': 'squareblack.png', 'correct_response': 'right', 'condition': 'stop'}, {'fileName': 'circleblack.png', 'correct_response': 'left', 'condition': 'go'}, {'fileName': 'squareblack.png', 'correct_response': 'right', 'condition': 'go'}, {'fileName': 'squareblack.png', 'correct_response': 'right', 'condition': 'go'}, {'fileName': 'circleblack.png', 'correct_response': 'left', 'condition': 'stop'}, {'fileName': 'circleblack.png', 'correct_response': 'left', 'condition': 'go'}, {'fileName': 'squareblack.png', 'correct_response': 'right', 'condition': 'go'}, {'fileName': 'circleblack.png', 'correct_response': 'left', 'condition': 'stop'}]","[{'fileName': 'circleblack.png', 'correct_response': 'left', 'condition': 'go'}, {'fileName': 'squareblack.png', 'correct_response': 'right', 'condition': 'go'}, {'fileName': 'circleblack.png', 'correct_response': 'left', 'condition': 'stop'}, {'fileName': 'circleblack.png', 'correct_response': 'left', 'condition': 'go'}, {'fileName': 'circleblack.png', 'correct_response': 'left', 'condition': 'go'}, {'fileName': 'circleblack.png', 'correct_response': 'left', 'condition': 'stop'}, {'fileName': 'squareblack.png', 'correct_response': 'right', 'condition': 'go'}, {'fileName': 'squareblack.png', 'correct_response': 'right', 'condition': 'go'}, {'fileName': 'squareblack.png', 'correct_response': 'right', 'condition': 'go'}, {'fileName': 'circleblack.png', 'correct_response': 'left', 'condition': 'go'}, {'fileName': 'squareblack.png', 'correct_response': 'right', 'condition': 'stop'}, {'fileName': 'squareblack.png', 'correct_response': 'right', 'condition': 'stop'}, {'fileName': 'circleblack.png', 'correct_response': 'left', 'condition': 'stop'}, {'fileName': 'squareblack.png', 'correct_response': 'right', 'condition': 'go'}, {'fileName': 'squareblack.png', 'correct_response': 'right', 'condition': 'stop'}, {'fileName': 'circleblack.png', 'correct_response': 'left', 'condition': 'go'}, {'fileName': 'squareblack.png', 'correct_response': 'right', 'condition': 'go'}, {'fileName': 'circleblack.png', 'correct_response': 'left', 'condition': 'go'}, {'fileName': 'squareblack.png', 'correct_response': 'right', 'condition': 'go'}, {'fileName': 'circleblack.png', 'correct_response': 'left', 'condition': 'go'}, {'fileName': 'squareblack.png', 'correct_response': 'right', 'condition': 'go'}, {'fileName': 'circleblack.png', 'correct_response': 'left', 'condition': 'go'}, {'fileName': 'circleblack.png', 'correct_response': 'left', 'condition': 'stop'}, {'fileName': 'squareblack.png', 'correct_response': 'right', 'condition': 'stop'}, {'fileName': 'circleblack.png', 'correct_response': 'left', 'condition': 'go'}, {'fileName': 'squareblack.png', 'correct_response': 'right', 'condition': 'go'}, {'fileName': 'circleblack.png', 'correct_response': 'left', 'condition': 'go'}, {'fileName': 'squareblack.png', 'correct_response': 'right', 'condition': 'go'}, {'fileName': 'circleblack.png', 'correct_response': 'left', 'condition': 'stop'}, {'fileName': 'squareblack.png', 'correct_response': 'right', 'condition': 'go'}, {'fileName': 'squareblack.png', 'correct_response': 'right', 'condition': 'go'}, {'fileName': 'circleblack.png', 'correct_response': 'left', 'condition': 'stop'}, {'fileName': 'squareblack.png', 'correct_response': 'right', 'condition': 'stop'}, {'fileName': 'circleblack.png', 'correct_response': 'left', 'condition': 'go'}, {'fileName': 'circleblack.png', 'correct_response': 'left', 'condition': 'go'}, {'fileName': 'squareblack.png', 'correct_response': 'right', 'condition': 'stop'}, {'fileName': 'squareblack.png', 'correct_response': 'right', 'condition': 'go'}, {'fileName': 'squareblack.png', 'correct_response': 'right', 'condition': 'go'}, {'fileName': 'squareblack.png', 'correct_response': 'right', 'condition': 'stop'}, {'fileName': 'circleblack.png', 'correct_response': 'left', 'condition': 'go'}, {'fileName': 'circleblack.png', 'correct_response': 'left', 'condition': 'go'}, {'fileName': 'squareblack.png', 'correct_response': 'right', 'condition': 'stop'}, {'fileName': 'circleblack.png', 'correct_response': 'left', 'condition': 'stop'}, {'fileName': 'circleblack.png', 'correct_response': 'left', 'condition': 'go'}, {'fileName': 'squareblack.png', 'correct_response': 'right', 'condition': 'go'}, {'fileName': 'circleblack.png', 'correct_response': 'left', 'condition': 'go'}, {'fileName': 'circleblack.png', 'correct_response': 'left', 'condition': 'stop'}, {'fileName': 'squareblack.png', 'correct_response': 'right', 'condition': 'go'}]",1518.8041626662016,1518.8041626662016,return,10.858610145747662,,,,,,,,,,,,,,,,,,,,,,,,,,,,,,,,,,,,,,,,,,,,,,,,,,,,,,,,,,,s036,001,2024-09-24_13h02.33.071,simplestop_skeleton,2022.2.2,59.936756764601796,
$currentCorrectResponse,$currentGoStim,0,0,0,0,0,0,0,0,,,,,,,,,,,,,,,1529.7041796073318,1529.7041796073318,1585.081357076764,go,squareblack.png,right,0.35,1585.104488067329,1585.104488067329,1585.6028595641255,1585.6028595641255,1585.6159408316016,1585.9498054608703,1586.4501228183508,1586.6169208735228,1587.6206316128373,1587.6206316128373,None,0,1587.6206316128373,1587.6206316128373,0.002915620803833008,0.4912746697664261,0.8417944982647896,1588.1030542775989,practice,1,,,,,,,,,,,,,,,,,,,,,,,,,,,,,,,,s036,001,2024-09-24_13h02.33.071,simplestop_skeleton,2022.2.2,59.936756764601796,
None,None,0,0,0,0,0,1,1,1,,,,,,,,,,,,,,,,,1588.1035859510303,go,squareblack.png,right,0.35,1588.122430883348,1588.122430883348,1588.6191883161664,1588.6191883161664,1588.635805927217,1588.9697109684348,1589.4688140749931,1589.6191645562649,1590.6199141815305,1590.6367333754897,right,1,1590.6367333754897,1590.6367333754897,0.0011705830693244934,0.48959892988204956,0.8405973613262177,1591.1218873783946,practice,1,0.24105964601039886,,,,,,,,,,,,,,,,,,,,,,,,,,,,,,,s036,001,2024-09-24_13h02.33.071,simplestop_skeleton,2022.2.2,59.936756764601796,
None,None,0,0,0,0,0,2,2,1,,,,,,,,,,,,,,,,,1591.1223202124238,stop,squareblack.png,right,0.35,1591.1395636200905,1591.1395636200905,1591.6396283954382,1591.6396283954382,1591.6396283954382,1591.9882399886847,1592.4885913357139,1592.6387721523643,1593.6411258652806,1593.6411258652806,right,1,1593.6411258652806,1593.6411258652806,0.00121210515499115,0.49134862422943115,0.8398576229810715,1594.1250910013914,practice,1,0.4283495172858238,1594.1437091231346,1594.1437091231346,,,,,,,,,,,,,,,,,,,,,,,,,,,,,s036,001,2024-09-24_13h02.33.071,simplestop_skeleton,2022.2.2,59.936756764601796,
None,None,0,0,0,0,0,3,3,2,,,,,,,,,,,,,,,,,1594.1255353838205,go,squareblack.png,right,0.3,1594.1437091231346,1594.1437091231346,1594.6410744190216,1594.6410744190216,1594.6576614305377,1594.9412577673793,1595.4418224692345,1595.6421366631985,1596.6435433328152,1596.6435433328152,right,1,1596.6435433328152,1596.6435433328152,0.0013384446501731873,0.4891951084136963,0.7893799021840096,1597.128145210445,practice,1,0.5792009830474854,1597.1468510776758,1597.1468510776758,,,,,,,,,,,,,,,,,,,,,,,,,,,,,s036,001,2024-09-24_13h02.33.071,simplestop_skeleton,2022.2.2,59.936756764601796,
None,None,0,0,0,0,1,0,4,3,,,,,,,,,,,,,,,,,1597.1285742670298,go,circleblack.png,left,0.3,1597.1468510776758,1597.1468510776758,1597.644902035594,1597.644902035594,1597.661342896521,1597.9458953738213,1598.4453761726618,1598.64576138556,1599.6464840993285,1599.6464840993285,None,0,1599.6464840993285,1599.6464840993285,0.002494342625141144,0.48999784141778946,0.7912810817360878,1600.1322645694017,practice,1,,,,,,,,,,,,,,,,,,,,,,,,,,,,,,,,s036,001,2024-09-24_13h02.33.071,simplestop_skeleton,2022.2.2,59.936756764601796,
None,None,0,0,0,0,1,1,5,3,,,,,,,,,,,,,,,,,1600.1328111439943,stop,circleblack.png,left,0.3,1600.1530194208026,1600.1530194208026,1600.6478789150715,1600.6478789150715,1600.6645880043507,1600.9483102858067,1601.4486522600055,1601.6487668901682,1602.6518383175135,1602.6667093336582,None,0,1602.6667093336582,1602.6667093336582,0.0022380277514457703,0.48755480349063873,0.7879989221692085,1603.1517715007067,practice,1,,1603.170515857637,1603.170515857637,,,,,,,,,,,,,,,,,,,,,,,,,,,,,s036,001,2024-09-24_13h02.33.071,simplestop_skeleton,2022.2.2,59.936756764601796,
$currentCorrectResponse,$currentGoStim,0,0,0,0,1,2,6,0,,,,,,,,,,,,,,,,,1603.152205735445,go,circleblack.png,left,0.35,1603.170515857637,1603.170515857637,1603.6675997376442,1603.6675997376442,1603.6843709871173,1604.0180417448282,1604.5188780650496,1604.6689077466726,1605.6699132993817,1605.6699132993817,left,1,1605.6699132993817,1605.6699132993817,0.001327410340309143,0.48901861160993576,0.839568056166172,1606.154739536345,practice,1,0.36458514630794525,1606.1722866892815,1606.1722866892815,,,,,,,,,,,,,,,,,,,,,,,,,,,,,s036,001,2024-09-24_13h02.33.071,simplestop_skeleton,2022.2.2,59.936756764601796,
$currentCorrectResponse,$currentGoStim,0,0,0,0,1,3,7,0,,,,,,,,,,,,,,,,,1606.1551953330636,go,circleblack.png,left,0.35,1606.1722866892815,1606.1722866892815,1606.6709949597716,1606.6709949597716,1606.6877102851868,1607.02147346735,1607.521965250373,1607.6720100268722,1608.6740865409374,1608.6740865409374,left,1,1608.6740865409374,1608.6740865409374,0.001233026385307312,0.48975931107997894,0.8402410298585892,1609.158276617527,practice,1,0.3711227923631668,1609.1766812875867,1609.1766812875867,,,,,,,,,,,,,,,,,,,,,,,,,,,,,s036,001,2024-09-24_13h02.33.071,simplestop_skeleton,2022.2.2,59.936756764601796,
$currentCorrectResponse,$currentGoStim,0,0,0,0,2,0,8,0,,,,,,,,,,,,,,,,,1609.1587413027883,stop,circleblack.png,left,0.35,1609.1766812875867,1609.1766812875867,1609.6743001192808,1609.6743001192808,1609.6743001192808,1610.024643652141,1610.5254579260945,1610.6754463613033,1611.6764855086803,1611.6764855086803,left,1,1611.6764855086803,1611.6764855086803,0.0013501718640327454,0.49446938186883926,0.8396657481789589,1612.1612329035997,practice,1,0.4888662025332451,1612.178547129035,1612.178547129035,,,,,,,,,,,,,,,,,,,,,,,,,,,,,s036,001,2024-09-24_13h02.33.071,simplestop_skeleton,2022.2.2,59.936756764601796,
None,None,0,0,0,0,2,1,9,3,,,,,,,,,,,,,,,,,1612.161653921008,go,circleblack.png,left,0.3,1612.178547129035,1612.178547129035,1612.6775712743402,1612.6775712743402,1612.6941965296865,1612.9780990108848,1613.4786277785897,1613.6788680776954,1614.6801881566644,1614.6801881566644,left,1,1614.6801881566644,1614.6801881566644,0.0012367665767669678,0.48998933285474777,0.7904873341321945,1615.1662177816033,practice,1,0.8152444660663605,,,,,,,,,,,,,,,,,,,,,,,,,,,,,,,s036,001,2024-09-24_13h02.33.071,simplestop_skeleton,2022.2.2,59.936756764601796,
None,None,0,0,0,0,2,2,10,2,,,,,,,,,,,,,,,,,1615.166680507362,go,squareblack.png,right,0.3,1615.1923320442438,1615.1923320442438,1615.6810704022646,1615.6810704022646,1615.6976898908615,1615.9812950268388,1616.4818614795804,1616.6819080114365,1617.6832351014018,1617.7000305652618,right,1,1617.7000305652618,1617.7000305652618,0.007176607847213745,0.4878264516592026,0.7879604399204254,1618.1847482696176,practice,1,0.5412461161613464,1618.2020998895168,1618.2020998895168,,,,,,,,,,,,,,,,,,,,,,,,,,,,,s036,001,2024-09-24_13h02.33.071,simplestop_skeleton,2022.2.2,59.936756764601796,
None,None,0,0,0,0,2,3,11,2,,,,,,,,,,,,,,,,,1618.1852019429207,stop,squareblack.png,right,0.3,1618.2020998895168,1618.2020998895168,1618.7008835747838,1618.7008835747838,1618.7178555354476,1619.0016413107514,1619.5019203871489,1619.7022814825177,1620.7030923441052,1620.7030923441052,right,1,1620.7030923441052,1620.7030923441052,0.001170143485069275,0.4899936839938164,0.7901998162269592,1621.1879863366485,practice,1,0.4952746033668518,1621.2193537801504,1621.2193537801504,,,,,,,,,,,,,,,,,,,,,,,,,,,,,s036,001,2024-09-24_13h02.33.071,simplestop_skeleton,2022.2.2,59.936756764601796,
None,None,0,0,0,0,3,0,12,1,,,,,,,,,,,,,,,,,1621.1884011179209,stop,squareblack.png,right,0.25,1621.2193537801504,1621.2193537801504,1621.7048141434789,1621.7048141434789,1621.7215481474996,1621.9547269940376,1622.455144122243,1622.7052381113172,1623.7084290385246,1623.7249547168612,None,0,1623.7249547168612,1623.7249547168612,0.0012007355690002441,0.49050772190093994,0.740350253880024,1624.2248064801097,practice,1,,,,,,,,,,,,,,,,,,,,,,,,,,,,,,,,s036,001,2024-09-24_13h02.33.071,simplestop_skeleton,2022.2.2,59.936756764601796,
$currentCorrectResponse,$currentGoStim,0,0,0,0,3,1,13,0,,,,,,,,,,,,,,,,,1624.2252886518836,go,circleblack.png,left,0.3,1624.2447529435158,1624.2447529435158,1624.7408860847354,1624.7408860847354,1624.75755892694,1625.0412374660373,1625.5417884737253,1625.742670327425,1626.7433200925589,1626.759800761938,left,1,1626.759800761938,1626.759800761938,0.0029339566826820374,0.4892498627305031,0.7894474416971207,1627.2446166425943,practice,1,0.47750603407621384,1627.2621029391885,1627.2621029391885,,,,,,,,,,,,,,,,,,,,,,,,,,,,,s036,001,2024-09-24_13h02.33.071,simplestop_skeleton,2022.2.2,59.936756764601796,
None,None,0,0,0,0,3,2,14,2,,,,,,,,,,,,,,,,,1627.2450343072414,go,circleblack.png,left,0.3,1627.2621029391885,1627.2621029391885,1627.7609661892056,1627.7609661892056,1627.7775639817119,1628.0623957589269,1628.5620676577091,1628.762544117868,1629.7633283808827,1629.7633283808827,left,1,1629.7633283808827,1629.7633283808827,0.0012527033686637878,0.48990587890148163,0.7917193323373795,1630.2483713179827,practice,1,0.6573282480239868,1630.2655366361141,1630.2655366361141,,,,,,,,,,,,,,,,,,,,,,,,,,,,,s036,001,2024-09-24_13h02.33.071,simplestop_skeleton,2022.2.2,59.936756764601796,
None,None,0,0,0,0,3,3,15,1,,,,,,,,,,,,,,,,,1630.2488191053271,go,squareblack.png,right,0.3,1630.2655366361141,1630.2655366361141,1630.7646097540855,1630.7646097540855,1630.7646097540855,1631.0647403150797,1631.56511361897,1631.7654519602656,1632.7664360255003,1632.7664360255003,right,1,1632.7664360255003,1632.7664360255003,0.0016727596521377563,0.489982470870018,0.7901629358530045,1633.2516655921936,practice,1,0.6257743760943413,1633.26985476166,1633.26985476166,,,,,,,,,,,,,,,,,,,,,,,,,,,,,s036,001,2024-09-24_13h02.33.071,simplestop_skeleton,2022.2.2,59.936756764601796,
None,None,0,0,0,0,4,0,16,3,,,,,,,,,,,,,,,,,1633.2521443888545,stop,squareblack.png,right,0.3,1633.26985476166,1633.26985476166,1633.7675731480122,1633.7675731480122,1633.7841831818223,1634.06788418442,1634.5684556737542,1634.7687616795301,1635.7698664441705,1635.7698664441705,None,0,1635.7698664441705,1635.7698664441705,0.0012684762477874756,0.48908377438783646,0.7897317782044411,1636.2545673027635,practice,1,,1636.2726627066731,1636.2726627066731,,,,,,,,,,,,,,,,,,,,,,,,,,,,,s036,001,2024-09-24_13h02.33.071,simplestop_skeleton,2022.2.2,59.936756764601796,
None,None,0,0,0,0,4,1,17,1,,,,,,,,,,,,,,,,,1636.2549880817533,go,circleblack.png,left,0.35,1636.2726627066731,1636.2726627066731,1636.7707895860076,1636.7707895860076,1636.7875662595034,1637.1212578639388,1637.6219024956226,1637.7721779048443,1638.7731202617288,1638.7731202617288,left,1,1638.7731202617288,1638.7731202617288,0.001802004873752594,0.490011066198349,0.8404660299420357,1639.2592591270804,practice,1,0.6644279882311821,,,,,,,,,,,,,,,,,,,,,,,,,,,,,,,s036,001,2024-09-24_13h02.33.071,simplestop_skeleton,2022.2.2,59.936756764601796,
None,None,0,0,0,0,4,2,18,2,,,,,,,,,,,,,,,,,1639.2599382326007,go,squareblack.png,right,0.35,1639.2802559062839,1639.2802559062839,1639.7743672132492,1639.7743672132492,1639.791009105742,1640.1247456669807,1640.6250428557396,1640.7756341397762,1641.7781473323703,1641.7948818057775,right,1,1641.7948818057775,1641.7948818057775,0.0026112794876098633,0.4872119724750519,0.8377058133482933,1642.2945173159242,practice,1,0.579567052423954,,,,,,,,,,,,,,,,,,,,,,,,,,,,,,,s036,001,2024-09-24_13h02.33.071,simplestop_skeleton,2022.2.2,59.936756764601796,
None,None,0,0,0,0,4,3,19,3,,,,,,,,,,,,,,,,,1642.2949986681342,go,squareblack.png,right,0.35,1642.312801927328,1642.312801927328,1642.8109230473638,1642.8109230473638,1642.8275816887617,1643.1613157838583,1643.6617203950882,1643.8120848760009,1644.813158608973,1644.813158608973,right,1,1644.813158608973,1644.813158608973,0.001255035400390625,0.48967263847589493,0.8400058820843697,1645.297933280468,practice,1,0.5919082760810852,1645.315898001194,1645.315898001194,,,,,,,,,,,,,,,,,,,,,,,,,,,,,s036,001,2024-09-24_13h02.33.071,simplestop_skeleton,2022.2.2,59.936756764601796,
None,None,0,0,0,0,5,0,20,1,,,,,,,,,,,,,,,,,1645.298388876021,stop,circleblack.png,left,0.35,1645.315898001194,1645.315898001194,1645.8150954917073,1645.8150954917073,1645.8313459977508,1646.1647055745125,1646.6653242632747,1646.8154065534472,1647.8173113167286,1647.8173113167286,left,1,1647.8173113167286,1647.8173113167286,0.0018518716096878052,0.4898325875401497,0.8403940871357918,1648.301368676126,practice,1,0.43143486231565475,1648.3196052387357,1648.3196052387357,,,,,,,,,,,,,,,,,,,,,,,,,,,,,s036,001,2024-09-24_13h02.33.071,simplestop_skeleton,2022.2.2,59.936756764601796,
$currentCorrectResponse,$currentGoStim,0,0,0,0,5,1,21,0,,,,,,,,,,,,,,,,,1648.3019531220198,go,circleblack.png,left,0.3,1648.3196052387357,1648.3196052387357,1648.8176483213902,1648.8176483213902,1648.8346225321293,1649.1177459210157,1649.61834936589,1649.8189808353782,1650.8198641389608,1650.8198641389608,left,1,1650.8198641389608,1650.8198641389608,0.0013129562139511108,0.4894934296607971,0.78974349796772,1651.304567977786,practice,1,0.5295835211873055,1651.3225481957197,1651.3225481957197,,,,,,,,,,,,,,,,,,,,,,,,,,,,,s036,001,2024-09-24_13h02.33.071,simplestop_skeleton,2022.2.2,59.936756764601796,
None,None,0,0,0,0,5,2,22,2,,,,,,,,,,,,,,,,,1651.3050287142396,go,squareblack.png,right,0.3,1651.3225481957197,1651.3225481957197,1651.8207627087831,1651.8207627087831,1651.8375379219651,1652.121123984456,1652.621851541102,1652.822058238089,1653.8230316713452,1653.8230316713452,right,1,1653.8230316713452,1653.8230316713452,0.0017026737332344055,0.48975612223148346,0.7901323139667511,1654.3078593462706,practice,1,0.5594228133559227,1654.3256137892604,1654.3256137892604,,,,,,,,,,,,,,,,,,,,,,,,,,,,,s036,001,2024-09-24_13h02.33.071,simplestop_skeleton,2022.2.2,59.936756764601796,
None,None,0,0,0,0,5,3,23,3,,,,,,,,,,,,,,,,,1654.3082760199904,stop,circleblack.png,left,0.3,1654.3256137892604,1654.3256137892604,1654.8242556899786,1654.8242556899786,1654.8410012573004,1655.12452942878,1655.6249396204948,1655.8250708729029,1656.8281989470124,1656.8281989470124,None,0,1656.8281989470124,1656.8281989470124,0.0017420127987861633,0.4901650920510292,0.7905735075473785,1657.327949129045,practice,1,,,,,,,,,,,,,,,,,,,,,,,,,,,,,,,,s036,001,2024-09-24_13h02.33.071,simplestop_skeleton,2022.2.2,59.936756764601796,
,,0,0,0,0,,,,,,,,,,,,,"[{'fileName': 'circleblack.png', 'correct_response': 'left', 'condition': 'go'}, {'fileName': 'squareblack.png', 'correct_response': 'right', 'condition': 'go'}, {'fileName': 'squareblack.png', 'correct_response': 'right', 'condition': 'stop'}, {'fileName': 'circleblack.png', 'correct_response': 'left', 'condition': 'go'}, {'fileName': 'squareblack.png', 'correct_response': 'right', 'condition': 'go'}, {'fileName': 'squareblack.png', 'correct_response': 'right', 'condition': 'go'}, {'fileName': 'circleblack.png', 'correct_response': 'left', 'condition': 'stop'}, {'fileName': 'circleblack.png', 'correct_response': 'left', 'condition': 'go'}, {'fileName': 'squareblack.png', 'correct_response': 'right', 'condition': 'go'}, {'fileName': 'circleblack.png', 'correct_response': 'left', 'condition': 'stop'}, {'fileName': 'circleblack.png', 'correct_response': 'left', 'condition': 'go'}, {'fileName': 'squareblack.png', 'correct_response': 'right', 'condition': 'stop'}, {'fileName': 'circleblack.png', 'correct_response': 'left', 'condition': 'go'}, {'fileName': 'circleblack.png', 'correct_response': 'left', 'condition': 'go'}, {'fileName': 'squareblack.png', 'correct_response': 'right', 'condition': 'go'}, {'fileName': 'circleblack.png', 'correct_response': 'left', 'condition': 'go'}, {'fileName': 'squareblack.png', 'correct_response': 'right', 'condition': 'go'}, {'fileName': 'squareblack.png', 'correct_response': 'right', 'condition': 'go'}, {'fileName': 'squareblack.png', 'correct_response': 'right', 'condition': 'stop'}, {'fileName': 'squareblack.png', 'correct_response': 'right', 'condition': 'stop'}, {'fileName': 'circleblack.png', 'correct_response': 'left', 'condition': 'stop'}, {'fileName': 'circleblack.png', 'correct_response': 'left', 'condition': 'go'}, {'fileName': 'circleblack.png', 'correct_response': 'left', 'condition': 'stop'}, {'fileName': 'squareblack.png', 'correct_response': 'right', 'condition': 'go'}]",,,,,,,,,,,,,,,,,,,,,,,,,,,,,,,,,,,,1657.3459037691355,1657.3459037691355,return,2.4009454026818275,,,,,,,,,,,,,,,,,,,,,,,,,s036,001,2024-09-24_13h02.33.071,simplestop_skeleton,2022.2.2,59.936756764601796,
None,None,,,,,,,,,0,0,0,0,0,0,0,2,,,,,,,,,1675.0826586037874,go,circleblack.png,left,0.35,,,,,,,,,,,,,,,0.0031770989298820496,0.48927681148052216,,1677.5853665694594,test,1,,,,,,,,1659.7795422524214,1659.7795422524214,1675.1045861765742,1675.5982178375125,1675.5982178375125,1675.6153040975332,1675.9487881958485,1676.44936054945,1676.5997192934155,1677.6055636927485,left,1,0.6062988266348839,0.35,,,,,,,,,,,s036,001,2024-09-24_13h02.33.071,simplestop_skeleton,2022.2.2,59.936756764601796,
None,None,,,,,,,,,0,0,0,0,0,1,1,3,,,,,,,,,1677.5859169736505,go,squareblack.png,right,0.35,,,,,,,,,,,,,,,0.0029914826154708862,0.4894290715456009,,1680.0866657868028,test,1,,,,,,,,,,1677.6055636927485,1678.101250320673,1678.101250320673,1678.1179296299815,1678.4521607458591,1678.951605066657,1679.1011535450816,1680.104054376483,right,1,0.31120409071445465,0.35,,,,,,,,,,,s036,001,2024-09-24_13h02.33.071,simplestop_skeleton,2022.2.2,59.936756764601796,
None,None,,,,,,,,,0,0,0,0,0,2,2,1,,,,,,,,,1680.0871211513877,stop,circleblack.png,left,0.35,,,,,,,,,,,,,,,0.0017701834440231323,0.48949629068374634,0.8398864194750786,1682.589464738965,test,1,,,,,,,,,,1680.104054376483,1680.6025872528553,1680.6025872528553,1680.6192529052496,1680.9530060216784,1681.453788742423,1681.6037514284253,1682.6062432974577,left,1,0.5789009407162666,0.3,,,,,,,,,,,s036,001,2024-09-24_13h02.33.071,simplestop_skeleton,2022.2.2,59.936756764601796,
None,None,,,,,,,,,0,0,0,0,0,3,3,3,,,,,,,,,1682.5899163037539,go,circleblack.png,left,0.3,,,,,,,,,,,,,,,0.001250140368938446,0.4913739636540413,,1685.0922106429935,test,1,,,,,,,,,,1682.6062432974577,1683.106238797307,1683.106238797307,1683.106238797307,1683.4073246121407,1683.9063723236322,1684.1065543815494,1685.123228698969,left,1,0.5030333697795868,0.3,,,,,,,,,,,s036,001,2024-09-24_13h02.33.071,simplestop_skeleton,2022.2.2,59.936756764601796,
None,None,,,,,,,,,0,0,0,0,1,0,4,3,,,,,,,,,1685.092657878995,go,circleblack.png,left,0.3,,,,,,,,,,,,,,,0.0012338384985923767,0.4909168854355812,,1687.5946536362171,test,1,,,,,,,,,,1685.123228698969,1685.609355404973,1685.609355404973,1685.6267278119922,1685.9084629416466,1686.409344226122,1686.6090599372983,1687.6116689667106,left,1,0.6482277140021324,0.3,,,,,,,,,,,s036,001,2024-09-24_13h02.33.071,simplestop_skeleton,2022.2.2,59.936756764601796,
None,None,,,,,,,,,0,0,0,0,1,1,5,1,,,,,,,,,1687.595107793808,stop,circleblack.png,left,0.3,,,,,,,,,,,,,,,0.001245848834514618,0.4916600435972214,0.7902035638689995,1690.0984278470278,test,1,,,,,,,,,,1687.6116689667106,1688.1126838847995,1688.1126838847995,1688.1126838847995,1688.4114224463701,1688.911702401936,1689.1119229644537,1690.1215787231922,None,0,,0.35,,,,,,,,,,,s036,001,2024-09-24_13h02.33.071,simplestop_skeleton,2022.2.2,59.936756764601796,
None,None,,,,,,,,,0,0,0,0,1,2,6,2,,,,,,,,,1690.0988793745637,go,squareblack.png,right,0.35,,,,,,,,,,,,,,,0.007311224937438965,0.48858075588941574,,1692.6025046259165,test,1,,,,,,,,,,1690.1215787231922,1690.6137501001358,1690.6137501001358,1690.6304745525122,1690.9640814960003,1691.4644964039326,1691.614602059126,1692.6234936714172,right,1,0.5832263380289078,0.35,,,,,,,,,,,s036,001,2024-09-24_13h02.33.071,simplestop_skeleton,2022.2.2,59.936756764601796,
$currentCorrectResponse,$currentGoStim,,,,,,,,,0,0,0,0,1,3,7,0,,,,,,,,,1692.6029618233442,go,squareblack.png,right,0.35,,,,,,,,,,,,,,,0.002264641225337982,0.4862937778234482,,1695.1035071387887,test,1,,,,,,,,,,1692.6234936714172,1693.1164697185159,1693.1164697185159,1693.1332953423262,1693.466728463769,1693.9672382101417,1694.1173942685127,1695.1223277449608,right,1,0.6893943324685097,0.35,,,,,,,,,,,s036,001,2024-09-24_13h02.33.071,simplestop_skeleton,2022.2.2,59.936756764601796,
None,None,,,,,,,,,0,0,0,0,2,0,8,3,,,,,,,,,1695.1040778532624,go,squareblack.png,right,0.35,,,,,,,,,,,,,,,0.0014639496803283691,0.48783398419618607,,1697.6060444116592,test,1,,,,,,,,,,1695.1223277449608,1695.6190045177937,1695.6190045177937,1695.6357096806169,1695.9694409370422,1696.47007317096,1696.6200975254178,1697.629197999835,right,1,0.5684743076562881,0.35,,,,,,,,,,,s036,001,2024-09-24_13h02.33.071,simplestop_skeleton,2022.2.2,59.936756764601796,
$currentCorrectResponse,$currentGoStim,,,,,,,,,0,0,0,0,2,1,9,0,,,,,,,,,1697.6065136790276,go,circleblack.png,left,0.35,,,,,,,,,,,,,,,0.007494881749153137,0.48894357681274414,,1700.1088595837355,test,1,,,,,,,,,,1697.629197999835,1698.1220110058784,1698.1220110058784,1698.1384894996881,1698.4722349122167,1698.9729170650244,1699.1236978322268,1700.1272857636213,left,1,0.6919932886958122,0.35,,,,,,,,,,,s036,001,2024-09-24_13h02.33.071,simplestop_skeleton,2022.2.2,59.936756764601796,
None,None,,,,,,,,,0,0,0,0,2,2,10,1,,,,,,,,,1700.1093097180128,stop,squareblack.png,right,0.35,,,,,,,,,,,,,,,0.001733042299747467,0.48857641220092773,0.8389720320701599,1702.611369162798,test,1,,,,,,,,,,1700.1272857636213,1700.6244780048728,1700.6244780048728,1700.6412920057774,1700.974979288876,1701.4765843302011,1701.6275441795588,1702.6280678287148,None,0,,0.4,,,,,,,,,,,s036,001,2024-09-24_13h02.33.071,simplestop_skeleton,2022.2.2,59.936756764601796,
None,None,,,,,,,,,0,0,0,0,2,3,11,3,,,,,,,,,1702.611817151308,stop,squareblack.png,right,0.4,,,,,,,,,,,,,,,0.0012466982007026672,0.48960499465465546,0.8902501985430717,1705.1142963171005,test,1,,,,,,,,,,1702.6280678287148,1703.1274700760841,1703.1274700760841,1703.1274700760841,1703.5278141275048,1704.0301856398582,1704.1287230104208,1705.133087977767,None,0,,0.45,,,,,,,,,,,s036,001,2024-09-24_13h02.33.071,simplestop_skeleton,2022.2.2,59.936756764601796,
None,None,,,,,,,,,0,0,0,0,3,0,12,2,,,,,,,,,1705.115059942007,stop,circleblack.png,left,0.45,,,,,,,,,,,,,,,0.0027139857411384583,0.4890436604619026,0.9406221956014633,1707.6170247718692,test,1,,,,,,,,,,1705.133087977767,1705.6301024258137,1705.6301024258137,1705.6468287706375,1706.0823122933507,1706.5814079791307,1706.6314535811543,1707.6481001898646,None,0,,0.5,,,,,,,,,,,s036,001,2024-09-24_13h02.33.071,simplestop_skeleton,2022.2.2,59.936756764601796,
None,None,,,,,,,,,0,0,0,0,3,1,13,2,,,,,,,,,1707.6174776107073,go,squareblack.png,right,0.5,,,,,,,,,,,,,,,0.0015295371413230896,0.4896061420440674,,1710.1199372038245,test,1,,,,,,,,,,1707.6481001898646,1708.1329461708665,1708.1329461708665,1708.152131587267,1708.6352079212666,1709.1341556832194,1709.1341556832194,1710.136414848268,right,1,0.6939564794301987,0.5,,,,,,,,,,,s036,001,2024-09-24_13h02.33.071,simplestop_skeleton,2022.2.2,59.936756764601796,
$currentCorrectResponse,$currentGoStim,,,,,,,,,0,0,0,0,3,2,14,0,,,,,,,,,1710.1203893721104,stop,squareblack.png,right,0.5,,,,,,,,,,,,,,,0.0011641979217529297,0.4897356554865837,0.9904243350028992,1712.6224482282996,test,1,,,,,,,,,,1710.136414848268,1710.635888658464,1710.635888658464,1710.635888658464,1711.1365693882108,1711.6369978189468,1711.6369978189468,1712.6449681669474,right,1,0.6353371366858482,0.45,,,,,,,,,,,s036,001,2024-09-24_13h02.33.071,simplestop_skeleton,2022.2.2,59.936756764601796,
None,None,,,,,,,,,0,0,0,0,3,3,15,2,,,,,,,,,1712.6228872537613,go,circleblack.png,left,0.45,,,,,,,,,,,,,,,0.007819831371307373,0.49074721336364746,,1715.1251302957535,test,1,,,,,,,,,,1712.6449681669474,1713.1398620605469,1713.1398620605469,1713.1561338305473,1713.5889733284712,1714.08952999115,1714.1397318020463,1715.1422796025872,left,1,0.6873865872621536,0.45,,,,,,,,,,,s036,001,2024-09-24_13h02.33.071,simplestop_skeleton,2022.2.2,59.936756764601796,
None,None,,,,,,,,,0,0,0,0,4,0,16,1,,,,,,,,,1715.1255813091993,go,squareblack.png,right,0.45,,,,,,,,,,,,,,,0.001608341932296753,0.4905472621321678,,1717.6281054541469,test,1,,,,,,,,,,1715.1422796025872,1715.6421057656407,1715.6421057656407,1715.6421057656407,1716.091821566224,1716.592463992536,1716.6424401327968,1717.6461152806878,right,1,0.6962168961763382,0.45,,,,,,,,,,,s036,001,2024-09-24_13h02.33.071,simplestop_skeleton,2022.2.2,59.936756764601796,
None,None,,,,,,,,,0,0,0,0,4,1,17,2,,,,,,,,,1717.6285740807652,go,circleblack.png,left,0.45,,,,,,,,,,,,,,,0.00180874764919281,0.49103403836488724,,1720.1305806040764,test,1,,,,,,,,,,1717.6461152806878,1718.1457870304585,1718.1457870304585,1718.1457870304585,1718.5946278646588,1719.0950108394027,1719.1450818926096,1720.1618023514748,left,1,0.6516765356063843,0.45,,,,,,,,,,,s036,001,2024-09-24_13h02.33.071,simplestop_skeleton,2022.2.2,59.936756764601796,
None,None,,,,,,,,,0,0,0,0,4,2,18,1,,,,,,,,,1720.1310278475285,go,squareblack.png,right,0.45,,,,,,,,,,,,,,,0.0016101375222206116,0.49176282435655594,,1722.6343644708395,test,1,,,,,,,,,,1720.1618023514748,1720.6484796851873,1720.6484796851873,1720.6652086228132,1721.097356133163,1721.5979767590761,1721.6477196514606,1722.652239345014,right,1,0.7055013552308083,0.45,,,,,,,,,,,s036,001,2024-09-24_13h02.33.071,simplestop_skeleton,2022.2.2,59.936756764601796,
None,None,,,,,,,,,0,0,0,0,4,3,19,1,,,,,,,,,1722.6347993537784,go,circleblack.png,left,0.45,,,,,,,,,,,,,,,0.001955591142177582,0.48873238265514374,,1725.138182476163,test,1,,,,,,,,,,1722.652239345014,1723.1496082246304,1723.1496082246304,1723.166326135397,1723.6001779735088,1724.100576005876,1724.1504940241575,1725.1591253951192,left,1,0.6415279284119606,0.45,,,,,,,,,,,s036,001,2024-09-24_13h02.33.071,simplestop_skeleton,2022.2.2,59.936756764601796,
None,None,,,,,,,,,0,0,0,0,5,0,20,2,,,,,,,,,1725.1386388987303,go,squareblack.png,right,0.45,,,,,,,,,,,,,,,0.002596825361251831,0.4869470149278641,,1727.6393007263541,test,1,,,,,,,,,,1725.1591253951192,1725.652481265366,1725.652481265366,1725.6691909432411,1726.102688036859,1726.6031446009874,1726.6532608941197,1727.6576546952128,right,1,0.7559436187148094,0.45,,,,,,,,,,,s036,001,2024-09-24_13h02.33.071,simplestop_skeleton,2022.2.2,59.936756764601796,
None,None,,,,,,,,,0,0,0,0,5,1,21,1,,,,,,,,,1727.6397533267736,go,circleblack.png,left,0.45,,,,,,,,,,,,,,,0.0018554329872131348,0.4891159385442734,,1730.142056249082,test,1,,,,,,,,,,1727.6576546952128,1728.1551320329309,1728.1551320329309,1728.171847730875,1728.6055016368628,1729.1060707494617,1729.1563810035586,1730.1595902964473,left,1,0.71194888651371,0.45,,,,,,,,,,,s036,001,2024-09-24_13h02.33.071,simplestop_skeleton,2022.2.2,59.936756764601796,
$currentCorrectResponse,$currentGoStim,,,,,,,,,0,0,0,0,5,2,22,0,,,,,,,,,1730.1425085440278,stop,circleblack.png,left,0.45,,,,,,,,,,,,,,,0.0013134703040122986,0.488860085606575,0.9393666610121727,1732.644933372736,test,1,,,,,,,,,,1730.1595902964473,1730.657744511962,1730.657744511962,1730.6744393259287,1731.1082066521049,1731.6088574007154,1731.659543775022,1732.6630218550563,left,1,0.6213033571839333,0.4,,,,,,,,,,,s036,001,2024-09-24_13h02.33.071,simplestop_skeleton,2022.2.2,59.936756764601796,
$currentCorrectResponse,$currentGoStim,,,,,,,,,0,0,0,0,5,3,23,0,,,,,,,,,1732.6453869640827,stop,squareblack.png,right,0.4,,,,,,,,,,,,,,,0.0017741993069648743,0.488738052546978,0.8890920355916023,1735.1472325250506,test,1,,,,,,,,,,1732.6630218550563,1733.160480439663,1733.160480439663,1733.1771733760834,1733.5609842985868,1734.0621528550982,1734.1616751924157,1735.1784097477794,None,0,,0.45,,,,,,,,,,,s036,001,2024-09-24_13h02.33.071,simplestop_skeleton,2022.2.2,59.936756764601796,
None,None,,,,,,,,,0,0,0,0,6,0,24,3,,,,,,,,,1735.1476899310946,go,circleblack.png,left,0.45,,,,,,,,,,,,,,,0.0017791539430618286,0.4899485856294632,,1737.6500388756394,test,1,,,,,,,,,,1735.1784097477794,1735.6633675470948,1735.6633675470948,1735.6800064444542,1736.114650130272,1736.6144384890795,1736.664440177381,1737.667413264513,left,1,0.6182741150259972,0.45,,,,,,,,,,,s036,001,2024-09-24_13h02.33.071,simplestop_skeleton,2022.2.2,59.936756764601796,
None,None,,,,,,,,,0,0,0,0,6,1,25,3,,,,,,,,,1737.650489501655,go,squareblack.png,right,0.45,,,,,,,,,,,,,,,0.0017773360013961792,0.4895053505897522,,1740.1527213826776,test,1,,,,,,,,,,1737.667413264513,1738.1659924983978,1738.1659924983978,1738.1826749965549,1738.6179063394666,1739.1171904727817,1739.167299091816,1740.1700128018856,right,1,0.6698560789227486,0.45,,,,,,,,,,,s036,001,2024-09-24_13h02.33.071,simplestop_skeleton,2022.2.2,59.936756764601796,
$currentCorrectResponse,$currentGoStim,,,,,,,,,0,0,0,0,6,2,26,0,,,,,,,,,1740.1531617715955,go,circleblack.png,left,0.45,,,,,,,,,,,,,,,0.0017580017447471619,0.4897298216819763,,1742.655587516725,test,1,,,,,,,,,,1740.1700128018856,1740.668764822185,1740.668764822185,1740.6854794993997,1741.1211009547114,1741.6366232857108,1741.6699986681342,1742.6726163104177,left,1,0.685520350933075,0.45,,,,,,,,,,,s036,001,2024-09-24_13h02.33.071,simplestop_skeleton,2022.2.2,59.936756764601796,
$currentCorrectResponse,$currentGoStim,,,,,,,,,0,0,0,0,6,3,27,0,,,,,,,,,1742.656042046845,go,squareblack.png,right,0.45,,,,,,,,,,,,,,,0.0016433373093605042,0.49031754583120346,,1745.1583842411637,test,1,,,,,,,,,,1742.6726163104177,1743.1723385304213,1743.1723385304213,1743.1723385304213,1743.6220500096679,1744.122750595212,1744.1727513745427,1745.1755749955773,right,1,0.692953072488308,0.45,,,,,,,,,,,s036,001,2024-09-24_13h02.33.071,simplestop_skeleton,2022.2.2,59.936756764601796,
None,None,,,,,,,,,0,0,0,0,7,0,28,2,,,,,,,,,1745.1588366925716,stop,circleblack.png,left,0.45,,,,,,,,,,,,,,,0.0017111003398895264,0.4903472736477852,0.9401242285966873,1747.6614904254675,test,1,,,,,,,,,,1745.1755749955773,1745.6752238571644,1745.6752238571644,1745.6752238571644,1746.124977387488,1746.625515408814,1746.6756489425898,1747.6791746243834,None,0,,0.5,,,,,,,,,,,s036,001,2024-09-24_13h02.33.071,simplestop_skeleton,2022.2.2,59.936756764601796,
None,None,,,,,,,,,0,0,0,0,7,1,29,1,,,,,,,,,1747.6619283407927,go,squareblack.png,right,0.5,,,,,,,,,,,,,,,0.0016453862190246582,0.49069488793611526,,1750.164940699935,test,1,,,,,,,,,,1747.6791746243834,1748.1789411529899,1748.1789411529899,1748.1789411529899,1748.6778440624475,1749.1781192347407,1749.1781192347407,1750.182181328535,right,1,0.6709391921758652,0.5,,,,,,,,,,,s036,001,2024-09-24_13h02.33.071,simplestop_skeleton,2022.2.2,59.936756764601796,
None,None,,,,,,,,,0,0,0,0,7,2,30,1,,,,,,,,,1750.1653812378645,go,squareblack.png,right,0.5,,,,,,,,,,,,,,,0.0013007894158363342,0.48838358372449875,,1752.6680250912905,test,1,,,,,,,,,,1750.182181328535,1750.6799008622766,1750.6799008622766,1750.6966711431742,1751.180655002594,1751.6809119731188,1751.6809119731188,1752.6898073852062,right,1,0.7663066685199738,0.5,,,,,,,,,,,s036,001,2024-09-24_13h02.33.071,simplestop_skeleton,2022.2.2,59.936756764601796,
$currentCorrectResponse,$currentGoStim,,,,,,,,,0,0,0,0,7,3,31,0,,,,,,,,,1752.6684654206038,stop,circleblack.png,left,0.5,,,,,,,,,,,,,,,0.0027369409799575806,0.48697926104068756,0.9871779754757881,1755.1717004776,test,1,,,,,,,,,,1752.6898073852062,1753.182684905827,1753.182684905827,1753.1994326859713,1753.6831010058522,1754.1836283132434,1754.1836283132434,1755.1936834007502,None,0,,0.55,,,,,,,,,,,s036,001,2024-09-24_13h02.33.071,simplestop_skeleton,2022.2.2,59.936756764601796,
None,None,,,,,,,,,0,0,0,0,8,0,32,3,,,,,,,,,1755.1721645221114,stop,squareblack.png,right,0.55,,,,,,,,,,,,,,,0.0018497183918952942,0.484785258769989,1.03524561971426,1757.6724373400211,test,1,,,,,,,,,,1755.1936834007502,1755.6854937151074,1755.6854937151074,1755.7022077292204,1756.2359436228871,1756.7366022020578,1756.6864295601845,1757.690787449479,right,1,0.6171158254146576,0.5,,,,,,,,,,,s036,001,2024-09-24_13h02.33.071,simplestop_skeleton,2022.2.2,59.936756764601796,
None,None,,,,,,,,,0,0,0,0,8,1,33,1,,,,,,,,,1757.6728857904673,go,circleblack.png,left,0.5,,,,,,,,,,,,,,,0.0020019859075546265,0.48913241922855377,,1760.1752575039864,test,1,,,,,,,,,,1757.690787449479,1758.1883022338152,1758.1883022338152,1758.2050066143274,1758.688681729138,1759.1891672313213,1759.1891672313213,1760.1928185671568,left,1,0.7014646083116531,0.5,,,,,,,,,,,s036,001,2024-09-24_13h02.33.071,simplestop_skeleton,2022.2.2,59.936756764601796,
None,None,,,,,,,,,0,0,0,0,8,2,34,2,,,,,,,,,1760.1757126897573,go,circleblack.png,left,0.5,,,,,,,,,,,,,,,0.0013162270188331604,0.48873718082904816,,1762.6780056804419,test,1,,,,,,,,,,1760.1928185671568,1760.6908688992262,1760.6908688992262,1760.707569167018,1761.19134888798,1761.6921168267727,1761.6921168267727,1762.6964377313852,left,1,0.7560853064060211,0.5,,,,,,,,,,,s036,001,2024-09-24_13h02.33.071,simplestop_skeleton,2022.2.2,59.936756764601796,
None,None,,,,,,,,,0,0,0,0,8,3,35,3,,,,,,,,,1762.6784537881613,stop,squareblack.png,right,0.5,,,,,,,,,,,,,,,0.0017376616597175598,0.48858118057250977,0.9891084656119347,1765.180767223239,test,1,,,,,,,,,,1762.6964377313852,1763.1936052367091,1763.1936052367091,1763.2102648243308,1763.6941761523485,1764.1946826428175,1764.1946826428175,1765.1986082047224,None,0,,0.55,,,,,,,,,,,s036,001,2024-09-24_13h02.33.071,simplestop_skeleton,2022.2.2,59.936756764601796,
None,None,,,,,,,,,0,0,0,0,9,0,36,2,,,,,,,,,1765.1812368929386,go,squareblack.png,right,0.55,,,,,,,,,,,,,,,0.0012551769614219666,0.4886401668190956,,1767.6833850070834,test,1,,,,,,,,,,1765.1986082047224,1765.6963826715946,1765.6963826715946,1765.7130927667022,1766.2470485270023,1766.7475388720632,1766.6974195614457,1767.7005893364549,right,1,0.750249557197094,0.55,,,,,,,,,,,s036,001,2024-09-24_13h02.33.071,simplestop_skeleton,2022.2.2,59.936756764601796,
$currentCorrectResponse,$currentGoStim,,,,,,,,,0,0,0,0,9,1,37,0,,,,,,,,,1767.6838298141956,go,squareblack.png,right,0.55,,,,,,,,,,,,,,,0.0012310072779655457,0.48916880786418915,,1770.1858172267675,test,1,,,,,,,,,,1767.7005893364549,1768.1991324424744,1768.1991324424744,1768.2157825678587,1768.7498333901167,1769.2503899857402,1769.2002609074116,1770.2036572173238,right,1,0.6911621317267418,0.55,,,,,,,,,,,s036,001,2024-09-24_13h02.33.071,simplestop_skeleton,2022.2.2,59.936756764601796,
None,None,,,,,,,,,0,0,0,0,9,2,38,2,,,,,,,,,1770.186274729669,stop,squareblack.png,right,0.55,,,,,,,,,,,,,,,0.0013153553009033203,0.48900557309389114,1.0404160171747208,1772.6886596232653,test,1,,,,,,,,,,1770.2036572173238,1770.7017098665237,1770.7017098665237,1770.7185717225075,1771.2533162906766,1771.7531128749251,1771.7031074985862,1772.71161403507,None,0,,0.6,,,,,,,,,,,s036,001,2024-09-24_13h02.33.071,simplestop_skeleton,2022.2.2,59.936756764601796,
None,None,,,,,,,,,0,0,0,0,9,3,39,1,,,,,,,,,1772.6890981793404,go,circleblack.png,left,0.6,,,,,,,,,,,,,,,0.00800669938325882,0.48944567143917084,,1775.191335491836,test,1,,,,,,,,,,1772.71161403507,1773.2045613005757,1773.2045613005757,1773.2212834134698,1773.8064653500915,1774.3060735985637,1774.2059078291059,1775.208108149469,left,1,0.6919726580381393,0.6,,,,,,,,,,,s036,001,2024-09-24_13h02.33.071,simplestop_skeleton,2022.2.2,59.936756764601796,
$currentCorrectResponse,$currentGoStim,,,,,,,,,0,0,0,0,10,0,40,0,,,,,,,,,1775.1917711496353,go,circleblack.png,left,0.6,,,,,,,,,,,,,,,0.00122726708650589,0.4897424355149269,,1777.694077923894,test,1,,,,,,,,,,1775.208108149469,1775.7074387595057,1775.7074387595057,1775.7074387595057,1776.309942677617,1776.8255184665322,1776.7086414247751,1777.7109756469727,left,1,0.7998452931642532,0.6,,,,,,,,,,,s036,001,2024-09-24_13h02.33.071,simplestop_skeleton,2022.2.2,59.936756764601796,
$currentCorrectResponse,$currentGoStim,,,,,,,,,0,0,0,0,10,1,41,0,,,,,,,,,1777.6945148855448,stop,squareblack.png,right,0.6,,,,,,,,,,,,,,,0.0016493573784828186,0.4897998422384262,1.090589314699173,1780.197059109807,test,1,,,,,,,,,,1777.7109756469727,1778.2102557867765,1778.2102557867765,1778.2102557867765,1778.8109588176012,1779.3115021958947,1779.2115014865994,1780.2144066169858,right,1,0.6336857005953789,0.55,,,,,,,,,,,s036,001,2024-09-24_13h02.33.071,simplestop_skeleton,2022.2.2,59.936756764601796,
None,None,,,,,,,,,0,0,0,0,10,2,42,3,,,,,,,,,1780.1975212022662,stop,circleblack.png,left,0.55,,,,,,,,,,,,,,,0.0017898380756378174,0.4894089102745056,1.0401912033557892,1782.6997382566333,test,1,,,,,,,,,,1780.2144066169858,1780.7153626084328,1780.7153626084328,1780.7306049764156,1781.2637029737234,1781.7643411457539,1781.730918802321,1782.7163553610444,left,1,0.6950285583734512,0.5,,,,,,,,,,,s036,001,2024-09-24_13h02.33.071,simplestop_skeleton,2022.2.2,59.936756764601796,
$currentCorrectResponse,$currentGoStim,,,,,,,,,0,0,0,0,10,3,43,0,,,,,,,,,1782.700184367597,go,circleblack.png,left,0.5,,,,,,,,,,,,,,,0.0012512803077697754,0.4905192255973816,,1785.2029320448637,test,1,,,,,,,,,,1782.7163553610444,1783.2164523601532,1783.2164523601532,1783.2164523601532,1783.7164282649755,1784.2170242741704,1784.2170242741704,1785.2211844697595,left,1,0.6348478570580482,0.5,,,,,,,,,,,s036,001,2024-09-24_13h02.33.071,simplestop_skeleton,2022.2.2,59.936756764601796,
None,None,,,,,,,,,0,0,0,0,11,0,44,2,,,,,,,,,1785.203390546143,go,squareblack.png,right,0.5,,,,,,,,,,,,,,,0.0017123445868492126,0.4896377772092819,,1787.705577492714,test,1,,,,,,,,,,1785.2211844697595,1785.7196390330791,1785.7196390330791,1785.7360946014524,1786.2191751226783,1786.719595886767,1786.719595886767,1787.7227786332369,right,1,0.6154106110334396,0.5,,,,,,,,,,,s036,001,2024-09-24_13h02.33.071,simplestop_skeleton,2022.2.2,59.936756764601796,
None,None,,,,,,,,,0,0,0,0,11,1,45,1,,,,,,,,,1787.7060265988111,go,circleblack.png,left,0.5,,,,,,,,,,,,,,,0.0017942637205123901,0.4913199543952942,,1790.207852333784,test,1,,,,,,,,,,1787.7227786332369,1788.223115503788,1788.223115503788,1788.223115503788,1788.7219403982162,1789.2222476303577,1789.2222476303577,1790.2247171625495,left,1,0.6438450440764427,0.5,,,,,,,,,,,s036,001,2024-09-24_13h02.33.071,simplestop_skeleton,2022.2.2,59.936756764601796,
None,None,,,,,,,,,0,0,0,0,11,2,46,3,,,,,,,,,1790.2082828134298,stop,circleblack.png,left,0.5,,,,,,,,,,,,,,,0.0012316256761550903,0.491871140897274,0.9906203895807266,1792.7116493210196,test,1,,,,,,,,,,1790.2247171625495,1790.7259088084102,1790.7259088084102,1790.7259088084102,1791.2248171642423,1791.725048802793,1791.725048802793,1792.729638621211,left,1,0.6080027297139168,0.45,,,,,,,,,,,s036,001,2024-09-24_13h02.33.071,simplestop_skeleton,2022.2.2,59.936756764601796,
None,None,,,,,,,,,0,0,0,0,11,3,47,3,,,,,,,,,1792.7120778933167,go,squareblack.png,right,0.45,,,,,,,,,,,,,,,0.0017167478799819946,0.4903596565127373,,1795.2154132947326,test,1,,,,,,,,,,1792.729638621211,1793.2267888635397,1793.2267888635397,1793.2267888635397,1793.677428111434,1794.1777158379555,1794.2278122231364,1795.2497737258673,right,1,0.5351571664214134,0.45,,,,,,,,,,,s036,001,2024-09-24_13h02.33.071,simplestop_skeleton,2022.2.2,59.936756764601796,
,,,,,,,,,,0,0,0,0,,,,,,"[{'fileName': 'squareblack.png', 'correct_response': 'right', 'condition': 'go'}, {'fileName': 'squareblack.png', 'correct_response': 'right', 'condition': 'stop'}, {'fileName': 'circleblack.png', 'correct_response': 'left', 'condition': 'go'}, {'fileName': 'squareblack.png', 'correct_response': 'right', 'condition': 'go'}, {'fileName': 'circleblack.png', 'correct_response': 'left', 'condition': 'go'}, {'fileName': 'squareblack.png', 'correct_response': 'right', 'condition': 'go'}, {'fileName': 'circleblack.png', 'correct_response': 'left', 'condition': 'stop'}, {'fileName': 'circleblack.png', 'correct_response': 'left', 'condition': 'go'}, {'fileName': 'circleblack.png', 'correct_response': 'left', 'condition': 'go'}, {'fileName': 'squareblack.png', 'correct_response': 'right', 'condition': 'stop'}, {'fileName': 'circleblack.png', 'correct_response': 'left', 'condition': 'stop'}, {'fileName': 'squareblack.png', 'correct_response': 'right', 'condition': 'go'}, {'fileName': 'circleblack.png', 'correct_response': 'left', 'condition': 'go'}, {'fileName': 'circleblack.png', 'correct_response': 'left', 'condition': 'stop'}, {'fileName': 'squareblack.png', 'correct_response': 'right', 'condition': 'go'}, {'fileName': 'squareblack.png', 'correct_response': 'right', 'condition': 'go'}, {'fileName': 'circleblack.png', 'correct_response': 'left', 'condition': 'stop'}, {'fileName': 'circleblack.png', 'correct_response': 'left', 'condition': 'go'}, {'fileName': 'circleblack.png', 'correct_response': 'left', 'condition': 'go'}, {'fileName': 'squareblack.png', 'correct_response': 'right', 'condition': 'stop'}, {'fileName': 'squareblack.png', 'correct_response': 'right', 'condition': 'go'}, {'fileName': 'squareblack.png', 'correct_response': 'right', 'condition': 'go'}, {'fileName': 'squareblack.png', 'correct_response': 'right', 'condition': 'stop'}, {'fileName': 'circleblack.png', 'correct_response': 'left', 'condition': 'go'}, {'fileName': 'squareblack.png', 'correct_response': 'right', 'condition': 'go'}, {'fileName': 'squareblack.png', 'correct_response': 'right', 'condition': 'stop'}, {'fileName': 'squareblack.png', 'correct_response': 'right', 'condition': 'stop'}, {'fileName': 'squareblack.png', 'correct_response': 'right', 'condition': 'go'}, {'fileName': 'squareblack.png', 'correct_response': 'right', 'condition': 'go'}, {'fileName': 'circleblack.png', 'correct_response': 'left', 'condition': 'go'}, {'fileName': 'squareblack.png', 'correct_response': 'right', 'condition': 'go'}, {'fileName': 'circleblack.png', 'correct_response': 'left', 'condition': 'go'}, {'fileName': 'circleblack.png', 'correct_response': 'left', 'condition': 'stop'}, {'fileName': 'circleblack.png', 'correct_response': 'left', 'condition': 'stop'}, {'fileName': 'circleblack.png', 'correct_response': 'left', 'condition': 'go'}, {'fileName': 'circleblack.png', 'correct_response': 'left', 'condition': 'go'}, {'fileName': 'circleblack.png', 'correct_response': 'left', 'condition': 'go'}, {'fileName': 'squareblack.png', 'correct_response': 'right', 'condition': 'go'}, {'fileName': 'squareblack.png', 'correct_response': 'right', 'condition': 'go'}, {'fileName': 'circleblack.png', 'correct_response': 'left', 'condition': 'go'}, {'fileName': 'squareblack.png', 'correct_response': 'right', 'condition': 'stop'}, {'fileName': 'squareblack.png', 'correct_response': 'right', 'condition': 'go'}, {'fileName': 'squareblack.png', 'correct_response': 'right', 'condition': 'go'}, {'fileName': 'circleblack.png', 'correct_response': 'left', 'condition': 'go'}, {'fileName': 'circleblack.png', 'correct_response': 'left', 'condition': 'stop'}, {'fileName': 'circleblack.png', 'correct_response': 'left', 'condition': 'go'}, {'fileName': 'circleblack.png', 'correct_response': 'left', 'condition': 'stop'}, {'fileName': 'squareblack.png', 'correct_response': 'right', 'condition': 'stop'}]",,,,,,,,,,,,,,,,,,,,,,,,,,,,,,,,,,,,,,,,,,,,,,,,,,,,,1795.2497737258673,1795.2497737258673,return,5.569009855389595,,,,,,,s036,001,2024-09-24_13h02.33.071,simplestop_skeleton,2022.2.2,59.936756764601796,
None,None,,,,,,,,,1,0,1,0,0,0,0,2,,,,,,,,,1800.845971904695,go,squareblack.png,right,0.45,,,,,,,,,,,,,,,0.001210324466228485,0.49696987122297287,,1803.3561153262854,test,2,,,,,,,,,,1800.863118454814,1801.3689854890108,1801.3689854890108,1801.3689854890108,1801.8199680894613,1802.3205069229007,1802.3704640045762,1803.3729998245835,right,1,0.6753571256995201,0.45,,,,,,,,,,,s036,001,2024-09-24_13h02.33.071,simplestop_skeleton,2022.2.2,59.936756764601796,
None,None,,,,,,,,,1,0,1,0,0,1,1,2,,,,,,,,,1803.3566788509488,stop,squareblack.png,right,0.45,,,,,,,,,,,,,,,0.0012338683009147644,0.48919276148080826,0.9408348947763443,1805.8589917495847,test,2,,,,,,,,,,1803.3729998245835,1803.8718105778098,1803.8718105778098,1803.8884411901236,1804.323627308011,1804.822912953794,1804.8730861097574,1805.882019199431,right,1,0.6243974789977074,0.4,,,,,,,,,,,s036,001,2024-09-24_13h02.33.071,simplestop_skeleton,2022.2.2,59.936756764601796,
$currentCorrectResponse,$currentGoStim,,,,,,,,,1,0,1,0,0,2,2,0,,,,,,,,,1805.8594327941537,go,circleblack.png,left,0.4,,,,,,,,,,,,,,,0.008103355765342712,0.48927321285009384,,1808.3616286665201,test,2,,,,,,,,,,1805.882019199431,1806.374486014247,1806.374486014247,1806.391291603446,1806.775091856718,1807.2758032083511,1807.3758230358362,1808.3797729164362,left,1,0.7012255117297173,0.4,,,,,,,,,,,s036,001,2024-09-24_13h02.33.071,simplestop_skeleton,2022.2.2,59.936756764601796,
None,None,,,,,,,,,1,0,1,0,0,3,3,3,,,,,,,,,1808.3620767816901,go,squareblack.png,right,0.4,,,,,,,,,,,,,,,0.0018073022365570068,0.48871494829654694,,1810.8643031865358,test,2,,,,,,,,,,1808.3797729164362,1808.8773986697197,1808.8773986697197,1808.8940027207136,1809.278733484447,1809.7786420211196,1809.878914475441,1810.8815282657743,right,1,0.6255354955792427,0.4,,,,,,,,,,,s036,001,2024-09-24_13h02.33.071,simplestop_skeleton,2022.2.2,59.936756764601796,
None,None,,,,,,,,,1,0,1,0,1,0,4,2,,,,,,,,,1810.864745169878,go,circleblack.png,left,0.4,,,,,,,,,,,,,,,0.0017221495509147644,0.4894926995038986,,1813.366674348712,test,2,,,,,,,,,,1810.8815282657743,1811.3801041021943,1811.3801041021943,1811.3967665284872,1811.7825663983822,1812.2981149479747,1812.381399847567,1813.3839997649193,left,1,0.6786827445030212,0.4,,,,,,,,,,,s036,001,2024-09-24_13h02.33.071,simplestop_skeleton,2022.2.2,59.936756764601796,
None,None,,,,,,,,,1,0,1,0,1,1,5,3,,,,,,,,,1813.3671228662133,go,squareblack.png,right,0.4,,,,,,,,,,,,,,,0.0017145276069641113,0.49219537526369095,,1815.869697779417,test,2,,,,,,,,,,1813.3839997649193,1813.8839046731591,1813.8839046731591,1813.8839046731591,1814.285144135356,1814.800645045936,1814.8842670544982,1815.887073636055,right,1,0.512510247528553,0.4,,,,,,,,,,,s036,001,2024-09-24_13h02.33.071,simplestop_skeleton,2022.2.2,59.936756764601796,
None,None,,,,,,,,,1,0,1,0,1,2,6,2,,,,,,,,,1815.8701694905758,stop,circleblack.png,left,0.4,,,,,,,,,,,,,,,0.0017415285110473633,0.4904971197247505,0.8903829008340836,1818.3723160028458,test,2,,,,,,,,,,1815.887073636055,1816.3862081691623,1816.3862081691623,1816.3862081691623,1816.7861915007234,1817.286800533533,1817.3868443891406,1818.3891065716743,None,0,,0.45,,,,,,,,,,,s036,001,2024-09-24_13h02.33.071,simplestop_skeleton,2022.2.2,59.936756764601796,
None,None,,,,,,,,,1,0,1,0,1,3,7,3,,,,,,,,,1818.372771717608,go,circleblack.png,left,0.45,,,,,,,,,,,,,,,0.0012698471546173096,0.4906480982899666,,1820.8752257227898,test,2,,,,,,,,,,1818.3891065716743,1818.89008859545,1818.89008859545,1818.89008859545,1819.3389803022146,1819.8396267443895,1819.8894671350718,1820.8918183073401,left,1,0.61073287576437,0.45,,,,,,,,,,,s036,001,2024-09-24_13h02.33.071,simplestop_skeleton,2022.2.2,59.936756764601796,
None,None,,,,,,,,,1,0,1,0,2,0,8,1,,,,,,,,,1820.8756741583347,go,circleblack.png,left,0.45,,,,,,,,,,,,,,,0.0012639164924621582,0.49149903655052185,,1823.3777455613017,test,2,,,,,,,,,,1820.8918183073401,1821.3930086418986,1821.3930086418986,1821.3930086418986,1821.8418824523687,1822.3422312885523,1822.392241731286,1823.3950907364488,left,1,0.7777489796280861,0.45,,,,,,,,,,,s036,001,2024-09-24_13h02.33.071,simplestop_skeleton,2022.2.2,59.936756764601796,
$currentCorrectResponse,$currentGoStim,,,,,,,,,1,0,1,0,2,1,9,0,,,,,,,,,1823.3781920224428,stop,squareblack.png,right,0.45,,,,,,,,,,,,,,,0.001698806881904602,0.48989395052194595,0.9405661076307297,1825.881425537169,test,2,,,,,,,,,,1823.3950907364488,1823.8940693214536,1823.8940693214536,1823.9106754809618,1824.3445662781596,1824.8448501005769,1824.8950972035527,1825.8996427357197,None,0,,0.5,,,,,,,,,,,s036,001,2024-09-24_13h02.33.071,simplestop_skeleton,2022.2.2,59.936756764601796,
$currentCorrectResponse,$currentGoStim,,,,,,,,,1,0,1,0,2,2,10,0,,,,,,,,,1825.8818784877658,stop,circleblack.png,left,0.5,,,,,,,,,,,,,,,0.0018353387713432312,0.4888688027858734,0.9893444627523422,1828.3851880431175,test,2,,,,,,,,,,1825.8996427357197,1826.3968171477318,1826.3968171477318,1826.4135373085737,1826.8974172323942,1827.3977101296186,1827.3977101296186,1828.4058023020625,left,1,0.6661091893911362,0.45,,,,,,,,,,,s036,001,2024-09-24_13h02.33.071,simplestop_skeleton,2022.2.2,59.936756764601796,
None,None,,,,,,,,,1,0,1,0,2,3,11,3,,,,,,,,,1828.385696567595,go,squareblack.png,right,0.45,,,,,,,,,,,,,,,0.0023880675435066223,0.4873080402612686,,1830.888262219727,test,2,,,,,,,,,,1828.4058023020625,1828.8996123820543,1828.8996123820543,1828.9163095355034,1829.349881246686,1829.8503957688808,1829.9004525467753,1830.909167163074,right,1,0.7679236456751823,0.45,,,,,,,,,,,s036,001,2024-09-24_13h02.33.071,simplestop_skeleton,2022.2.2,59.936756764601796,
$currentCorrectResponse,$currentGoStim,,,,,,,,,1,0,1,0,3,0,12,0,,,,,,,,,1830.8887170553207,go,circleblack.png,left,0.45,,,,,,,,,,,,,,,0.0027431324124336243,0.4866691902279854,,1833.3891160264611,test,2,,,,,,,,,,1830.909167163074,1831.4023647233844,1831.4023647233844,1831.4190707877278,1831.8527107834816,1832.3532146662474,1832.4032872617245,1833.4063228145242,left,1,0.7519991621375084,0.45,,,,,,,,,,,s036,001,2024-09-24_13h02.33.071,simplestop_skeleton,2022.2.2,59.936756764601796,
None,None,,,,,,,,,1,0,1,0,3,1,13,3,,,,,,,,,1833.3895692750812,stop,circleblack.png,left,0.45,,,,,,,,,,,,,,,0.0012625306844711304,0.4895598366856575,0.9398869797587395,1835.8938291743398,test,2,,,,,,,,,,1833.4063228145242,1833.9051823616028,1833.9051823616028,1833.9218181446195,1834.3555033653975,1834.856083497405,1834.9060136452317,1835.9148680567741,None,0,,0.5,,,,,,,,,,,s036,001,2024-09-24_13h02.33.071,simplestop_skeleton,2022.2.2,59.936756764601796,
None,None,,,,,,,,,1,0,1,0,3,2,14,2,,,,,,,,,1835.8942827954888,go,squareblack.png,right,0.5,,,,,,,,,,,,,,,0.0024054646492004395,0.4867471382021904,,1838.3948197737336,test,2,,,,,,,,,,1835.9148680567741,1836.407883219421,1836.407883219421,1836.4245780482888,1836.908245280385,1837.4087281227112,1837.4087281227112,1838.4132097437978,right,1,0.6247875466942787,0.5,,,,,,,,,,,s036,001,2024-09-24_13h02.33.071,simplestop_skeleton,2022.2.2,59.936756764601796,
None,None,,,,,,,,,1,0,1,0,3,3,15,2,,,,,,,,,1838.3952835053205,go,squareblack.png,right,0.5,,,,,,,,,,,,,,,0.0013342201709747314,0.48831576108932495,,1840.8992462977767,test,2,,,,,,,,,,1838.4132097437978,1838.910728879273,1838.910728879273,1838.9273202568293,1839.4109842777252,1839.9116035476327,1839.9116035476327,1840.9205963462591,right,1,0.7012366279959679,0.5,,,,,,,,,,,s036,001,2024-09-24_13h02.33.071,simplestop_skeleton,2022.2.2,59.936756764601796,
None,None,,,,,,,,,1,0,1,0,4,0,16,1,,,,,,,,,1840.8997278138995,stop,circleblack.png,left,0.5,,,,,,,,,,,,,,,0.0026021674275398254,0.48666325211524963,0.9870491921901703,1843.4020935148,test,2,,,,,,,,,,1840.9205963462591,1841.413342408836,1841.413342408836,1841.4304864928126,1841.9138066247106,1842.4143948107958,1842.4143948107958,1843.4210223704576,None,0,,0.55,,,,,,,,,,,s036,001,2024-09-24_13h02.33.071,simplestop_skeleton,2022.2.2,59.936756764601796,
None,None,,,,,,,,,1,0,1,0,4,1,17,1,,,,,,,,,1843.4025543257594,go,circleblack.png,left,0.55,,,,,,,,,,,,,,,0.0019150897860527039,0.4864109978079796,,1845.9029814451933,test,2,,,,,,,,,,1843.4210223704576,1843.9162760227919,1843.9162760227919,1843.932873725891,1844.466500043869,1844.9673032984138,1844.9170236736536,1845.9208012372255,left,1,0.6273632943630219,0.55,,,,,,,,,,,s036,001,2024-09-24_13h02.33.071,simplestop_skeleton,2022.2.2,59.936756764601796,
$currentCorrectResponse,$currentGoStim,,,,,,,,,1,0,1,0,4,2,18,0,,,,,,,,,1845.903459303081,go,circleblack.png,left,0.55,,,,,,,,,,,,,,,0.001325361430644989,0.48927050828933716,,1848.4060404151678,test,2,,,,,,,,,,1845.9208012372255,1846.4189822748303,1846.4189822748303,1846.4356501623988,1846.9695230647922,1847.4702499359846,1847.4202917516232,1848.4292275980115,left,1,0.9537124335765839,0.55,,,,,,,,,,,s036,001,2024-09-24_13h02.33.071,simplestop_skeleton,2022.2.2,59.936756764601796,
None,None,,,,,,,,,1,0,1,0,4,3,19,1,,,,,,,,,1848.4065148755908,stop,squareblack.png,right,0.55,,,,,,,,,,,,,,,0.007434926927089691,0.4885539263486862,1.039208099246025,1850.9086642935872,test,2,,,,,,,,,,1848.4292275980115,1848.9218548834324,1848.9218548834324,1848.938465923071,1849.4721526876092,1849.9727841839194,1849.9226148724556,1850.9262782782316,right,1,0.6068678796291351,0.5,,,,,,,,,,,s036,001,2024-09-24_13h02.33.071,simplestop_skeleton,2022.2.2,59.936756764601796,
None,None,,,,,,,,,1,0,1,0,5,0,20,1,,,,,,,,,1850.9091351106763,go,squareblack.png,right,0.5,,,,,,,,,,,,,,,0.0012788847088813782,0.48874087631702423,,1853.411285072565,test,2,,,,,,,,,,1850.9262782782316,1851.4243328422308,1851.4243328422308,1851.440923973918,1851.9248695075512,1852.425323650241,1852.425323650241,1853.4288066327572,right,1,0.5161361917853355,0.5,,,,,,,,,,,s036,001,2024-09-24_13h02.33.071,simplestop_skeleton,2022.2.2,59.936756764601796,
None,None,,,,,,,,,1,0,1,0,5,1,21,1,,,,,,,,,1853.4117432832718,go,squareblack.png,right,0.5,,,,,,,,,,,,,,,0.0013653561472892761,0.4889274761080742,,1855.9139350876212,test,2,,,,,,,,,,1853.4288066327572,1853.927056401968,1853.927056401968,1853.9436130598187,1854.4276346564293,1854.92811883986,1854.92811883986,1855.931692674756,right,1,0.4790164455771446,0.5,,,,,,,,,,,s036,001,2024-09-24_13h02.33.071,simplestop_skeleton,2022.2.2,59.936756764601796,
$currentCorrectResponse,$currentGoStim,,,,,,,,,1,0,1,0,5,2,22,0,,,,,,,,,1855.914405412972,stop,squareblack.png,right,0.5,,,,,,,,,,,,,,,0.001249365508556366,0.48892657458782196,0.9894276484847069,1858.4170259907842,test,2,,,,,,,,,,1855.931692674756,1856.429753921926,1856.429753921926,1856.4463755190372,1856.930293366313,1857.4335500523448,1857.4335500523448,1858.4403030499816,right,1,0.525067113339901,0.45,,,,,,,,,,,s036,001,2024-09-24_13h02.33.071,simplestop_skeleton,2022.2.2,59.936756764601796,
None,None,,,,,,,,,1,0,1,0,5,3,23,3,,,,,,,,,1858.417485319078,go,circleblack.png,left,0.45,,,,,,,,,,,,,,,0.007882796227931976,0.48873142153024673,,1860.9195102155209,test,2,,,,,,,,,,1858.4403030499816,1858.932442203164,1858.932442203164,1858.9493102282286,1859.3829711303115,1859.883706241846,1859.9336429163814,1860.9376862496138,left,1,0.6178816109895706,0.45,,,,,,,,,,,s036,001,2024-09-24_13h02.33.071,simplestop_skeleton,2022.2.2,59.936756764601796,
$currentCorrectResponse,$currentGoStim,,,,,,,,,1,0,1,0,6,0,24,0,,,,,,,,,1860.9199540168047,go,squareblack.png,right,0.45,,,,,,,,,,,,,,,0.0016986578702926636,0.4890024960041046,,1863.4224271178246,test,2,,,,,,,,,,1860.9376862496138,1861.4351981952786,1861.4351981952786,1861.4519867822528,1861.8857609331608,1862.3864290714264,1862.437089473009,1863.4399490952492,right,1,0.5424296632409096,0.45,,,,,,,,,,,s036,001,2024-09-24_13h02.33.071,simplestop_skeleton,2022.2.2,59.936756764601796,
None,None,,,,,,,,,1,0,1,0,6,1,25,1,,,,,,,,,1863.4228896051645,stop,squareblack.png,right,0.45,,,,,,,,,,,,,,,0.0012412667274475098,0.4888937994837761,0.9392920807003975,1865.9253173545003,test,2,,,,,,,,,,1863.4399490952492,1863.9379863888025,1863.9379863888025,1863.954763688147,1864.3884425908327,1864.889679737389,1864.9402574896812,1865.9424016848207,right,1,0.5584239661693573,0.4,,,,,,,,,,,s036,001,2024-09-24_13h02.33.071,simplestop_skeleton,2022.2.2,59.936756764601796,
None,None,,,,,,,,,1,0,1,0,6,2,26,1,,,,,,,,,1865.925820954144,stop,squareblack.png,right,0.4,,,,,,,,,,,,,,,0.0011854171752929688,0.48897603154182434,0.8895559087395668,1868.4275803864002,test,2,,,,,,,,,,1865.9424016848207,1866.4408193603158,1866.4408193603158,1866.4575235322118,1866.8413483649492,1867.342624887824,1867.4420197084546,1868.4454309791327,right,1,0.5740466043353081,0.35,,,,,,,,,,,s036,001,2024-09-24_13h02.33.071,simplestop_skeleton,2022.2.2,59.936756764601796,
None,None,,,,,,,,,1,0,1,0,6,3,27,2,,,,,,,,,1868.42804197222,go,squareblack.png,right,0.35,,,,,,,,,,,,,,,0.0011914148926734924,0.48873215913772583,,1870.9303360059857,test,2,,,,,,,,,,1868.4454309791327,1868.9436327889562,1868.9436327889562,1868.9603040367365,1869.294434376061,1869.7945998087525,1869.9449847489595,1870.9481991231441,right,1,0.878283828496933,0.35,,,,,,,,,,,s036,001,2024-09-24_13h02.33.071,simplestop_skeleton,2022.2.2,59.936756764601796,
None,None,,,,,,,,,1,0,1,0,7,0,28,2,,,,,,,,,1870.9308116212487,go,squareblack.png,right,0.35,,,,,,,,,,,,,,,0.001215621829032898,0.4888763576745987,,1873.4330817684531,test,2,,,,,,,,,,1870.9481991231441,1871.4463373795152,1871.4463373795152,1871.4630793631077,1871.7967520952225,1872.297423824668,1872.4477466270328,1873.4555956944823,right,1,0.6213792040944099,0.35,,,,,,,,,,,s036,001,2024-09-24_13h02.33.071,simplestop_skeleton,2022.2.2,59.936756764601796,
$currentCorrectResponse,$currentGoStim,,,,,,,,,1,0,1,0,7,1,29,0,,,,,,,,,1873.4335312098265,go,circleblack.png,left,0.35,,,,,,,,,,,,,,,0.007305607199668884,0.4898633137345314,,1875.9358303844929,test,2,,,,,,,,,,1873.4555956944823,1873.9490975812078,1873.9490975812078,1873.9658665508032,1874.2995604202151,1874.8002330958843,1874.9504538401961,1875.9536540657282,left,1,0.697683110833168,0.35,,,,,,,,,,,s036,001,2024-09-24_13h02.33.071,simplestop_skeleton,2022.2.2,59.936756764601796,
None,None,,,,,,,,,1,0,1,0,7,2,30,3,,,,,,,,,1875.936295464635,go,squareblack.png,right,0.35,,,,,,,,,,,,,,,0.0017223134636878967,0.48939546197652817,,1878.4385777935386,test,2,,,,,,,,,,1875.9536540657282,1876.4519267082214,1876.4519267082214,1876.4685613885522,1876.8030831590295,1877.3029192909598,1877.453353561461,1878.4566950500011,right,1,0.6311917081475258,0.35,,,,,,,,,,,s036,001,2024-09-24_13h02.33.071,simplestop_skeleton,2022.2.2,59.936756764601796,
None,None,,,,,,,,,1,0,1,0,7,3,31,3,,,,,,,,,1878.4390472695231,go,circleblack.png,left,0.35,,,,,,,,,,,,,,,0.0017484426498413086,0.4892619773745537,,1880.941280849278,test,2,,,,,,,,,,1878.4566950500011,1878.9546260386705,1878.9546260386705,1878.9712528958917,1879.3060777410865,1879.8058382868767,1879.9559596180916,1880.9604844748974,left,1,0.6537660285830498,0.35,,,,,,,,,,,s036,001,2024-09-24_13h02.33.071,simplestop_skeleton,2022.2.2,59.936756764601796,
$currentCorrectResponse,$currentGoStim,,,,,,,,,1,0,1,0,8,0,32,0,,,,,,,,,1880.9417489394546,stop,circleblack.png,left,0.35,,,,,,,,,,,,,,,0.001735292375087738,0.4884415492415428,0.8397212997078896,1883.444609105587,test,2,,,,,,,,,,1880.9604844748974,1881.4578398615122,1881.4578398615122,1881.4745894744992,1881.8088440969586,1882.3085487633944,1882.4587622135878,1883.4621141701937,None,0,,0.4,,,,,,,,,,,s036,001,2024-09-24_13h02.33.071,simplestop_skeleton,2022.2.2,59.936756764601796,
None,None,,,,,,,,,1,0,1,0,8,1,33,1,,,,,,,,,1883.4453772082925,stop,circleblack.png,left,0.4,,,,,,,,,,,,,,,0.001226082444190979,0.4887935668230057,0.8908370211720467,1885.9474212676287,test,2,,,,,,,,,,1883.4621141701937,1883.9604383707047,1883.9604383707047,1883.9767957925797,1884.3623840138316,1884.8614008650184,1884.9615998491645,1885.9645458981395,None,0,,0.45,,,,,,,,,,,s036,001,2024-09-24_13h02.33.071,simplestop_skeleton,2022.2.2,59.936756764601796,
None,None,,,,,,,,,1,0,1,0,8,2,34,3,,,,,,,,,1885.9481273293495,go,circleblack.png,left,0.45,,,,,,,,,,,,,,,0.0012382864952087402,0.4892619103193283,,1888.450824700296,test,2,,,,,,,,,,1885.9645458981395,1886.4630181267858,1886.4630181267858,1886.4796383604407,1886.915411375463,1887.4307704046369,1887.4642455652356,1888.4687281250954,left,1,0.6931902319192886,0.45,,,,,,,,,,,s036,001,2024-09-24_13h02.33.071,simplestop_skeleton,2022.2.2,59.936756764601796,
None,None,,,,,,,,,1,0,1,0,8,3,35,2,,,,,,,,,1888.451446287334,go,circleblack.png,left,0.45,,,,,,,,,,,,,,,0.0014041364192962646,0.48791080713272095,,1890.952394478023,test,2,,,,,,,,,,1888.4687281250954,1888.9657528996468,1888.9657528996468,1888.9822601377964,1889.4179592952132,1889.9335748627782,1889.966988272965,1890.9691394791007,left,1,0.696169026196003,0.45,,,,,,,,,,,s036,001,2024-09-24_13h02.33.071,simplestop_skeleton,2022.2.2,59.936756764601796,
None,None,,,,,,,,,1,0,1,0,9,0,36,3,,,,,,,,,1890.9528733715415,go,circleblack.png,left,0.45,,,,,,,,,,,,,,,0.0012728646397590637,0.4895302429795265,,1893.4553186371922,test,2,,,,,,,,,,1890.9691394791007,1891.468380779028,1891.468380779028,1891.468380779028,1891.9207377284765,1892.4198043495417,1892.469845853746,1893.4774068295956,left,1,0.7510553821921349,0.45,,,,,,,,,,,s036,001,2024-09-24_13h02.33.071,simplestop_skeleton,2022.2.2,59.936756764601796,
$currentCorrectResponse,$currentGoStim,,,,,,,,,1,0,1,0,9,1,37,0,,,,,,,,,1893.4557555094361,go,squareblack.png,right,0.45,,,,,,,,,,,,,,,0.007270552217960358,0.4899962469935417,,1895.9579558297992,test,2,,,,,,,,,,1893.4774068295956,1893.9712321385741,1893.9712321385741,1893.9878762066364,1894.4235502928495,1894.9392055943608,1894.9727682620287,1895.9748875796795,right,1,0.7960539683699608,0.45,,,,,,,,,,,s036,001,2024-09-24_13h02.33.071,simplestop_skeleton,2022.2.2,59.936756764601796,
None,None,,,,,,,,,1,0,1,0,9,2,38,2,,,,,,,,,1895.958441451192,go,squareblack.png,right,0.45,,,,,,,,,,,,,,,0.0011853277683258057,0.489599771797657,,1898.4607203006744,test,2,,,,,,,,,,1895.9748875796795,1896.4742601439357,1896.4742601439357,1896.4742601439357,1896.9263599514961,1897.441942885518,1897.4754557833076,1898.4783966466784,right,1,0.7289129048585892,0.45,,,,,,,,,,,s036,001,2024-09-24_13h02.33.071,simplestop_skeleton,2022.2.2,59.936756764601796,
$currentCorrectResponse,$currentGoStim,,,,,,,,,1,0,1,0,9,3,39,0,,,,,,,,,1898.4611713066697,go,circleblack.png,left,0.45,,,,,,,,,,,,,,,0.001963578164577484,0.48976881057024,,1900.9634929969907,test,2,,,,,,,,,,1898.4783966466784,1898.9767997264862,1898.9767997264862,1898.9933736175299,1899.4291641637683,1899.9445568695664,1899.9780301228166,1900.9947040304542,left,1,0.776517890393734,0.45,,,,,,,,,,,s036,001,2024-09-24_13h02.33.071,simplestop_skeleton,2022.2.2,59.936756764601796,
None,None,,,,,,,,,1,0,1,0,10,0,40,1,,,,,,,,,1900.963938742876,stop,squareblack.png,right,0.45,,,,,,,,,,,,,,,0.0016057789325714111,0.4905953034758568,0.9403560608625412,1903.4663804396987,test,2,,,,,,,,,,1900.9947040304542,1901.4804436415434,1901.4804436415434,1901.4969717860222,1901.930135332048,1902.4307199791074,1902.4807486981153,1903.4831338524818,None,0,,0.5,,,,,,,,,,,s036,001,2024-09-24_13h02.33.071,simplestop_skeleton,2022.2.2,59.936756764601796,
None,None,,,,,,,,,1,0,1,0,10,1,41,2,,,,,,,,,1903.4668359309435,go,squareblack.png,right,0.5,,,,,,,,,,,,,,,0.00122099369764328,0.49038805067539215,,1905.9689499512315,test,2,,,,,,,,,,1903.4831338524818,1903.983269713819,1903.983269713819,1903.983269713819,1904.482961140573,1904.9835361391306,1904.9835361391306,1905.9856189638376,right,1,0.6936905458569527,0.5,,,,,,,,,,,s036,001,2024-09-24_13h02.33.071,simplestop_skeleton,2022.2.2,59.936756764601796,
None,None,,,,,,,,,1,0,1,0,10,2,42,1,,,,,,,,,1905.9694005995989,go,squareblack.png,right,0.5,,,,,,,,,,,,,,,0.0011633485555648804,0.49063076823949814,,1908.4724770635366,test,2,,,,,,,,,,1905.9856189638376,1906.4860997125506,1906.4860997125506,1906.4860997125506,1906.9857075735927,1907.4862706586719,1907.4862706586719,1908.4908280968666,right,1,0.942113995552063,0.5,,,,,,,,,,,s036,001,2024-09-24_13h02.33.071,simplestop_skeleton,2022.2.2,59.936756764601796,
None,None,,,,,,,,,1,0,1,0,10,3,43,1,,,,,,,,,1908.4729108512402,go,circleblack.png,left,0.5,,,,,,,,,,,,,,,0.0019323080778121948,0.4887162670493126,,1910.974419042468,test,2,,,,,,,,,,1908.4908280968666,1908.9877359122038,1908.9877359122038,1909.0044764205813,1909.4884658902884,1909.9890590384603,1909.9890590384603,1910.9912193194032,left,1,0.5593306571245193,0.5,,,,,,,,,,,s036,001,2024-09-24_13h02.33.071,simplestop_skeleton,2022.2.2,59.936756764601796,
$currentCorrectResponse,$currentGoStim,,,,,,,,,1,0,1,0,11,0,44,0,,,,,,,,,1910.9748534038663,stop,circleblack.png,left,0.5,,,,,,,,,,,,,,,0.001235082745552063,0.4905572757124901,0.9904263764619827,1913.477473527193,test,2,,,,,,,,,,1910.9912193194032,1911.4918510317802,1911.4918510317802,1911.4918510317802,1911.9912701621652,1912.4919624477625,1912.4919624477625,1913.49462608248,left,1,0.6725429445505142,0.45,,,,,,,,,,,s036,001,2024-09-24_13h02.33.071,simplestop_skeleton,2022.2.2,59.936756764601796,
None,None,,,,,,,,,1,0,1,0,11,1,45,3,,,,,,,,,1913.4779069572687,go,circleblack.png,left,0.45,,,,,,,,,,,,,,,0.0012400150299072266,0.49068769067525864,,1915.9799206852913,test,2,,,,,,,,,,1913.49462608248,1913.9948796704412,1913.9948796704412,1913.9948796704412,1914.4438309296966,1914.9445888027549,1914.9945172518492,1915.996746852994,left,1,0.6263824924826622,0.45,,,,,,,,,,,s036,001,2024-09-24_13h02.33.071,simplestop_skeleton,2022.2.2,59.936756764601796,
None,None,,,,,,,,,1,0,1,0,11,2,46,3,,,,,,,,,1915.980350524187,stop,circleblack.png,left,0.45,,,,,,,,,,,,,,,0.0012604594230651855,0.49058903753757477,0.9403828456997871,1918.4827011078596,test,2,,,,,,,,,,1915.996746852994,1916.497762568295,1916.497762568295,1916.497762568295,1916.9467462152243,1917.4474803432822,1917.4974435791373,1918.504983380437,None,0,,0.5,,,,,,,,,,,s036,001,2024-09-24_13h02.33.071,simplestop_skeleton,2022.2.2,59.936756764601796,
None,None,,,,,,,,,1,0,1,0,11,3,47,2,,,,,,,,,1918.4831538945436,stop,squareblack.png,right,0.5,,,,,,,,,,,,,,,0.0070665329694747925,0.4913371428847313,0.9903077334165573,1920.986087217927,test,2,,,,,,,,,,1918.504983380437,1919.000536352396,1919.000536352396,1919.0171253979206,1919.4994496554136,1919.9998894557357,1919.9998894557357,1921.0058218240738,right,1,0.561710312962532,0.45,,,,,,,,,,,s036,001,2024-09-24_13h02.33.071,simplestop_skeleton,2022.2.2,59.936756764601796,
,,,,,,,,,,1,0,1,0,,,,,,,,,,,,,,,,,,,,,,,,,,,,,,,,,,,,,,,,,,,,,,,,,,,,,,,,,,,1921.0058218240738,1921.0058218240738,return,7.906447716057301,"[{'fileName': 'circleblack.png', 'correct_response': 'left', 'condition': 'stop'}, {'fileName': 'squareblack.png', 'correct_response': 'right', 'condition': 'go'}, {'fileName': 'circleblack.png', 'correct_response': 'left', 'condition': 'go'}, {'fileName': 'squareblack.png', 'correct_response': 'right', 'condition': 'go'}, {'fileName': 'circleblack.png', 'correct_response': 'left', 'condition': 'go'}, {'fileName': 'squareblack.png', 'correct_response': 'right', 'condition': 'stop'}, {'fileName': 'squareblack.png', 'correct_response': 'right', 'condition': 'stop'}, {'fileName': 'circleblack.png', 'correct_response': 'left', 'condition': 'go'}, {'fileName': 'squareblack.png', 'correct_response': 'right', 'condition': 'go'}, {'fileName': 'circleblack.png', 'correct_response': 'left', 'condition': 'go'}, {'fileName': 'circleblack.png', 'correct_response': 'left', 'condition': 'stop'}, {'fileName': 'squareblack.png', 'correct_response': 'right', 'condition': 'go'}, {'fileName': 'circleblack.png', 'correct_response': 'left', 'condition': 'go'}, {'fileName': 'circleblack.png', 'correct_response': 'left', 'condition': 'stop'}, {'fileName': 'circleblack.png', 'correct_response': 'left', 'condition': 'go'}, {'fileName': 'squareblack.png', 'correct_response': 'right', 'condition': 'go'}, {'fileName': 'squareblack.png', 'correct_response': 'right', 'condition': 'go'}, {'fileName': 'squareblack.png', 'correct_response': 'right', 'condition': 'stop'}, {'fileName': 'circleblack.png', 'correct_response': 'left', 'condition': 'go'}, {'fileName': 'circleblack.png', 'correct_response': 'left', 'condition': 'go'}, {'fileName': 'squareblack.png', 'correct_response': 'right', 'condition': 'go'}, {'fileName': 'squareblack.png', 'correct_response': 'right', 'condition': 'stop'}, {'fileName': 'squareblack.png', 'correct_response': 'right', 'condition': 'go'}, {'fileName': 'circleblack.png', 'correct_response': 'left', 'condition': 'stop'}, {'fileName': 'squareblack.png', 'correct_response': 'right', 'condition': 'go'}, {'fileName': 'squareblack.png', 'correct_response': 'right', 'condition': 'go'}, {'fileName': 'squareblack.png', 'correct_response': 'right', 'condition': 'stop'}, {'fileName': 'squareblack.png', 'correct_response': 'right', 'condition': 'stop'}, {'fileName': 'squareblack.png', 'correct_response': 'right', 'condition': 'go'}, {'fileName': 'squareblack.png', 'correct_response': 'right', 'condition': 'go'}, {'fileName': 'circleblack.png', 'correct_response': 'left', 'condition': 'go'}, {'fileName': 'circleblack.png', 'correct_response': 'left', 'condition': 'go'}, {'fileName': 'circleblack.png', 'correct_response': 'left', 'condition': 'stop'}, {'fileName': 'circleblack.png', 'correct_response': 'left', 'condition': 'go'}, {'fileName': 'circleblack.png', 'correct_response': 'left', 'condition': 'go'}, {'fileName': 'circleblack.png', 'correct_response': 'left', 'condition': 'stop'}, {'fileName': 'circleblack.png', 'correct_response': 'left', 'condition': 'stop'}, {'fileName': 'circleblack.png', 'correct_response': 'left', 'condition': 'go'}, {'fileName': 'squareblack.png', 'correct_response': 'right', 'condition': 'stop'}, {'fileName': 'circleblack.png', 'correct_response': 'left', 'condition': 'go'}, {'fileName': 'squareblack.png', 'correct_response': 'right', 'condition': 'go'}, {'fileName': 'squareblack.png', 'correct_response': 'right', 'condition': 'go'}, {'fileName': 'circleblack.png', 'correct_response': 'left', 'condition': 'go'}, {'fileName': 'squareblack.png', 'correct_response': 'right', 'condition': 'go'}, {'fileName': 'squareblack.png', 'correct_response': 'right', 'condition': 'stop'}, {'fileName': 'squareblack.png', 'correct_response': 'right', 'condition': 'go'}, {'fileName': 'circleblack.png', 'correct_response': 'left', 'condition': 'stop'}, {'fileName': 'circleblack.png', 'correct_response': 'left', 'condition': 'go'}]",,,,,,s036,001,2024-09-24_13h02.33.071,simplestop_skeleton,2022.2.2,59.936756764601796,
$currentCorrectResponse,$currentGoStim,,,,,,,,,2,0,2,0,0,0,0,0,,,,,,,,,1928.9598555639386,stop,circleblack.png,left,0.45,,,,,,,,,,,,,,,0.0027082115411758423,0.4895935654640198,0.9398949667811394,1931.465534619987,test,3,,,,,,,,,,1928.9815681129694,1929.4772385582328,1929.4772385582328,1929.493852071464,1929.9274810403585,1930.4280575886369,1930.4780797213316,1931.4898095801473,None,0,,0.5,,,,,,,,,,,s036,001,2024-09-24_13h02.33.071,simplestop_skeleton,2022.2.2,59.936756764601796,
None,None,,,,,,,,,2,0,2,0,0,1,1,1,,,,,,,,,1931.4660649225116,go,squareblack.png,right,0.5,,,,,,,,,,,,,,,0.0073518306016922,0.48922527581453323,,1933.9670011475682,test,3,,,,,,,,,,1931.4898095801473,1931.981245830655,1931.981245830655,1931.998002231121,1932.481686361134,1932.9824368581176,1932.9824368581176,1933.9850749522448,right,1,0.7063808292150497,0.5,,,,,,,,,,,s036,001,2024-09-24_13h02.33.071,simplestop_skeleton,2022.2.2,59.936756764601796,
None,None,,,,,,,,,2,0,2,0,0,2,2,3,,,,,,,,,1933.9674430042505,go,circleblack.png,left,0.5,,,,,,,,,,,,,,,0.001820005476474762,0.4890783429145813,,1936.4698252528906,test,3,,,,,,,,,,1933.9850749522448,1934.4825684204698,1934.4825684204698,1934.4992857724428,1934.9832060486078,1935.4837610125542,1935.4837610125542,1936.4880188256502,left,1,0.9048661515116692,0.5,,,,,,,,,,,s036,001,2024-09-24_13h02.33.071,simplestop_skeleton,2022.2.2,59.936756764601796,
$currentCorrectResponse,$currentGoStim,,,,,,,,,2,0,2,0,0,3,3,0,,,,,,,,,1936.4703013375401,go,squareblack.png,right,0.5,,,,,,,,,,,,,,,0.0017207562923431396,0.48868583142757416,,1938.9723716378212,test,3,,,,,,,,,,1936.4880188256502,1936.9853623136878,1936.9853623136878,1937.0019807890058,1937.4859015122056,1937.9866352379322,1937.9866352379322,1938.9909226819873,right,1,0.8011231794953346,0.5,,,,,,,,,,,s036,001,2024-09-24_13h02.33.071,simplestop_skeleton,2022.2.2,59.936756764601796,
None,None,,,,,,,,,2,0,2,0,1,0,4,1,,,,,,,,,1938.972820609808,go,circleblack.png,left,0.5,,,,,,,,,,,,,,,0.001854032278060913,0.4888353645801544,,1941.475188113749,test,3,,,,,,,,,,1938.9909226819873,1939.4881216660142,1939.4881216660142,1939.504808217287,1939.9885796755552,1940.489211767912,1940.489211767912,1941.4934005364776,left,1,0.8469762429594994,0.5,,,,,,,,,,,s036,001,2024-09-24_13h02.33.071,simplestop_skeleton,2022.2.2,59.936756764601796,
None,None,,,,,,,,,2,0,2,0,1,1,5,3,,,,,,,,,1941.475632660091,stop,squareblack.png,right,0.5,,,,,,,,,,,,,,,0.0017176419496536255,0.4887440428137779,0.9893638044595718,1943.9779714867473,test,3,,,,,,,,,,1941.4934005364776,1941.9908178672194,1941.9908178672194,1942.0075376406312,1942.4914209097624,1942.9925949275494,1942.9925949275494,1943.9953398182988,None,0,,0.55,,,,,,,,,,,s036,001,2024-09-24_13h02.33.071,simplestop_skeleton,2022.2.2,59.936756764601796,
None,None,,,,,,,,,2,0,2,0,1,2,6,1,,,,,,,,,1943.9784233048558,stop,squareblack.png,right,0.55,,,,,,,,,,,,,,,0.0012728944420814514,0.48900672048330307,1.0394463688135147,1946.4807283580303,test,3,,,,,,,,,,1943.9953398182988,1944.4939892590046,1944.4939892590046,1944.5103246048093,1945.0442166775465,1945.5450303554535,1945.494962029159,1946.499148644507,right,1,0.5553926378488541,0.5,,,,,,,,,,,s036,001,2024-09-24_13h02.33.071,simplestop_skeleton,2022.2.2,59.936756764601796,
$currentCorrectResponse,$currentGoStim,,,,,,,,,2,0,2,0,1,3,7,0,,,,,,,,,1946.4811922758818,go,circleblack.png,left,0.5,,,,,,,,,,,,,,,0.0019442960619926453,0.48907897621393204,,1948.98346786201,test,3,,,,,,,,,,1946.499148644507,1946.9963485449553,1946.9963485449553,1947.0130893290043,1947.4968696311116,1947.9980004504323,1947.9980004504323,1949.0015431120992,left,1,0.5572799891233444,0.5,,,,,,,,,,,s036,001,2024-09-24_13h02.33.071,simplestop_skeleton,2022.2.2,59.936756764601796,
None,None,,,,,,,,,2,0,2,0,2,0,8,3,,,,,,,,,1948.9839242696762,go,squareblack.png,right,0.5,,,,,,,,,,,,,,,0.0017603561282157898,0.4892326593399048,,1951.486173339188,test,3,,,,,,,,,,1949.0015431120992,1949.4991836249828,1949.4991836249828,1949.5158294513822,1949.9997131973505,1950.5005204752088,1950.5005204752088,1951.504793919623,right,1,0.7777278125286102,0.5,,,,,,,,,,,s036,001,2024-09-24_13h02.33.071,simplestop_skeleton,2022.2.2,59.936756764601796,
None,None,,,,,,,,,2,0,2,0,2,1,9,2,,,,,,,,,1951.4866965338588,go,circleblack.png,left,0.5,,,,,,,,,,,,,,,0.0018761307001113892,0.48884229362010956,,1953.9889357313514,test,3,,,,,,,,,,1951.504793919623,1952.0020578801632,1952.0020578801632,1952.0185381397605,1952.5023712292314,1953.003269545734,1953.003269545734,1954.006628587842,left,1,0.7033592984080315,0.5,,,,,,,,,,,s036,001,2024-09-24_13h02.33.071,simplestop_skeleton,2022.2.2,59.936756764601796,
None,None,,,,,,,,,2,0,2,0,2,2,10,2,,,,,,,,,1953.9893854036927,stop,circleblack.png,left,0.5,,,,,,,,,,,,,,,0.0013218298554420471,0.48923511803150177,0.9895172864198685,1956.4916359633207,test,3,,,,,,,,,,1954.006628587842,1954.5048583894968,1954.5048583894968,1954.5215996652842,1955.0052431970835,1955.505863904953,1955.505863904953,1956.5098180174828,left,1,0.6359684765338898,0.45,,,,,,,,,,,s036,001,2024-09-24_13h02.33.071,simplestop_skeleton,2022.2.2,59.936756764601796,
None,None,,,,,,,,,2,0,2,0,2,3,11,2,,,,,,,,,1956.4921015575528,go,squareblack.png,right,0.45,,,,,,,,,,,,,,,0.0018664896488189697,0.4891863092780113,,1958.9942833259702,test,3,,,,,,,,,,1956.5098180174828,1957.007599428296,1957.007599428296,1957.0242468565702,1957.458011612296,1957.9584623128176,1958.00841614604,1959.0124694406986,right,1,0.7133082821965218,0.45,,,,,,,,,,,s036,001,2024-09-24_13h02.33.071,simplestop_skeleton,2022.2.2,59.936756764601796,
None,None,,,,,,,,,2,0,2,0,3,0,12,3,,,,,,,,,1958.994751997292,go,circleblack.png,left,0.45,,,,,,,,,,,,,,,0.0018431693315505981,0.48944607377052307,,1961.4970760941505,test,3,,,,,,,,,,1959.0124694406986,1959.5103356465697,1959.5103356465697,1959.5271421447396,1959.9608454555273,1960.461257636547,1960.5112301558256,1961.5147633701563,left,1,0.6469760984182358,0.45,,,,,,,,,,,s036,001,2024-09-24_13h02.33.071,simplestop_skeleton,2022.2.2,59.936756764601796,
$currentCorrectResponse,$currentGoStim,,,,,,,,,2,0,2,0,3,1,13,0,,,,,,,,,1961.4975221678615,stop,circleblack.png,left,0.45,,,,,,,,,,,,,,,0.0013198480010032654,0.4893893226981163,0.9395457059144974,1964.0002802088857,test,3,,,,,,,,,,1961.5147633701563,1962.0132211446762,1962.0132211446762,1962.0298096388578,1962.4635636210442,1962.9640221819282,1963.0139977931976,1964.0180471017957,None,0,,0.5,,,,,,,,,,,s036,001,2024-09-24_13h02.33.071,simplestop_skeleton,2022.2.2,59.936756764601796,
None,None,,,,,,,,,2,0,2,0,3,2,14,3,,,,,,,,,1964.0007627159357,go,circleblack.png,left,0.5,,,,,,,,,,,,,,,0.001307763159275055,0.4889531582593918,,1966.5026588961482,test,3,,,,,,,,,,1964.0180471017957,1964.5159439146519,1964.5159439146519,1964.5324996188283,1965.016166254878,1965.5167287662625,1965.5167287662625,1966.525317594409,left,1,0.520714245736599,0.5,,,,,,,,,,,s036,001,2024-09-24_13h02.33.071,simplestop_skeleton,2022.2.2,59.936756764601796,
None,None,,,,,,,,,2,0,2,0,3,3,15,3,,,,,,,,,1966.5031038671732,go,squareblack.png,right,0.5,,,,,,,,,,,,,,,0.007368437945842743,0.4893122836947441,,1969.0054243206978,test,3,,,,,,,,,,1966.525317594409,1967.0187170952559,1967.0187170952559,1967.035385362804,1967.5189747214317,1968.019497267902,1968.019497267902,1969.0225621834397,right,1,0.6668750867247581,0.5,,,,,,,,,,,s036,001,2024-09-24_13h02.33.071,simplestop_skeleton,2022.2.2,59.936756764601796,
None,None,,,,,,,,,2,0,2,0,4,0,16,3,,,,,,,,,1969.0058738142252,go,squareblack.png,right,0.5,,,,,,,,,,,,,,,0.0013671815395355225,0.4892885386943817,,1971.5082036182284,test,3,,,,,,,,,,1969.0225621834397,1969.521452397108,1969.521452397108,1969.5382487177849,1970.0217798426747,1970.5223532766104,1970.5223532766104,1971.5257575437427,right,1,0.669764555990696,0.5,,,,,,,,,,,s036,001,2024-09-24_13h02.33.071,simplestop_skeleton,2022.2.2,59.936756764601796,
None,None,,,,,,,,,2,0,2,0,4,1,17,2,,,,,,,,,1971.508650995791,stop,squareblack.png,right,0.5,,,,,,,,,,,,,,,0.001250140368938446,0.48920010030269623,0.9895256534218788,1974.0112097933888,test,3,,,,,,,,,,1971.5257575437427,1972.0242142006755,1972.0242142006755,1972.0407489463687,1972.5244682207704,1973.025062970817,1973.025062970817,1974.030520260334,right,1,0.6182635352015495,0.45,,,,,,,,,,,s036,001,2024-09-24_13h02.33.071,simplestop_skeleton,2022.2.2,59.936756764601796,
None,None,,,,,,,,,2,0,2,0,4,2,18,1,,,,,,,,,1974.0116861090064,go,circleblack.png,left,0.45,,,,,,,,,,,,,,,0.003923162817955017,0.4893781319260597,,1976.5135608837008,test,3,,,,,,,,,,1974.030520260334,1974.5269071683288,1974.5269071683288,1974.5435659363866,1974.9771560952067,1975.477721311152,1975.527797035873,1976.5311701744795,left,1,0.6723001822829247,0.45,,,,,,,,,,,s036,001,2024-09-24_13h02.33.071,simplestop_skeleton,2022.2.2,59.936756764601796,
None,None,,,,,,,,,2,0,2,0,4,3,19,2,,,,,,,,,1976.5140035003424,go,circleblack.png,left,0.45,,,,,,,,,,,,,,,0.001330636441707611,0.4893225431442261,,1979.0164919495583,test,3,,,,,,,,,,1976.5311701744795,1977.029590524733,1977.029590524733,1977.0464574173093,1977.4799566343427,1977.9805389791727,1978.0306366160512,1979.0347777083516,left,1,0.787727490067482,0.45,,,,,,,,,,,s036,001,2024-09-24_13h02.33.071,simplestop_skeleton,2022.2.2,59.936756764601796,
None,None,,,,,,,,,2,0,2,0,5,0,20,3,,,,,,,,,1979.0169567838311,go,squareblack.png,right,0.45,,,,,,,,,,,,,,,0.0016982853412628174,0.4892427995800972,,1981.519050128758,test,3,,,,,,,,,,1979.0347777083516,1979.532504864037,1979.532504864037,1979.549208715558,1979.9827272295952,1980.4832706600428,1980.533247962594,1981.536491677165,right,1,0.8787532150745392,0.45,,,,,,,,,,,s036,001,2024-09-24_13h02.33.071,simplestop_skeleton,2022.2.2,59.936756764601796,
None,None,,,,,,,,,2,0,2,0,5,1,21,2,,,,,,,,,1981.5194949135184,stop,squareblack.png,right,0.45,,,,,,,,,,,,,,,0.0012568086385726929,0.48957788944244385,0.939919963479042,1984.0237677320838,test,3,,,,,,,,,,1981.536491677165,1982.0355714708567,1982.0355714708567,1982.0518620610237,1982.4853940531611,1982.9861100018024,1983.0360876470804,1984.044665761292,right,1,0.5937186777591705,0.4,,,,,,,,,,,s036,001,2024-09-24_13h02.33.071,simplestop_skeleton,2022.2.2,59.936756764601796,
$currentCorrectResponse,$currentGoStim,,,,,,,,,2,0,2,0,5,2,22,0,,,,,,,,,1984.0242153406143,go,squareblack.png,right,0.4,,,,,,,,,,,,,,,0.0019774511456489563,0.4866081476211548,,1986.526208408177,test,3,,,,,,,,,,1984.044665761292,1984.5379583537579,1984.5379583537579,1984.554682597518,1984.938467308879,1985.4387574717402,1985.5388151109219,1986.5470012426376,right,1,0.46807103604078293,0.4,,,,,,,,,,,s036,001,2024-09-24_13h02.33.071,simplestop_skeleton,2022.2.2,59.936756764601796,
None,None,,,,,,,,,2,0,2,0,5,3,23,2,,,,,,,,,1986.5266538709402,stop,circleblack.png,left,0.4,,,,,,,,,,,,,,,0.002716667950153351,0.4892456457018852,0.8880146592855453,1989.028459250927,test,3,,,,,,,,,,1986.5470012426376,1987.0426371470094,1987.0426371470094,1987.0588863939047,1987.441100165248,1987.941472493112,1988.05825984478,1989.0464521571994,None,0,,0.45,,,,,,,,,,,s036,001,2024-09-24_13h02.33.071,simplestop_skeleton,2022.2.2,59.936756764601796,
None,None,,,,,,,,,2,0,2,0,6,0,24,2,,,,,,,,,1989.0289101526141,go,squareblack.png,right,0.45,,,,,,,,,,,,,,,0.0018557682633399963,0.48836760222911835,,1991.530557885766,test,3,,,,,,,,,,1989.0464521571994,1989.5437685102224,1989.5437685102224,1989.5601932927966,1989.9939611181617,1990.4944370612502,1990.5442830324173,1991.5485030412674,right,1,0.6905236393213272,0.45,,,,,,,,,,,s036,001,2024-09-24_13h02.33.071,simplestop_skeleton,2022.2.2,59.936756764601796,
None,None,,,,,,,,,2,0,2,0,6,1,25,2,,,,,,,,,1991.5310299992561,go,squareblack.png,right,0.45,,,,,,,,,,,,,,,0.001430213451385498,0.4889913648366928,,1994.033252120018,test,3,,,,,,,,,,1991.5485030412674,1992.0463768169284,1992.0463768169284,1992.0628825128078,1992.4968641102314,1992.9973136037588,1993.0470796972513,1994.0508808493614,right,1,0.7844344973564148,0.45,,,,,,,,,,,s036,001,2024-09-24_13h02.33.071,simplestop_skeleton,2022.2.2,59.936756764601796,
$currentCorrectResponse,$currentGoStim,,,,,,,,,2,0,2,0,6,2,26,0,,,,,,,,,1994.0336856395006,stop,squareblack.png,right,0.45,,,,,,,,,,,,,,,0.0012708678841590881,0.4908420071005821,0.9396398589015007,1996.5355443060398,test,3,,,,,,,,,,1994.0508808493614,1994.5509261339903,1994.5509261339903,1994.5509261339903,1994.9994737133384,1995.5001104399562,1995.5502647906542,1996.5521863922477,None,0,,0.5,,,,,,,,,,,s036,001,2024-09-24_13h02.33.071,simplestop_skeleton,2022.2.2,59.936756764601796,
None,None,,,,,,,,,2,0,2,0,6,3,27,1,,,,,,,,,1996.5361955165863,stop,squareblack.png,right,0.5,,,,,,,,,,,,,,,0.001191742718219757,0.4906834214925766,0.9903879836201668,1999.0381595864892,test,3,,,,,,,,,,1996.5521863922477,1997.0524794012308,1997.0524794012308,1997.0524794012308,1997.5523661375046,1998.052941672504,1998.052941672504,1999.0549884662032,None,0,,0.55,,,,,,,,,,,s036,001,2024-09-24_13h02.33.071,simplestop_skeleton,2022.2.2,59.936756764601796,
$currentCorrectResponse,$currentGoStim,,,,,,,,,2,0,2,0,7,0,28,0,,,,,,,,,1999.0386101454496,go,squareblack.png,right,0.55,,,,,,,,,,,,,,,0.001156151294708252,0.4907718226313591,,2001.5410421416163,test,3,,,,,,,,,,1999.0549884662032,1999.5550283566117,1999.5550283566117,1999.5550283566117,2000.106758736074,2000.6223949044943,2000.555711582303,2001.557786911726,right,1,0.734802708029747,0.55,,,,,,,,,,,s036,001,2024-09-24_13h02.33.071,simplestop_skeleton,2022.2.2,59.936756764601796,
None,None,,,,,,,,,2,0,2,0,7,1,29,3,,,,,,,,,2001.5415152013302,go,squareblack.png,right,0.55,,,,,,,,,,,,,,,0.001191750168800354,0.49005232751369476,,2004.0438244491816,test,3,,,,,,,,,,2001.557786911726,2002.0574004873633,2002.0574004873633,2002.0574004873633,2002.6094514355063,2003.1250904276967,2003.058387413621,2004.0666875317693,right,1,0.9416211321949959,0.55,,,,,,,,,,,s036,001,2024-09-24_13h02.33.071,simplestop_skeleton,2022.2.2,59.936756764601796,
$currentCorrectResponse,$currentGoStim,,,,,,,,,2,0,2,0,7,2,30,0,,,,,,,,,2004.0442944914103,go,circleblack.png,left,0.55,,,,,,,,,,,,,,,0.007791779935359955,0.4896744638681412,,2006.5465433895588,test,3,,,,,,,,,,2004.0666875317693,2004.5598269626498,2004.5598269626498,2004.5765572190285,2005.1111177951097,2005.611194126308,2005.5611555427313,2006.5634964033961,left,1,0.8984158784151077,0.55,,,,,,,,,,,s036,001,2024-09-24_13h02.33.071,simplestop_skeleton,2022.2.2,59.936756764601796,
None,None,,,,,,,,,2,0,2,0,7,3,31,3,,,,,,,,,2006.5471392124891,go,circleblack.png,left,0.55,,,,,,,,,,,,,,,0.0012528002262115479,0.4894299581646919,,2009.0496644452214,test,3,,,,,,,,,,2006.5634964033961,2007.0625504106283,2007.0625504106283,2007.0625504106283,2007.6136370450258,2008.1150956824422,2008.065336033702,2009.0673481747508,left,1,0.913710355758667,0.55,,,,,,,,,,,s036,001,2024-09-24_13h02.33.071,simplestop_skeleton,2022.2.2,59.936756764601796,
None,None,,,,,,,,,2,0,2,0,8,0,32,2,,,,,,,,,2009.0501133278012,stop,circleblack.png,left,0.55,,,,,,,,,,,,,,,0.001321546733379364,0.4887925833463669,1.0394965708255768,2011.5525578707457,test,3,,,,,,,,,,2009.0673481747508,2009.5653713867068,2009.5653713867068,2009.5821371525526,2010.1160500496626,2010.617510549724,2010.567100673914,2011.5701234340668,left,1,0.6667127907276154,0.5,,,,,,,,,,,s036,001,2024-09-24_13h02.33.071,simplestop_skeleton,2022.2.2,59.936756764601796,
None,None,,,,,,,,,2,0,2,0,8,1,33,3,,,,,,,,,2011.5530239716172,go,circleblack.png,left,0.5,,,,,,,,,,,,,,,0.0015327855944633484,0.4890357479453087,,2014.0550976768136,test,3,,,,,,,,,,2011.5701234340668,2012.0683147981763,2012.0683147981763,2012.0850403159857,2012.5686415806413,2013.0692045539618,2013.0692045539618,2014.0737687721848,left,1,0.7137298732995987,0.5,,,,,,,,,,,s036,001,2024-09-24_13h02.33.071,simplestop_skeleton,2022.2.2,59.936756764601796,
$currentCorrectResponse,$currentGoStim,,,,,,,,,2,0,2,0,8,2,34,0,,,,,,,,,2014.0555452555418,go,circleblack.png,left,0.5,,,,,,,,,,,,,,,0.001452915370464325,0.4885830953717232,,2016.5594757273793,test,3,,,,,,,,,,2014.0737687721848,2014.5711663588881,2014.5711663588881,2014.587721079588,2015.0727940052748,2015.5719620287418,2015.5719620287418,2016.5825121700764,left,1,0.9795534983277321,0.5,,,,,,,,,,,s036,001,2024-09-24_13h02.33.071,simplestop_skeleton,2022.2.2,59.936756764601796,
None,None,,,,,,,,,2,0,2,0,8,3,35,3,,,,,,,,,2016.5601830855012,stop,circleblack.png,left,0.5,,,,,,,,,,,,,,,0.0019784048199653625,0.48493606597185135,0.9855894520878792,2019.0626852884889,test,3,,,,,,,,,,2016.5825121700764,2017.073867611587,2017.073867611587,2017.0911102890968,2017.5745177865028,2018.076040558517,2018.076040558517,2019.0805765092373,None,0,,0.55,,,,,,,,,,,s036,001,2024-09-24_13h02.33.071,simplestop_skeleton,2022.2.2,59.936756764601796,
$currentCorrectResponse,$currentGoStim,,,,,,,,,2,0,2,0,9,0,36,0,,,,,,,,,2019.0631469413638,stop,circleblack.png,left,0.55,,,,,,,,,,,,,,,0.0017225295305252075,0.4881339520215988,1.0388438329100609,2021.5631571561098,test,3,,,,,,,,,,2019.0805765092373,2019.5766201391816,2019.5766201391816,2019.5934578925371,2020.1288802921772,2020.6444193795323,2020.5776267126203,2021.5799003615975,left,1,0.4295859932899475,0.5,,,,,,,,,,,s036,001,2024-09-24_13h02.33.071,simplestop_skeleton,2022.2.2,59.936756764601796,
None,None,,,,,,,,,2,0,2,0,9,1,37,2,,,,,,,,,2021.563601128757,go,circleblack.png,left,0.5,,,,,,,,,,,,,,,0.0012476369738578796,0.48975423723459244,,2024.0659102126956,test,3,,,,,,,,,,2021.5799003615975,2022.079201452434,2022.079201452434,2022.079201452434,2022.5814886242151,2023.0805168524384,2023.0805168524384,2024.088282905519,left,1,0.6957722008228302,0.5,,,,,,,,,,,s036,001,2024-09-24_13h02.33.071,simplestop_skeleton,2022.2.2,59.936756764601796,
$currentCorrectResponse,$currentGoStim,,,,,,,,,2,0,2,0,9,2,38,0,,,,,,,,,2024.066383332014,stop,squareblack.png,right,0.5,,,,,,,,,,,,,,,0.007496580481529236,0.4897189736366272,0.992103599011898,2026.5686601623893,test,3,,,,,,,,,,2024.088282905519,2024.5819045379758,2024.5819045379758,2024.5987083241343,2025.0840484574437,2025.583274267614,2025.583274267614,2026.5867770910263,right,1,0.6523232981562614,0.45,,,,,,,,,,,s036,001,2024-09-24_13h02.33.071,simplestop_skeleton,2022.2.2,59.936756764601796,
None,None,,,,,,,,,2,0,2,0,9,3,39,1,,,,,,,,,2026.5690953284502,go,circleblack.png,left,0.45,,,,,,,,,,,,,,,0.0018271058797836304,0.48901374638080597,,2029.0722150877118,test,3,,,,,,,,,,2026.5867770910263,2027.0846850201488,2027.0846850201488,2027.1013819351792,2027.535535953939,2028.0363692864776,2028.0861787050962,2029.0914462804794,left,1,0.46353715658187866,0.45,,,,,,,,,,,s036,001,2024-09-24_13h02.33.071,simplestop_skeleton,2022.2.2,59.936756764601796,
None,None,,,,,,,,,2,0,2,0,10,0,40,2,,,,,,,,,2029.0728885605931,go,squareblack.png,right,0.45,,,,,,,,,,,,,,,0.002357892692089081,0.48757411539554596,,2031.5758910924196,test,3,,,,,,,,,,2029.0914462804794,2029.5879987105727,2029.5879987105727,2029.604628622532,2030.038293287158,2030.538979060948,2030.589099548757,2031.597674779594,right,1,0.8797643780708313,0.45,,,,,,,,,,,s036,001,2024-09-24_13h02.33.071,simplestop_skeleton,2022.2.2,59.936756764601796,
None,None,,,,,,,,,2,0,2,0,10,1,41,1,,,,,,,,,2031.5766289234161,go,squareblack.png,right,0.45,,,,,,,,,,,,,,,0.0017206743359565735,0.4845607057213783,,2034.0784275904298,test,3,,,,,,,,,,2031.597674779594,2032.091286584735,2032.091286584735,2032.1081936880946,2032.5407734438777,2033.042918778956,2033.0930242314935,2034.0979410782456,right,1,0.8735117241740227,0.45,,,,,,,,,,,s036,001,2024-09-24_13h02.33.071,simplestop_skeleton,2022.2.2,59.936756764601796,
None,None,,,,,,,,,2,0,2,0,10,2,42,1,,,,,,,,,2034.0788531154394,go,circleblack.png,left,0.45,,,,,,,,,,,,,,,0.0018603727221488953,0.4900430962443352,,2036.581212542951,test,3,,,,,,,,,,2034.0979410782456,2034.595320791006,2034.595320791006,2034.6111449077725,2035.04499296844,2035.5456983670592,2035.5955189988017,2036.6008634120226,left,1,0.9345953017473221,0.45,,,,,,,,,,,s036,001,2024-09-24_13h02.33.071,simplestop_skeleton,2022.2.2,59.936756764601796,
$currentCorrectResponse,$currentGoStim,,,,,,,,,2,0,2,0,10,3,43,0,,,,,,,,,2036.5816408023238,go,squareblack.png,right,0.45,,,,,,,,,,,,,,,0.0017663165926933289,0.4895569905638695,,2039.0840745717287,test,3,,,,,,,,,,2036.6008634120226,2037.0977822840214,2037.0977822840214,2037.113914951682,2037.5476493909955,2038.0485210418701,2038.0984580293298,2039.1030299067497,right,1,0.5944143086671829,0.45,,,,,,,,,,,s036,001,2024-09-24_13h02.33.071,simplestop_skeleton,2022.2.2,59.936756764601796,
None,None,,,,,,,,,2,0,2,0,11,0,44,1,,,,,,,,,2039.0845234841108,stop,squareblack.png,right,0.45,,,,,,,,,,,,,,,0.0013367906212806702,0.4896097779273987,0.9401497915387154,2041.5867455750704,test,3,,,,,,,,,,2039.1030299067497,2039.600135743618,2039.600135743618,2039.6168648004532,2040.050619378686,2040.5511225759983,2040.601326815784,2041.6058661192656,right,1,0.5887622758746147,0.4,,,,,,,,,,,s036,001,2024-09-24_13h02.33.071,simplestop_skeleton,2022.2.2,59.936756764601796,
None,None,,,,,,,,,2,0,2,0,11,1,45,1,,,,,,,,,2041.5871681272984,go,squareblack.png,right,0.4,,,,,,,,,,,,,,,0.001313045620918274,0.4893852025270462,,2044.0897133350372,test,3,,,,,,,,,,2041.6058661192656,2042.1030482426286,2042.1030482426286,2042.1195050626993,2042.5035384446383,2043.00391715765,2043.1041835397482,2044.1097303032875,right,1,0.5743911564350128,0.4,,,,,,,,,,,s036,001,2024-09-24_13h02.33.071,simplestop_skeleton,2022.2.2,59.936756764601796,
None,None,,,,,,,,,2,0,2,0,11,2,46,1,,,,,,,,,2044.0901527628303,stop,circleblack.png,left,0.4,,,,,,,,,,,,,,,0.00273025780916214,0.48922203481197357,0.8897681757807732,2046.592190951109,test,3,,,,,,,,,,2044.1097303032875,2044.6055646538734,2044.6055646538734,2044.6225895509124,2045.0060086846352,2045.5066902264953,2045.6067361310124,2046.6114468872547,None,0,,0.45,,,,,,,,,,,s036,001,2024-09-24_13h02.33.071,simplestop_skeleton,2022.2.2,59.936756764601796,
None,None,,,,,,,,,2,0,2,0,11,3,47,1,,,,,,,,,2046.5926410481334,go,circleblack.png,left,0.45,,,,,,,,,,,,,,,0.0014147236943244934,0.48922283202409744,,2049.0950541868806,test,3,,,,,,,,,,2046.6114468872547,2047.1082258224487,2047.1082258224487,2047.1251580789685,2047.5586847439408,2048.059308052063,2048.1095144301653,2049.1147574558854,left,1,0.659642681479454,0.45,,,,,,,,,,,s036,001,2024-09-24_13h02.33.071,simplestop_skeleton,2022.2.2,59.936756764601796,
