corrGoResp,shape,practiceBlocks.thisRepN,practiceBlocks.thisTrialN,practiceBlocks.thisN,practiceBlocks.thisIndex,practiceTrials.thisRepN,practiceTrials.thisTrialN,practiceTrials.thisN,practiceTrials.thisIndex,stopBlocks.thisRepN,stopBlocks.thisTrialN,stopBlocks.thisN,stopBlocks.thisIndex,testTrials.thisRepN,testTrials.thisTrialN,testTrials.thisN,testTrials.thisIndex,stopPracTrialList,Test Block: 1,welcome.started,start_exp.started,start_exp.keys,start_exp.rt,instrStopText.started,start_prac.started,StartTrialTimeStamp,trialType,goStim,correctResponse,ssd,fixation.started,rules.started,goStim.started,goResp.started,fixation.stopped,stopSignal.started,stopSignal.stopped,goStim.stopped,goResp.stopped,rules.stopped,goResp.keys,goResp.corr,goResp.rt,text.started,rules_2.started,text.stopped,rules_2.stopped,fixationOnset,goStimOnset,stopSignalOnset,EndTrialTimeStamp,Phase,Block,text_5.started,key_resp_3.started,key_resp_3.keys,key_resp_3.rt,key_resp.started,testText.started,test_fixation.started,goStim_test.started,goResp_test.started,test_fixation.stopped,stopSignal_test.started,stopSignal_test.stopped,goStim_test.stopped,goResp_test.stopped,goResp_test.keys,goResp_test.corr,EndingSSD,goResp_test.rt,text_6.started,key_resp_4.started,key_resp_4.keys,key_resp_4.rt,Test Block: 2,Test Block: 3,ending_text.started,end_resp.started,end_resp.keys,end_resp.rt,participant,session,date,expName,psychopyVersion,frameRate,
,,,,,,,,,,,,,,,,,,"[{'fileName': 'squareblack.png', 'correct_response': 'right', 'condition': 'go'}, {'fileName': 'squareblack.png', 'correct_response': 'right', 'condition': 'go'}, {'fileName': 'squareblack.png', 'correct_response': 'right', 'condition': 'stop'}, {'fileName': 'squareblack.png', 'correct_response': 'right', 'condition': 'go'}, {'fileName': 'circleblack.png', 'correct_response': 'left', 'condition': 'stop'}, {'fileName': 'circleblack.png', 'correct_response': 'left', 'condition': 'go'}, {'fileName': 'squareblack.png', 'correct_response': 'right', 'condition': 'go'}, {'fileName': 'circleblack.png', 'correct_response': 'left', 'condition': 'go'}, {'fileName': 'circleblack.png', 'correct_response': 'left', 'condition': 'stop'}, {'fileName': 'squareblack.png', 'correct_response': 'right', 'condition': 'stop'}, {'fileName': 'circleblack.png', 'correct_response': 'left', 'condition': 'go'}, {'fileName': 'circleblack.png', 'correct_response': 'left', 'condition': 'go'}, {'fileName': 'circleblack.png', 'correct_response': 'left', 'condition': 'go'}, {'fileName': 'circleblack.png', 'correct_response': 'left', 'condition': 'go'}, {'fileName': 'circleblack.png', 'correct_response': 'left', 'condition': 'stop'}, {'fileName': 'squareblack.png', 'correct_response': 'right', 'condition': 'go'}, {'fileName': 'squareblack.png', 'correct_response': 'right', 'condition': 'go'}, {'fileName': 'squareblack.png', 'correct_response': 'right', 'condition': 'stop'}, {'fileName': 'circleblack.png', 'correct_response': 'left', 'condition': 'go'}, {'fileName': 'circleblack.png', 'correct_response': 'left', 'condition': 'go'}, {'fileName': 'circleblack.png', 'correct_response': 'left', 'condition': 'stop'}, {'fileName': 'squareblack.png', 'correct_response': 'right', 'condition': 'go'}, {'fileName': 'squareblack.png', 'correct_response': 'right', 'condition': 'stop'}, {'fileName': 'squareblack.png', 'correct_response': 'right', 'condition': 'go'}]","[{'fileName': 'circleblack.png', 'correct_response': 'left', 'condition': 'stop'}, {'fileName': 'squareblack.png', 'correct_response': 'right', 'condition': 'go'}, {'fileName': 'squareblack.png', 'correct_response': 'right', 'condition': 'stop'}, {'fileName': 'circleblack.png', 'correct_response': 'left', 'condition': 'go'}, {'fileName': 'squareblack.png', 'correct_response': 'right', 'condition': 'go'}, {'fileName': 'squareblack.png', 'correct_response': 'right', 'condition': 'go'}, {'fileName': 'circleblack.png', 'correct_response': 'left', 'condition': 'go'}, {'fileName': 'circleblack.png', 'correct_response': 'left', 'condition': 'stop'}, {'fileName': 'circleblack.png', 'correct_response': 'left', 'condition': 'go'}, {'fileName': 'squareblack.png', 'correct_response': 'right', 'condition': 'stop'}, {'fileName': 'squareblack.png', 'correct_response': 'right', 'condition': 'go'}, {'fileName': 'circleblack.png', 'correct_response': 'left', 'condition': 'go'}, {'fileName': 'squareblack.png', 'correct_response': 'right', 'condition': 'go'}, {'fileName': 'squareblack.png', 'correct_response': 'right', 'condition': 'go'}, {'fileName': 'circleblack.png', 'correct_response': 'left', 'condition': 'go'}, {'fileName': 'squareblack.png', 'correct_response': 'right', 'condition': 'go'}, {'fileName': 'squareblack.png', 'correct_response': 'right', 'condition': 'stop'}, {'fileName': 'squareblack.png', 'correct_response': 'right', 'condition': 'go'}, {'fileName': 'circleblack.png', 'correct_response': 'left', 'condition': 'go'}, {'fileName': 'circleblack.png', 'correct_response': 'left', 'condition': 'stop'}, {'fileName': 'circleblack.png', 'correct_response': 'left', 'condition': 'stop'}, {'fileName': 'circleblack.png', 'correct_response': 'left', 'condition': 'go'}, {'fileName': 'circleblack.png', 'correct_response': 'left', 'condition': 'go'}, {'fileName': 'squareblack.png', 'correct_response': 'right', 'condition': 'stop'}, {'fileName': 'circleblack.png', 'correct_response': 'left', 'condition': 'go'}, {'fileName': 'circleblack.png', 'correct_response': 'left', 'condition': 'stop'}, {'fileName': 'squareblack.png', 'correct_response': 'right', 'condition': 'go'}, {'fileName': 'circleblack.png', 'correct_response': 'left', 'condition': 'go'}, {'fileName': 'circleblack.png', 'correct_response': 'left', 'condition': 'go'}, {'fileName': 'squareblack.png', 'correct_response': 'right', 'condition': 'go'}, {'fileName': 'squareblack.png', 'correct_response': 'right', 'condition': 'stop'}, {'fileName': 'squareblack.png', 'correct_response': 'right', 'condition': 'go'}, {'fileName': 'squareblack.png', 'correct_response': 'right', 'condition': 'go'}, {'fileName': 'squareblack.png', 'correct_response': 'right', 'condition': 'stop'}, {'fileName': 'circleblack.png', 'correct_response': 'left', 'condition': 'go'}, {'fileName': 'circleblack.png', 'correct_response': 'left', 'condition': 'stop'}, {'fileName': 'circleblack.png', 'correct_response': 'left', 'condition': 'stop'}, {'fileName': 'circleblack.png', 'correct_response': 'left', 'condition': 'go'}, {'fileName': 'squareblack.png', 'correct_response': 'right', 'condition': 'go'}, {'fileName': 'squareblack.png', 'correct_response': 'right', 'condition': 'go'}, {'fileName': 'circleblack.png', 'correct_response': 'left', 'condition': 'go'}, {'fileName': 'squareblack.png', 'correct_response': 'right', 'condition': 'stop'}, {'fileName': 'squareblack.png', 'correct_response': 'right', 'condition': 'stop'}, {'fileName': 'circleblack.png', 'correct_response': 'left', 'condition': 'go'}, {'fileName': 'circleblack.png', 'correct_response': 'left', 'condition': 'go'}, {'fileName': 'squareblack.png', 'correct_response': 'right', 'condition': 'go'}, {'fileName': 'circleblack.png', 'correct_response': 'left', 'condition': 'stop'}, {'fileName': 'squareblack.png', 'correct_response': 'right', 'condition': 'go'}]",488.95161935687065,488.95161935687065,return,15.026682887226343,,,,,,,,,,,,,,,,,,,,,,,,,,,,,,,,,,,,,,,,,,,,,,,,,,,,,,,,,,,s018,001,2024-07-24_16h58.45.712,simplestop_skeleton,2022.2.2,59.923663229205246,
None,None,0,0,0,0,0,0,0,3,,,,,,,,,,,,,,,504.0171430930495,504.0171430930495,611.7334354631603,go,squareblack.png,right,0.35,611.7540406771004,611.7540406771004,612.2477543540299,612.2477543540299,612.2647778466344,612.598043486476,613.0985636636615,613.248921521008,614.2499880082905,614.266741361469,right,1,1.1308086477220058,614.266741361469,614.266741361469,614.7723512388766,614.7723512388766,0.0026158876717090607,0.4875750243663788,0.8380636125802994,614.7518726475537,practice,1,,,,,,,,,,,,,,,,,,,,,,,,,,,,,s018,001,2024-07-24_16h58.45.712,simplestop_skeleton,2022.2.2,59.923663229205246,
$currentCorrectResponse,$currentGoStim,0,0,0,0,0,1,1,0,,,,,,,,,,,,,,,,,614.7524298615754,go,squareblack.png,right,0.35,614.7723512388766,614.7723512388766,615.2675746046007,615.2675746046007,615.28436556831,615.617795675993,616.1187026500702,616.2689288966358,617.2697683796287,617.2868627272546,right,1,0.3588895872235298,617.2868627272546,617.2868627272546,617.7908856570721,617.7908856570721,0.001819513738155365,0.4887136332690716,0.8384964317083359,617.7713058181107,practice,1,,,,,,,,,,,,,,,,,,,,,,,,,,,,,s018,001,2024-07-24_16h58.45.712,simplestop_skeleton,2022.2.2,59.923663229205246,
$currentCorrectResponse,$currentGoStim,0,0,0,0,0,2,2,0,,,,,,,,,,,,,,,,,617.7717481218278,stop,squareblack.png,right,0.35,617.7908856570721,617.7908856570721,618.2877043560147,618.2877043560147,618.304473310709,618.6385873891413,619.138121843338,619.2881980128586,620.289662733674,620.3070669583976,right,1,0.343009777367115,620.3070669583976,620.3070669583976,,,0.001306738704442978,0.48994361609220505,0.8406526297330856,620.7915296927094,practice,1,,,,,,,,,,,,,,,,,,,,,,,,,,,,,s018,001,2024-07-24_16h58.45.712,simplestop_skeleton,2022.2.2,59.923663229205246,
None,None,0,0,0,0,0,3,3,1,,,,,,,,,,,,,,,,,620.7919580601156,go,squareblack.png,right,0.3,620.8109393976629,620.8109393976629,621.3075715303421,621.3075715303421,621.324273519218,621.6078743189573,622.1072920411825,622.3082247190177,623.3101418316364,623.3101418316364,right,1,0.35953686013817787,623.3101418316364,623.3101418316364,623.8201520219445,623.8201520219445,0.0011871568858623505,0.48984621092677116,0.790198840200901,623.794480394572,practice,1,,,,,,,,,,,,,,,,,,,,,,,,,,,,,s018,001,2024-07-24_16h58.45.712,simplestop_skeleton,2022.2.2,59.923663229205246,
None,None,0,0,0,0,1,0,4,1,,,,,,,,,,,,,,,,,623.7948994897306,stop,circleblack.png,left,0.3,623.8201520219445,623.8201520219445,624.3108772411942,624.3108772411942,624.3278731554747,624.6115023046732,625.1105603463948,625.3113367520273,626.3135142214596,626.3298396728933,left,1,0.32976821810007095,626.3298396728933,626.3298396728933,626.8340628296137,626.8340628296137,0.008311960846185684,0.49001478403806686,0.790491446852684,626.8144726157188,practice,1,,,,,,,,,,,,,,,,,,,,,,,,,,,,,s018,001,2024-07-24_16h58.45.712,simplestop_skeleton,2022.2.2,59.923663229205246,
$currentCorrectResponse,$currentGoStim,0,0,0,0,1,1,5,0,,,,,,,,,,,,,,,,,626.8148915655911,go,circleblack.png,left,0.25,626.8340628296137,626.8340628296137,627.3309454284608,627.3309454284608,627.3478477448225,627.5811246745288,628.0803467035294,628.3312368653715,629.3331660628319,629.3331660628319,left,1,0.3392205126583576,629.3331660628319,629.3331660628319,629.8379972279072,629.8379972279072,0.001272439956665039,0.4902767054736614,0.7407110445201397,629.8180452249944,practice,1,,,,,,,,,,,,,,,,,,,,,,,,,,,,,s018,001,2024-07-24_16h58.45.712,simplestop_skeleton,2022.2.2,59.923663229205246,
None,None,0,0,0,0,1,2,6,2,,,,,,,,,,,,,,,,,629.8184899576008,go,squareblack.png,right,0.25,629.8379972279072,629.8379972279072,630.3343345411122,630.3343345411122,630.3509750887752,630.5844979435205,631.0837370157242,631.3346995338798,632.3365078493953,632.3530778288841,right,1,0.27904241904616356,632.3530778288841,632.3530778288841,632.8578967899084,632.8578967899084,0.001666828989982605,0.4899580180644989,0.740130253136158,632.8379255346954,practice,1,,,,,,,,,,,,,,,,,,,,,,,,,,,,,s018,001,2024-07-24_16h58.45.712,simplestop_skeleton,2022.2.2,59.923663229205246,
None,None,0,0,0,0,1,3,7,3,,,,,,,,,,,,,,,,,632.838368948549,go,circleblack.png,left,0.25,632.8578967899084,632.8578967899084,633.3544082157314,633.3544082157314,633.3709394708276,633.6046282276511,634.1036545448005,634.3547490015626,635.3565785437822,635.3734303377569,left,1,0.332307081669569,635.3734303377569,635.3734303377569,635.8800344727933,635.8800344727933,0.0017878562211990356,0.4900182858109474,0.7402933016419411,635.8591878898442,practice,1,,,,,,,,,,,,,,,,,,,,,,,,,,,,,s018,001,2024-07-24_16h58.45.712,simplestop_skeleton,2022.2.2,59.923663229205246,
$currentCorrectResponse,$currentGoStim,0,0,0,0,2,0,8,0,,,,,,,,,,,,,,,,,635.859784938395,stop,circleblack.png,left,0.25,635.8800344727933,635.8800344727933,636.3743635639548,636.3743635639548,636.3908907286823,636.6247812621295,637.1238046549261,637.3747973777354,638.3763473778963,638.3929493054748,left,1,0.522477313876152,638.3929493054748,638.3929493054748,638.8978316038847,638.8978316038847,0.001991182565689087,0.4877433404326439,0.7380051724612713,638.8777917698026,practice,1,,,,,,,,,,,,,,,,,,,,,,,,,,,,,s018,001,2024-07-24_16h58.45.712,simplestop_skeleton,2022.2.2,59.923663229205246,
None,None,0,0,0,0,2,1,9,2,,,,,,,,,,,,,,,,,638.8782131411135,stop,squareblack.png,right,0.2,638.8978316038847,638.8978316038847,639.3943704068661,639.3943704068661,639.4108377024531,639.594209972769,640.0934604145586,640.3945817314088,641.3966659642756,641.4129638522863,right,1,0.3566685579717159,641.4129638522863,641.4129638522863,641.9182754717767,641.9182754717767,0.0017376020550727844,0.4901513233780861,0.6901689171791077,641.8979434967041,practice,1,,,,,,,,,,,,,,,,,,,,,,,,,,,,,s018,001,2024-07-24_16h58.45.712,simplestop_skeleton,2022.2.2,59.923663229205246,
None,None,0,0,0,0,2,2,10,1,,,,,,,,,,,,,,,,,641.8983915261924,go,circleblack.png,left,0.15,641.9182754717767,641.9182754717767,642.4140684232116,642.4140684232116,642.4307772740722,642.5642266534269,643.063474804163,643.4146330691874,644.4163901731372,644.4328880831599,left,1,0.2865646556019783,644.4328880831599,644.4328880831599,,,0.0019414573907852173,0.48966237902641296,0.6398722305893898,644.9179053716362,practice,1,,,,,,,,,,,,,,,,,,,,,,,,,,,,,s018,001,2024-07-24_16h58.45.712,simplestop_skeleton,2022.2.2,59.923663229205246,
$currentCorrectResponse,$currentGoStim,0,0,0,0,2,3,11,0,,,,,,,,,,,,,,,,,644.9183328822255,go,circleblack.png,left,0.15,644.9373949617147,644.9373949617147,645.4340072013438,645.4340072013438,645.4508922584355,645.5843969136477,646.084893129766,646.4345438964665,647.4362905398011,647.4362905398011,left,1,0.377556387335062,647.4362905398011,647.4362905398011,,,0.0012790784239768982,0.49001020938158035,0.6401133723556995,647.9211135804653,practice,1,,,,,,,,,,,,,,,,,,,,,,,,,,,,,s018,001,2024-07-24_16h58.45.712,simplestop_skeleton,2022.2.2,59.923663229205246,
None,None,0,0,0,0,3,0,12,2,,,,,,,,,,,,,,,,,647.9215378090739,go,circleblack.png,left,0.15,647.9408789351583,647.9408789351583,648.4377453178167,648.4377453178167,648.4544025398791,648.5876384563744,649.0882008485496,649.4378367103636,650.4398324228823,650.4398324228823,left,1,0.38551267236471176,650.4398324228823,650.4398324228823,650.9442648813128,650.9442648813128,0.0012590587139129639,0.49015070497989655,0.6402230225503445,650.924670740962,practice,1,,,,,,,,,,,,,,,,,,,,,,,,,,,,,s018,001,2024-07-24_16h58.45.712,simplestop_skeleton,2022.2.2,59.923663229205246,
None,None,0,0,0,0,3,1,13,3,,,,,,,,,,,,,,,,,650.9251108169556,go,circleblack.png,left,0.15,650.9442648813128,650.9442648813128,651.4409006088972,651.4409006088972,651.4577188193798,651.5910357758403,652.0903764776886,652.44117904827,653.4431176669896,653.4597808383405,left,1,0.3352597616612911,653.4597808383405,653.4597808383405,653.964137531817,653.964137531817,0.001253083348274231,0.4897826462984085,0.6402678042650223,653.9444933272898,practice,1,,,,,,,,,,,,,,,,,,,,,,,,,,,,,s018,001,2024-07-24_16h58.45.712,simplestop_skeleton,2022.2.2,59.923663229205246,
None,None,0,0,0,0,3,2,14,1,,,,,,,,,,,,,,,,,653.9449113868177,stop,circleblack.png,left,0.15,653.964137531817,653.964137531817,654.460697863251,654.460697863251,654.4774668216705,654.6110067181289,655.1100355125964,655.4613800644875,656.4630232267082,656.4796334095299,left,1,0.35268734395504,656.4796334095299,656.4796334095299,656.9894577376544,656.9894577376544,0.0012683533132076263,0.4899122789502144,0.640072226524353,656.964507818222,practice,1,,,,,,,,,,,,,,,,,,,,,,,,,,,,,s018,001,2024-07-24_16h58.45.712,simplestop_skeleton,2022.2.2,59.923663229205246,
None,None,0,0,0,0,3,3,15,3,,,,,,,,,,,,,,,,,656.9649293571711,go,squareblack.png,right,0.1,656.9894577376544,656.9894577376544,657.4808698780835,657.4808698780835,657.49779843539,657.580828692764,658.0799855813384,658.4813985303044,659.4832220897079,659.4996371343732,right,1,0.30585481971502304,659.4996371343732,659.4996371343732,,,0.00764971598982811,0.4900570251047611,0.590178158134222,659.9846335351467,practice,1,,,,,,,,,,,,,,,,,,,,,,,,,,,,,s018,001,2024-07-24_16h58.45.712,simplestop_skeleton,2022.2.2,59.923663229205246,
None,None,0,0,0,0,4,0,16,3,,,,,,,,,,,,,,,,,659.9850569665432,go,squareblack.png,right,0.1,660.0042515695095,660.0042515695095,660.5011322908103,660.5011322908103,660.5175244994462,660.6009417921305,661.1017085723579,661.5016539953649,662.5032424628735,662.5032424628735,right,1,0.3672245927155018,662.5032424628735,662.5032424628735,663.0077558420599,663.0077558420599,0.001324441283941269,0.48997510224580765,0.5902917347848415,662.9882277436554,practice,1,,,,,,,,,,,,,,,,,,,,,,,,,,,,,s018,001,2024-07-24_16h58.45.712,simplestop_skeleton,2022.2.2,59.923663229205246,
None,None,0,0,0,0,4,1,17,3,,,,,,,,,,,,,,,,,662.988664381206,stop,squareblack.png,right,0.1,663.0077558420599,663.0077558420599,663.5042743086815,663.5042743086815,663.5209547169507,663.6041481383145,664.1034153103828,664.5052324160933,665.5064685568213,665.5233005136251,None,0,,665.5233005136251,665.5233005136251,666.0334610082209,666.0334610082209,0.0013735070824623108,0.48976724967360497,0.5899521820247173,666.0078772045672,practice,1,,,,,,,,,,,,,,,,,,,,,,,,,,,,,s018,001,2024-07-24_16h58.45.712,simplestop_skeleton,2022.2.2,59.923663229205246,
None,None,0,0,0,0,4,2,18,2,,,,,,,,,,,,,,,,,666.0083267092705,go,circleblack.png,left,0.15,666.0334610082209,666.0334610082209,666.5245677158237,666.5245677158237,666.5409550778568,666.6745502650738,667.1735191941261,667.5248972773552,668.5264111757278,668.5431437045336,left,1,0.3177051432430744,668.5431437045336,668.5431437045336,669.0473899394274,669.0473899394274,0.007971111685037613,0.4897768869996071,0.6401270255446434,669.0279371514916,practice,1,,,,,,,,,,,,,,,,,,,,,,,,,,,,,s018,001,2024-07-24_16h58.45.712,simplestop_skeleton,2022.2.2,59.923663229205246,
None,None,0,0,0,0,4,3,19,2,,,,,,,,,,,,,,,,,669.0283616110682,go,circleblack.png,left,0.15,669.0473899394274,669.0473899394274,669.5441512577236,669.5441512577236,669.56101674214,669.694417886436,670.1935216374695,670.5451246276498,671.5466276071966,671.5466276071966,left,1,0.33118387684226036,671.5466276071966,671.5466276071966,672.0508780479431,672.0508780479431,0.0012642331421375275,0.4901820421218872,0.6401073224842548,672.0312108360231,practice,1,,,,,,,,,,,,,,,,,,,,,,,,,,,,,s018,001,2024-07-24_16h58.45.712,simplestop_skeleton,2022.2.2,59.923663229205246,
None,None,0,0,0,0,5,0,20,2,,,,,,,,,,,,,,,,,672.0316763296723,stop,circleblack.png,left,0.15,672.0508780479431,672.0508780479431,672.547716807574,672.547716807574,672.5642761811614,672.6978071592748,673.1967225596309,673.5480208694935,674.5496863275766,674.5663572065532,left,1,0.3092988543212414,674.5663572065532,674.5663572065532,675.0757451914251,675.0757451914251,0.0012593753635883331,0.48977166041731834,0.6401041187345982,675.0511138625443,practice,1,,,,,,,,,,,,,,,,,,,,,,,,,,,,,s018,001,2024-07-24_16h58.45.712,simplestop_skeleton,2022.2.2,59.923663229205246,
None,None,0,0,0,0,5,1,21,1,,,,,,,,,,,,,,,,,675.0515318997204,go,squareblack.png,right,0.1,675.0757451914251,675.0757451914251,675.5675887092948,675.5675887092948,675.584265012294,675.6677840612829,676.1683948151767,676.5681106522679,677.5695866122842,677.5863633938134,right,1,0.3176838085055351,677.5863633938134,677.5863633938134,678.0906726121902,678.0906726121902,0.007354162633419037,0.49002015218138695,0.590316254645586,678.071185298264,practice,1,,,,,,,,,,,,,,,,,,,,,,,,,,,,,s018,001,2024-07-24_16h58.45.712,simplestop_skeleton,2022.2.2,59.923663229205246,
None,None,0,0,0,0,5,2,22,1,,,,,,,,,,,,,,,,,678.0716350227594,stop,squareblack.png,right,0.1,678.0906726121902,678.0906726121902,678.5876812487841,678.5876812487841,678.6041247360408,678.6875286996365,679.1866838298738,679.5885750055313,680.5896451771259,680.5896451771259,right,1,0.25799868255853653,680.5896451771259,680.5896451771259,681.0938774347305,681.0938774347305,0.0011969245970249176,0.48996442183852196,0.590289793908596,681.0743733085692,practice,1,,,,,,,,,,,,,,,,,,,,,,,,,,,,,s018,001,2024-07-24_16h58.45.712,simplestop_skeleton,2022.2.2,59.923663229205246,
$currentCorrectResponse,$currentGoStim,0,0,0,0,5,3,23,0,,,,,,,,,,,,,,,,,681.0747922696173,go,squareblack.png,right,0.05,681.0938774347305,681.0938774347305,681.5907239876688,681.5907239876688,681.6078249253333,681.6407137364149,682.141561422497,682.5909901037812,683.5929761566222,683.5929761566222,right,1,0.3278052508831024,683.5929761566222,683.5929761566222,684.0949238203466,684.0949238203466,0.0012888610363006592,0.49018794298171997,0.5400985665619373,684.0778282135725,practice,1,,,,,,,,,,,,,,,,,,,,,,,,,,,,,s018,001,2024-07-24_16h58.45.712,simplestop_skeleton,2022.2.2,59.923663229205246,
,,0,0,0,0,,,,,,,,,,,,,"[{'fileName': 'circleblack.png', 'correct_response': 'left', 'condition': 'go'}, {'fileName': 'squareblack.png', 'correct_response': 'right', 'condition': 'go'}, {'fileName': 'circleblack.png', 'correct_response': 'left', 'condition': 'stop'}, {'fileName': 'circleblack.png', 'correct_response': 'left', 'condition': 'go'}, {'fileName': 'squareblack.png', 'correct_response': 'right', 'condition': 'go'}, {'fileName': 'circleblack.png', 'correct_response': 'left', 'condition': 'go'}, {'fileName': 'squareblack.png', 'correct_response': 'right', 'condition': 'go'}, {'fileName': 'circleblack.png', 'correct_response': 'left', 'condition': 'go'}, {'fileName': 'squareblack.png', 'correct_response': 'right', 'condition': 'stop'}, {'fileName': 'squareblack.png', 'correct_response': 'right', 'condition': 'stop'}, {'fileName': 'circleblack.png', 'correct_response': 'left', 'condition': 'stop'}, {'fileName': 'squareblack.png', 'correct_response': 'right', 'condition': 'go'}, {'fileName': 'squareblack.png', 'correct_response': 'right', 'condition': 'stop'}, {'fileName': 'circleblack.png', 'correct_response': 'left', 'condition': 'stop'}, {'fileName': 'squareblack.png', 'correct_response': 'right', 'condition': 'go'}, {'fileName': 'circleblack.png', 'correct_response': 'left', 'condition': 'go'}, {'fileName': 'squareblack.png', 'correct_response': 'right', 'condition': 'go'}, {'fileName': 'circleblack.png', 'correct_response': 'left', 'condition': 'go'}, {'fileName': 'squareblack.png', 'correct_response': 'right', 'condition': 'go'}, {'fileName': 'circleblack.png', 'correct_response': 'left', 'condition': 'stop'}, {'fileName': 'circleblack.png', 'correct_response': 'left', 'condition': 'go'}, {'fileName': 'circleblack.png', 'correct_response': 'left', 'condition': 'go'}, {'fileName': 'squareblack.png', 'correct_response': 'right', 'condition': 'stop'}, {'fileName': 'squareblack.png', 'correct_response': 'right', 'condition': 'go'}]",,,,,,,,,,,,,,,,,,,,,,,,,,,,,,,,,,,,684.0949238203466,684.0949238203466,return,4.899733364582062,,,,,,,,,,,,,,,,,,,,,,,,,s018,001,2024-07-24_16h58.45.712,simplestop_skeleton,2022.2.2,59.923663229205246,
$currentCorrectResponse,$currentGoStim,,,,,,,,,0,0,0,0,0,0,0,0,,,,,,,,,721.3017217293382,stop,circleblack.png,left,0.05,,,,,,,,,,,,,,,,,,0.0030032657086849213,0.4894190728664398,0.5398493707180023,723.8052724227309,test,1,,,,,689.0157781802118,689.0157781802118,721.3234662488103,721.8184025213122,721.8184025213122,721.8351029716432,721.8687082491815,722.3689345940948,722.8198387287557,723.8297090604901,None,0,0.1,,,,,,,,,,,,s018,001,2024-07-24_16h58.45.712,simplestop_skeleton,2022.2.2,59.923663229205246,
$currentCorrectResponse,$currentGoStim,,,,,,,,,0,0,0,0,0,1,1,0,,,,,,,,,723.805815115571,go,squareblack.png,right,0.1,,,,,,,,,,,,,,,,,,0.007243987172842026,0.48921749740839005,,726.3080144822598,test,1,,,,,,,723.8297090604901,724.3214236497879,724.3214236497879,724.3380707241595,724.4214238338172,724.9225910604,725.3217549808323,726.3272328861058,right,1,0.1,0.36183106154203415,,,,,,,,,,,s018,001,2024-07-24_16h58.45.712,simplestop_skeleton,2022.2.2,59.923663229205246,
None,None,,,,,,,,,0,0,0,0,0,2,2,1,,,,,,,,,726.3084605336189,stop,squareblack.png,right,0.1,,,,,,,,,,,,,,,,,,0.0013537518680095673,0.4896685630083084,0.5895423740148544,728.8109620735049,test,1,,,,,,,726.3272328861058,726.8244182802737,726.8244182802737,726.8409583121538,726.9240465387702,727.4247465543449,727.8245818242431,728.835630889982,right,1,0.05,0.32697873935103416,,,,,,,,,,,s018,001,2024-07-24_16h58.45.712,simplestop_skeleton,2022.2.2,59.923663229205246,
None,None,,,,,,,,,0,0,0,0,0,3,3,2,,,,,,,,,728.811400193721,go,circleblack.png,left,0.05,,,,,,,,,,,,,,,,,,0.007909093052148819,0.4893117770552635,,731.3134666159749,test,1,,,,,,,728.835630889982,729.3267034031451,729.3267034031451,729.3434262834489,729.3767528794706,729.8772360347211,730.3270895332098,731.3326897546649,left,1,0.05,0.30686404183506966,,,,,,,,,,,s018,001,2024-07-24_16h58.45.712,simplestop_skeleton,2022.2.2,59.923663229205246,
None,None,,,,,,,,,0,0,0,0,1,0,4,3,,,,,,,,,731.3139053694904,go,squareblack.png,right,0.05,,,,,,,,,,,,,,,,,,0.0015790574252605438,0.48958296328783035,,733.8159461319447,test,1,,,,,,,731.3326897546649,731.8296660296619,731.8296660296619,731.8459864147007,731.8794130086899,732.3800365142524,732.8299005404115,733.8347899764776,right,1,0.05,0.3047112748026848,,,,,,,,,,,s018,001,2024-07-24_16h58.45.712,simplestop_skeleton,2022.2.2,59.923663229205246,
None,None,,,,,,,,,0,0,0,0,1,1,5,1,,,,,,,,,733.8163796253502,go,squareblack.png,right,0.05,,,,,,,,,,,,,,,,,,0.0011957809329032898,0.4896885082125664,,736.3188190460205,test,1,,,,,,,733.8347899764776,734.3321743160486,734.3321743160486,734.3488204404712,734.3823585473001,734.8827963136137,735.3325641043484,736.3438430279493,right,1,0.05,0.29032789543271065,,,,,,,,,,,s018,001,2024-07-24_16h58.45.712,simplestop_skeleton,2022.2.2,59.923663229205246,
None,None,,,,,,,,,0,0,0,0,1,2,6,1,,,,,,,,,736.3192545846105,go,circleblack.png,left,0.05,,,,,,,,,,,,,,,,,,0.008228987455368042,0.48992809653282166,,738.821673065424,test,1,,,,,,,736.3438430279493,736.8350676223636,736.8350676223636,736.8516520783305,736.8848987556994,737.3852901421487,737.8362055383623,738.8406997174025,left,1,0.05,0.28851502388715744,,,,,,,,,,,s018,001,2024-07-24_16h58.45.712,simplestop_skeleton,2022.2.2,59.923663229205246,
None,None,,,,,,,,,0,0,0,0,1,3,7,1,,,,,,,,,738.8221099078655,stop,circleblack.png,left,0.05,,,,,,,,,,,,,,,,,,0.0014084316790103912,0.48984454944729805,0.5398223474621773,741.3243311680853,test,1,,,,,,,738.8406997174025,739.3378587439656,739.3378587439656,739.3544757142663,739.3878200054169,739.8882086314261,740.3388787731528,741.3434913083911,None,0,0.1,,,,,,,,,,,,s018,001,2024-07-24_16h58.45.712,simplestop_skeleton,2022.2.2,59.923663229205246,
None,None,,,,,,,,,0,0,0,0,2,0,8,2,,,,,,,,,741.3247746229172,go,circleblack.png,left,0.1,,,,,,,,,,,,,,,,,,0.0013867393136024475,0.48965560272336006,,743.8271194137633,test,1,,,,,,,741.3434913083911,741.8408483155072,741.8408483155072,741.8571815118194,741.9406774677336,742.4411026015878,742.8413223028183,743.8464959897101,left,1,0.1,0.35230350494384766,,,,,,,,,,,s018,001,2024-07-24_16h58.45.712,simplestop_skeleton,2022.2.2,59.923663229205246,
None,None,,,,,,,,,0,0,0,0,2,1,9,3,,,,,,,,,743.8275606296957,stop,squareblack.png,right,0.1,,,,,,,,,,,,,,,,,,0.0016331374645233154,0.4897957481443882,0.5900704152882099,746.3299801498652,test,1,,,,,,,743.8464959897101,744.343363724649,744.343363724649,744.3600219897926,744.4434024095535,744.9438979625702,745.3441285081208,746.3489021584392,right,1,0.05,0.2886955253779888,,,,,,,,,,,s018,001,2024-07-24_16h58.45.712,simplestop_skeleton,2022.2.2,59.923663229205246,
$currentCorrectResponse,$currentGoStim,,,,,,,,,0,0,0,0,2,2,10,0,,,,,,,,,746.3304314278066,go,squareblack.png,right,0.05,,,,,,,,,,,,,,,,,,0.0012778639793395996,0.48966895416378975,,748.8328929655254,test,1,,,,,,,746.3489021584392,746.8459143191576,746.8459143191576,746.8626480102539,746.8961136341095,747.397317841649,747.846216596663,748.8521809615195,right,1,0.05,0.31453945860266685,,,,,,,,,,,s018,001,2024-07-24_16h58.45.712,simplestop_skeleton,2022.2.2,59.923663229205246,
None,None,,,,,,,,,0,0,0,0,2,3,11,1,,,,,,,,,748.8333307094872,go,circleblack.png,left,0.05,,,,,,,,,,,,,,,,,,0.001954946666955948,0.4895711876451969,,751.3353783003986,test,1,,,,,,,748.8521809615195,749.349147118628,749.349147118628,749.3656437322497,749.3991788141429,749.8980026245117,750.3498589508235,751.3550578691065,left,1,0.05,0.2501732222735882,,,,,,,,,,,s018,001,2024-07-24_16h58.45.712,simplestop_skeleton,2022.2.2,59.923663229205246,
None,None,,,,,,,,,0,0,0,0,3,0,12,1,,,,,,,,,751.3358208425343,go,squareblack.png,right,0.05,,,,,,,,,,,,,,,,,,0.001808207482099533,0.4896572679281235,,753.8384039402008,test,1,,,,,,,751.3550578691065,751.8515566214919,751.8515566214919,751.868502356112,751.9017590731382,752.4021091908216,752.8519443236291,753.8571052961051,right,1,0.05,0.36679092049598694,,,,,,,,,,,s018,001,2024-07-24_16h58.45.712,simplestop_skeleton,2022.2.2,59.923663229205246,
None,None,,,,,,,,,0,0,0,0,3,1,13,1,,,,,,,,,753.8388419337571,go,squareblack.png,right,0.05,,,,,,,,,,,,,,,,,,0.0013237856328487396,0.489541444927454,,756.3409965261817,test,1,,,,,,,753.8571052961051,754.3540738597512,754.3540738597512,754.3709436319768,754.404208149761,754.9055503867567,755.3548652976751,756.3604811243713,right,1,0.05,0.30656900629401207,,,,,,,,,,,s018,001,2024-07-24_16h58.45.712,simplestop_skeleton,2022.2.2,59.923663229205246,
None,None,,,,,,,,,0,0,0,0,3,2,14,3,,,,,,,,,756.3414467796683,go,circleblack.png,left,0.05,,,,,,,,,,,,,,,,,,0.001973181962966919,0.48986030742526054,,758.8436126746237,test,1,,,,,,,756.3604811243713,756.8570023141801,756.8570023141801,756.8738836981356,756.906938213855,757.4079817123711,757.8574524074793,758.862826436758,left,1,0.05,0.3255666270852089,,,,,,,,,,,s018,001,2024-07-24_16h58.45.712,simplestop_skeleton,2022.2.2,59.923663229205246,
None,None,,,,,,,,,0,0,0,0,3,3,15,2,,,,,,,,,758.8440490104258,go,squareblack.png,right,0.05,,,,,,,,,,,,,,,,,,0.0017324835062026978,0.48952844738960266,,761.3465202301741,test,1,,,,,,,758.862826436758,759.3596930652857,759.3596930652857,759.3763932324946,759.4098371379077,759.9104132279754,760.3602146431804,761.36532215029,right,1,0.05,0.32964930310845375,,,,,,,,,,,s018,001,2024-07-24_16h58.45.712,simplestop_skeleton,2022.2.2,59.923663229205246,
None,None,,,,,,,,,0,0,0,0,4,0,16,3,,,,,,,,,761.3469715639949,stop,squareblack.png,right,0.05,,,,,,,,,,,,,,,,,,0.0012601427733898163,0.48975154384970665,0.5397093407809734,763.8495109155774,test,1,,,,,,,761.36532215029,761.862618111074,761.862618111074,761.8791990056634,761.9125092029572,762.413275487721,762.8640137352049,763.8686981312931,None,0,0.1,,,,,,,,,,,,s018,001,2024-07-24_16h58.45.712,simplestop_skeleton,2022.2.2,59.923663229205246,
None,None,,,,,,,,,0,0,0,0,4,1,17,2,,,,,,,,,763.8499495722353,go,squareblack.png,right,0.1,,,,,,,,,,,,,,,,,,0.001413881778717041,0.4894261360168457,,766.3521773405373,test,1,,,,,,,763.8686981312931,764.3656727746129,764.3656727746129,764.3823743164539,764.4657862372696,764.9647614620626,765.3661341518164,766.3719463460147,right,1,0.1,0.2957008332014084,,,,,,,,,,,s018,001,2024-07-24_16h58.45.712,simplestop_skeleton,2022.2.2,59.923663229205246,
None,None,,,,,,,,,0,0,0,0,4,2,18,3,,,,,,,,,766.3526112250984,go,circleblack.png,left,0.1,,,,,,,,,,,,,,,,,,0.001960352063179016,0.489534467458725,,768.8550123423338,test,1,,,,,,,766.3719463460147,766.8681882284582,766.8681882284582,766.8848939351737,766.9682948365808,767.468155939132,767.869234893471,768.8740756362677,left,1,0.1,0.33713286742568016,,,,,,,,,,,s018,001,2024-07-24_16h58.45.712,simplestop_skeleton,2022.2.2,59.923663229205246,
$currentCorrectResponse,$currentGoStim,,,,,,,,,0,0,0,0,4,3,19,0,,,,,,,,,768.8554605916142,stop,circleblack.png,left,0.1,,,,,,,,,,,,,,,,,,0.001404404640197754,0.4895547479391098,0.5894139371812344,771.3576837852597,test,1,,,,,,,768.8740756362677,769.3709998056293,769.3709998056293,769.3877466544509,769.470899362117,769.9705650545657,770.3713168017566,771.3772067949176,left,1,0.05,0.36826684698462486,,,,,,,,,,,s018,001,2024-07-24_16h58.45.712,simplestop_skeleton,2022.2.2,59.923663229205246,
None,None,,,,,,,,,0,0,0,0,5,0,20,2,,,,,,,,,771.3581258952618,stop,circleblack.png,left,0.05,,,,,,,,,,,,,,,,,,0.0014060139656066895,0.48913878202438354,0.539241049438715,773.8605541810393,test,1,,,,,,,771.3772067949176,771.8736191280186,771.8736191280186,771.8902046866715,771.9237627573311,772.4242237098515,772.8741820007563,773.8808509409428,left,1,0.0,0.32648343592882156,,,,,,,,,,,s018,001,2024-07-24_16h58.45.712,simplestop_skeleton,2022.2.2,59.923663229205246,
None,None,,,,,,,,,0,0,0,0,5,1,21,3,,,,,,,,,773.861000791192,go,circleblack.png,left,0.0,,,,,,,,,,,,,,,,,,0.002218477427959442,0.48850052431225777,,776.3630958683789,test,1,,,,,,,773.8808509409428,774.3764072284102,774.3764072284102,774.3930772729218,774.3764072284102,774.8772804252803,775.3768909610808,776.3822059854865,left,1,0.0,0.3517736606299877,,,,,,,,,,,s018,001,2024-07-24_16h58.45.712,simplestop_skeleton,2022.2.2,59.923663229205246,
None,None,,,,,,,,,0,0,0,0,5,2,22,2,,,,,,,,,776.3635412417352,go,circleblack.png,left,0.0,,,,,,,,,,,,,,,,,,0.0013926438987255096,0.4893353842198849,,778.8659559264779,test,1,,,,,,,776.3822059854865,776.8791920207441,776.8791920207441,776.8957961313426,776.8791920207441,777.3799723647535,777.8796666115522,778.8907467983663,left,1,0.0,0.346849225461483,,,,,,,,,,,s018,001,2024-07-24_16h58.45.712,simplestop_skeleton,2022.2.2,59.923663229205246,
None,None,,,,,,,,,0,0,0,0,5,3,23,2,,,,,,,,,778.8664023950696,stop,squareblack.png,right,0.0,,,,,,,,,,,,,,,,,,0.00778777152299881,0.4894523359835148,0.4894523359835148,781.3685305640101,test,1,,,,,,,778.8907467983663,779.3819803074002,779.3819803074002,779.3986726775765,779.3819803074002,779.8825538493693,780.3830375932157,781.3877388052642,None,0,0.05,,,,,,,,,,,,s018,001,2024-07-24_16h58.45.712,simplestop_skeleton,2022.2.2,59.923663229205246,
None,None,,,,,,,,,0,0,0,0,6,0,24,3,,,,,,,,,781.3689707405865,go,circleblack.png,left,0.05,,,,,,,,,,,,,,,,,,0.0017707720398902893,0.4899207018315792,,783.8715156652033,test,1,,,,,,,781.3877388052642,781.884745053947,781.884745053947,781.9013228975236,781.9346719682217,782.4353934973478,782.8849817104638,783.8903651088476,left,1,0.05,0.36103078350424767,,,,,,,,,,,s018,001,2024-07-24_16h58.45.712,simplestop_skeleton,2022.2.2,59.923663229205246,
None,None,,,,,,,,,0,0,0,0,6,1,25,2,,,,,,,,,783.8719914704561,stop,circleblack.png,left,0.05,,,,,,,,,,,,,,,,,,0.0013780593872070312,0.48941073194146156,0.5396324694156647,786.3741158470511,test,1,,,,,,,783.8903651088476,784.3873718157411,784.3873718157411,784.4041268192232,784.4373775161803,784.9378876313567,785.3886335007846,786.3931948654354,None,0,0.1,,,,,,,,,,,,s018,001,2024-07-24_16h58.45.712,simplestop_skeleton,2022.2.2,59.923663229205246,
None,None,,,,,,,,,0,0,0,0,6,2,26,3,,,,,,,,,786.3745715394616,go,squareblack.png,right,0.1,,,,,,,,,,,,,,,,,,0.0016307421028614044,0.4897066168487072,,788.8766757808626,test,1,,,,,,,786.3931948654354,786.8901994898915,786.8901994898915,786.9068527333438,786.990329425782,787.4907417483628,787.8905199877918,788.8959611468017,right,1,0.1,0.3654845133423805,,,,,,,,,,,s018,001,2024-07-24_16h58.45.712,simplestop_skeleton,2022.2.2,59.923663229205246,
None,None,,,,,,,,,0,0,0,0,6,3,27,1,,,,,,,,,788.8771051615477,go,circleblack.png,left,0.1,,,,,,,,,,,,,,,,,,0.0017506293952465057,0.48992277309298515,,791.3795654177666,test,1,,,,,,,788.8959611468017,789.392955031246,789.392955031246,789.4095305278897,789.4929309599102,789.9936253204942,790.3930596262217,791.3983326740563,left,1,0.1,0.36040180176496506,,,,,,,,,,,s018,001,2024-07-24_16h58.45.712,simplestop_skeleton,2022.2.2,59.923663229205246,
None,None,,,,,,,,,0,0,0,0,7,0,28,2,,,,,,,,,791.380084387958,go,circleblack.png,left,0.1,,,,,,,,,,,,,,,,,,0.0013118721544742584,0.48974499478936195,,793.8823339417577,test,1,,,,,,,791.3983326740563,791.8957840427756,791.8957840427756,791.9122460521758,791.9958390258253,792.4965958371758,792.8962386213243,793.9016353338957,left,1,0.1,0.3498019054532051,,,,,,,,,,,s018,001,2024-07-24_16h58.45.712,simplestop_skeleton,2022.2.2,59.923663229205246,
$currentCorrectResponse,$currentGoStim,,,,,,,,,0,0,0,0,7,1,29,0,,,,,,,,,793.8827722594142,go,squareblack.png,right,0.1,,,,,,,,,,,,,,,,,,0.0016711242496967316,0.4895312041044235,,796.3851252943277,test,1,,,,,,,793.9016353338957,794.3985493779182,794.3985493779182,794.4150937721133,794.4985370673239,794.9977545067668,795.3988326005638,796.4038927964866,right,1,0.1,0.30567242577672005,,,,,,,,,,,s018,001,2024-07-24_16h58.45.712,simplestop_skeleton,2022.2.2,59.923663229205246,
$currentCorrectResponse,$currentGoStim,,,,,,,,,0,0,0,0,7,2,30,0,,,,,,,,,796.3855759091675,stop,squareblack.png,right,0.1,,,,,,,,,,,,,,,,,,0.0012975744903087616,0.48958172276616096,0.5895957984030247,798.8878149911761,test,1,,,,,,,796.4038927964866,796.9011720828712,796.9011720828712,796.9178467392921,797.0013695284724,797.5014012418687,797.9022506512702,798.9066880904138,None,0,0.15,,,,,,,,,,,,s018,001,2024-07-24_16h58.45.712,simplestop_skeleton,2022.2.2,59.923663229205246,
None,None,,,,,,,,,0,0,0,0,7,3,31,1,,,,,,,,,798.8882673867047,go,squareblack.png,right,0.15,,,,,,,,,,,,,,,,,,0.0012527666985988617,0.4897877387702465,,801.391185849905,test,1,,,,,,,798.9066880904138,799.4046696275473,799.4046696275473,799.4207931756973,799.5545566491783,800.0540799237788,800.405040692538,801.411406237632,right,1,0.15,0.3391100652515888,,,,,,,,,,,s018,001,2024-07-24_16h58.45.712,simplestop_skeleton,2022.2.2,59.923663229205246,
None,None,,,,,,,,,0,0,0,0,8,0,32,2,,,,,,,,,801.3917351104319,go,squareblack.png,right,0.15,,,,,,,,,,,,,,,,,,0.0019540563225746155,0.4876900352537632,,803.8933792263269,test,1,,,,,,,801.411406237632,801.9059158153832,801.9059158153832,801.9230683706701,802.0568115860224,802.5577815920115,802.9074537791312,803.9125957377255,right,1,0.15,0.3755199462175369,,,,,,,,,,,s018,001,2024-07-24_16h58.45.712,simplestop_skeleton,2022.2.2,59.923663229205246,
$currentCorrectResponse,$currentGoStim,,,,,,,,,0,0,0,0,8,1,33,0,,,,,,,,,803.8938257582486,stop,squareblack.png,right,0.15,,,,,,,,,,,,,,,,,,0.0012736357748508453,0.48964786902070045,0.6396359279751778,806.396279219538,test,1,,,,,,,803.9125957377255,804.4094016067684,804.4094016067684,804.4261546805501,804.5597227662802,805.0588373206556,805.409659858793,806.4216407574713,right,1,0.1,0.27861668914556503,,,,,,,,,,,s018,001,2024-07-24_16h58.45.712,simplestop_skeleton,2022.2.2,59.923663229205246,
None,None,,,,,,,,,0,0,0,0,8,2,34,3,,,,,,,,,806.396784786135,go,circleblack.png,left,0.1,,,,,,,,,,,,,,,,,,0.008468560874462128,0.48943573608994484,,808.8987832963467,test,1,,,,,,,806.4216407574713,806.9123472087085,806.9123472087085,806.9288912788033,807.0123482309282,807.5130269527435,807.912837933749,808.9179278388619,left,1,0.1,0.31824325025081635,,,,,,,,,,,s018,001,2024-07-24_16h58.45.712,simplestop_skeleton,2022.2.2,59.923663229205246,
None,None,,,,,,,,,0,0,0,0,8,3,35,1,,,,,,,,,808.8992297686636,stop,circleblack.png,left,0.1,,,,,,,,,,,,,,,,,,0.0013605058193206787,0.4897797256708145,0.5899085327982903,811.4015599563718,test,1,,,,,,,808.9179278388619,809.4149850234389,809.4149850234389,809.431770388037,809.5149432085454,810.0157259404659,810.4161622151732,811.4202975668013,None,0,0.15,,,,,,,,,,,,s018,001,2024-07-24_16h58.45.712,simplestop_skeleton,2022.2.2,59.923663229205246,
$currentCorrectResponse,$currentGoStim,,,,,,,,,0,0,0,0,9,0,36,0,,,,,,,,,811.4020008072257,stop,circleblack.png,left,0.15,,,,,,,,,,,,,,,,,,0.0012632869184017181,0.49003028124570847,0.6399076543748379,813.9048914536834,test,1,,,,,,,811.4202975668013,811.9178196638823,811.9178196638823,811.9343873113394,812.0681013278663,812.5685423128307,812.9191854186356,813.9239862561226,None,0,0.2,,,,,,,,,,,,s018,001,2024-07-24_16h58.45.712,simplestop_skeleton,2022.2.2,59.923663229205246,
$currentCorrectResponse,$currentGoStim,,,,,,,,,0,0,0,0,9,1,37,0,,,,,,,,,813.9053477682173,go,circleblack.png,left,0.2,,,,,,,,,,,,,,,,,,0.0014174282550811768,0.4891931191086769,,816.4073673598468,test,1,,,,,,,813.9239862561226,814.4208032116294,814.4208032116294,814.4377598054707,814.62088092044,815.1200120598078,815.4212474785745,816.4316510260105,left,1,0.2,0.3238198757171631,,,,,,,,,,,s018,001,2024-07-24_16h58.45.712,simplestop_skeleton,2022.2.2,59.923663229205246,
$currentCorrectResponse,$currentGoStim,,,,,,,,,0,0,0,0,9,2,38,0,,,,,,,,,816.4078121371567,go,squareblack.png,right,0.2,,,,,,,,,,,,,,,,,,0.007582318037748337,0.48943373560905457,,818.9100152403116,test,1,,,,,,,816.4316510260105,816.9235559254885,816.9235559254885,816.9400930888951,817.1237036176026,817.6229264140129,817.9235665760934,818.9284085556865,right,1,0.2,0.350886732339859,,,,,,,,,,,s018,001,2024-07-24_16h58.45.712,simplestop_skeleton,2022.2.2,59.923663229205246,
None,None,,,,,,,,,0,0,0,0,9,3,39,2,,,,,,,,,818.9104514718056,go,squareblack.png,right,0.2,,,,,,,,,,,,,,,,,,0.001194000244140625,0.48971477895975113,,821.4127985797822,test,1,,,,,,,818.9284085556865,819.4262011498213,819.4262011498213,819.4425666593015,819.6262342818081,820.1269870772958,820.4264368787408,821.4326195195317,right,1,0.2,0.2690669111907482,,,,,,,,,,,s018,001,2024-07-24_16h58.45.712,simplestop_skeleton,2022.2.2,59.923663229205246,
None,None,,,,,,,,,0,0,0,0,10,0,40,3,,,,,,,,,821.4132286570966,go,circleblack.png,left,0.2,,,,,,,,,,,,,,,,,,0.0022177882492542267,0.48940538987517357,,823.9155625328422,test,1,,,,,,,821.4326195195317,821.9288467690349,821.9288467690349,821.9454780519009,822.1290458999574,822.6282079927623,822.9295774661005,823.9352153874934,left,1,0.2,0.3642011471092701,,,,,,,,,,,s018,001,2024-07-24_16h58.45.712,simplestop_skeleton,2022.2.2,59.923663229205246,
None,None,,,,,,,,,0,0,0,0,10,1,41,3,,,,,,,,,823.9160088934004,stop,squareblack.png,right,0.2,,,,,,,,,,,,,,,,,,0.0017709508538246155,0.48946842551231384,0.6898934692144394,826.4185927547514,test,1,,,,,,,823.9352153874934,824.4315014258027,824.4315014258027,824.4481965787709,824.6319165416062,825.1309767141938,825.432396184653,826.4378317892551,right,1,0.15,0.36464839428663254,,,,,,,,,,,s018,001,2024-07-24_16h58.45.712,simplestop_skeleton,2022.2.2,59.923663229205246,
None,None,,,,,,,,,0,0,0,0,10,2,42,1,,,,,,,,,826.4190274998546,stop,squareblack.png,right,0.15,,,,,,,,,,,,,,,,,,0.0013110600411891937,0.48815304040908813,0.6388639882206917,828.921087641269,test,1,,,,,,,826.4378317892551,826.935500625521,826.935500625521,826.9507350176573,827.0839494243264,827.5849924460053,827.9356701895595,828.9403826706111,None,0,0.2,,,,,,,,,,,,s018,001,2024-07-24_16h58.45.712,simplestop_skeleton,2022.2.2,59.923663229205246,
None,None,,,,,,,,,0,0,0,0,10,3,43,3,,,,,,,,,828.9215287193656,go,circleblack.png,left,0.2,,,,,,,,,,,,,,,,,,0.001802254468202591,0.48986752703785896,,831.4239743351936,test,1,,,,,,,828.9403826706111,829.4371435455978,829.4371435455978,829.4537298493087,829.6372912749648,830.1365191228688,830.4375970363617,831.4429605156183,left,1,0.2,0.3341064453125,,,,,,,,,,,s018,001,2024-07-24_16h58.45.712,simplestop_skeleton,2022.2.2,59.923663229205246,
None,None,,,,,,,,,0,0,0,0,11,0,44,1,,,,,,,,,831.424418926239,go,circleblack.png,left,0.2,,,,,,,,,,,,,,,,,,0.001375872641801834,0.48938310518860817,,833.9268190450966,test,1,,,,,,,831.4429605156183,831.9400510378182,831.9400510378182,831.9570259675384,832.1402727104723,832.6393324658275,832.9403341338038,833.9457648508251,left,1,0.2,0.31255172938108444,,,,,,,,,,,s018,001,2024-07-24_16h58.45.712,simplestop_skeleton,2022.2.2,59.923663229205246,
$currentCorrectResponse,$currentGoStim,,,,,,,,,0,0,0,0,11,1,45,0,,,,,,,,,833.9272647313774,go,squareblack.png,right,0.2,,,,,,,,,,,,,,,,,,0.001661885529756546,0.48957420885562897,,836.4295649379492,test,1,,,,,,,833.9457648508251,834.442519582808,834.442519582808,834.4593175686896,834.6428483389318,835.1419580802321,835.4428297542036,836.4490280076861,right,1,0.2,0.30097663402557373,,,,,,,,,,,s018,001,2024-07-24_16h58.45.712,simplestop_skeleton,2022.2.2,59.923663229205246,
None,None,,,,,,,,,0,0,0,0,11,2,46,2,,,,,,,,,836.4300073757768,stop,circleblack.png,left,0.2,,,,,,,,,,,,,,,,,,0.0019032768905162811,0.4894522689282894,0.6896815970540047,838.9323137365282,test,1,,,,,,,836.4490280076861,836.9453196972609,836.9453196972609,836.9620528630912,837.1455510295928,837.6447352357209,837.9459116756916,838.9512428231537,left,1,0.15,0.32432183623313904,,,,,,,,,,,s018,001,2024-07-24_16h58.45.712,simplestop_skeleton,2022.2.2,59.923663229205246,
$currentCorrectResponse,$currentGoStim,,,,,,,,,0,0,0,0,11,3,47,0,,,,,,,,,838.9327485263348,go,squareblack.png,right,0.15,,,,,,,,,,,,,,,,,,0.0016548596322536469,0.48952024057507515,,841.4352824054658,test,1,,,,,,,838.9512428231537,839.448194053024,839.448194053024,839.4648120999336,839.598228096962,840.0973627492785,840.4483206942677,841.4575706794858,right,1,0.15,0.34258076921105385,,,,,,,,,,,s018,001,2024-07-24_16h58.45.712,simplestop_skeleton,2022.2.2,59.923663229205246,
,,,,,,,,,,0,0,0,0,,,,,,"[{'fileName': 'circleblack.png', 'correct_response': 'left', 'condition': 'stop'}, {'fileName': 'circleblack.png', 'correct_response': 'left', 'condition': 'go'}, {'fileName': 'squareblack.png', 'correct_response': 'right', 'condition': 'stop'}, {'fileName': 'squareblack.png', 'correct_response': 'right', 'condition': 'go'}, {'fileName': 'squareblack.png', 'correct_response': 'right', 'condition': 'go'}, {'fileName': 'circleblack.png', 'correct_response': 'left', 'condition': 'go'}, {'fileName': 'circleblack.png', 'correct_response': 'left', 'condition': 'stop'}, {'fileName': 'squareblack.png', 'correct_response': 'right', 'condition': 'go'}, {'fileName': 'squareblack.png', 'correct_response': 'right', 'condition': 'go'}, {'fileName': 'squareblack.png', 'correct_response': 'right', 'condition': 'stop'}, {'fileName': 'circleblack.png', 'correct_response': 'left', 'condition': 'go'}, {'fileName': 'circleblack.png', 'correct_response': 'left', 'condition': 'go'}, {'fileName': 'squareblack.png', 'correct_response': 'right', 'condition': 'go'}, {'fileName': 'circleblack.png', 'correct_response': 'left', 'condition': 'go'}, {'fileName': 'squareblack.png', 'correct_response': 'right', 'condition': 'go'}, {'fileName': 'circleblack.png', 'correct_response': 'left', 'condition': 'go'}, {'fileName': 'circleblack.png', 'correct_response': 'left', 'condition': 'go'}, {'fileName': 'circleblack.png', 'correct_response': 'left', 'condition': 'go'}, {'fileName': 'squareblack.png', 'correct_response': 'right', 'condition': 'go'}, {'fileName': 'circleblack.png', 'correct_response': 'left', 'condition': 'stop'}, {'fileName': 'squareblack.png', 'correct_response': 'right', 'condition': 'stop'}, {'fileName': 'squareblack.png', 'correct_response': 'right', 'condition': 'go'}, {'fileName': 'squareblack.png', 'correct_response': 'right', 'condition': 'stop'}, {'fileName': 'circleblack.png', 'correct_response': 'left', 'condition': 'stop'}, {'fileName': 'circleblack.png', 'correct_response': 'left', 'condition': 'go'}, {'fileName': 'squareblack.png', 'correct_response': 'right', 'condition': 'go'}, {'fileName': 'circleblack.png', 'correct_response': 'left', 'condition': 'stop'}, {'fileName': 'circleblack.png', 'correct_response': 'left', 'condition': 'go'}, {'fileName': 'circleblack.png', 'correct_response': 'left', 'condition': 'go'}, {'fileName': 'squareblack.png', 'correct_response': 'right', 'condition': 'go'}, {'fileName': 'squareblack.png', 'correct_response': 'right', 'condition': 'stop'}, {'fileName': 'circleblack.png', 'correct_response': 'left', 'condition': 'go'}, {'fileName': 'squareblack.png', 'correct_response': 'right', 'condition': 'go'}, {'fileName': 'circleblack.png', 'correct_response': 'left', 'condition': 'stop'}, {'fileName': 'squareblack.png', 'correct_response': 'right', 'condition': 'stop'}, {'fileName': 'squareblack.png', 'correct_response': 'right', 'condition': 'go'}, {'fileName': 'squareblack.png', 'correct_response': 'right', 'condition': 'stop'}, {'fileName': 'circleblack.png', 'correct_response': 'left', 'condition': 'go'}, {'fileName': 'circleblack.png', 'correct_response': 'left', 'condition': 'stop'}, {'fileName': 'squareblack.png', 'correct_response': 'right', 'condition': 'go'}, {'fileName': 'squareblack.png', 'correct_response': 'right', 'condition': 'go'}, {'fileName': 'circleblack.png', 'correct_response': 'left', 'condition': 'go'}, {'fileName': 'circleblack.png', 'correct_response': 'left', 'condition': 'go'}, {'fileName': 'squareblack.png', 'correct_response': 'right', 'condition': 'go'}, {'fileName': 'squareblack.png', 'correct_response': 'right', 'condition': 'go'}, {'fileName': 'circleblack.png', 'correct_response': 'left', 'condition': 'go'}, {'fileName': 'circleblack.png', 'correct_response': 'left', 'condition': 'stop'}, {'fileName': 'squareblack.png', 'correct_response': 'right', 'condition': 'stop'}]",,,,,,,,,,,,,,,,,,,,,,,,,,,,,,,,,,,,,,,,,,,,,,,,,,,,,841.4575706794858,841.4575706794858,return,25.208773240447044,,,,,,,s018,001,2024-07-24_16h58.45.712,simplestop_skeleton,2022.2.2,59.923663229205246,
$currentCorrectResponse,$currentGoStim,,,,,,,,,1,0,1,0,0,0,0,0,,,,,,,,,866.6901580765843,stop,circleblack.png,left,0.15,,,,,,,,,,,,,,,,,,0.0026814453303813934,0.49462324753403664,0.64456832036376,869.1992734484375,test,2,,,,,,,866.7119241505861,867.2122076377273,867.2122076377273,867.2122076377273,867.3624371401966,867.8629819080234,868.2133086659014,869.2182984761894,left,1,0.1,0.3172524906694889,,,,,,,,,,,s018,001,2024-07-24_16h58.45.712,simplestop_skeleton,2022.2.2,59.923663229205246,
$currentCorrectResponse,$currentGoStim,,,,,,,,,1,0,1,0,0,1,1,0,,,,,,,,,869.1998210772872,go,circleblack.png,left,0.1,,,,,,,,,,,,,,,,,,0.0014641843736171722,0.48908739909529686,,871.7017436958849,test,2,,,,,,,869.2182984761894,869.7149564698339,869.7149564698339,869.7314954921603,869.8149927854538,870.3145667538047,870.7155046649277,871.7256199195981,left,1,0.1,0.3038298077881336,,,,,,,,,,,s018,001,2024-07-24_16h58.45.712,simplestop_skeleton,2022.2.2,59.923663229205246,
None,None,,,,,,,,,1,0,1,0,0,2,2,2,,,,,,,,,871.7021822966635,stop,squareblack.png,right,0.1,,,,,,,,,,,,,,,,,,0.00709182396531105,0.4894084334373474,0.5895923487842083,874.2046899572015,test,2,,,,,,,871.7256199195981,872.2176305241883,872.2176305241883,872.2344569675624,872.3178066574037,872.8186950050294,873.2187582291663,874.2236436754465,None,0,0.15,,,,,,,,,,,,s018,001,2024-07-24_16h58.45.712,simplestop_skeleton,2022.2.2,59.923663229205246,
None,None,,,,,,,,,1,0,1,0,0,3,3,1,,,,,,,,,874.2051301151514,go,squareblack.png,right,0.15,,,,,,,,,,,,,,,,,,0.0013471990823745728,0.48955240100622177,,876.7073903828859,test,2,,,,,,,874.2236436754465,874.7204996831715,874.7204996831715,874.737168636173,874.8705846518278,875.3697747290134,875.7212814576924,876.7265448197722,right,1,0.15,0.27821508422493935,,,,,,,,,,,s018,001,2024-07-24_16h58.45.712,simplestop_skeleton,2022.2.2,59.923663229205246,
None,None,,,,,,,,,1,0,1,0,1,0,4,2,,,,,,,,,876.7078278698027,go,squareblack.png,right,0.15,,,,,,,,,,,,,,,,,,0.0013384856283664703,0.48935098201036453,,879.2098832018673,test,2,,,,,,,876.7265448197722,877.2232945412397,877.2232945412397,877.2401156835258,877.3735243789852,877.8730242103338,878.2236131466925,879.2293056584895,right,1,0.15,0.34206222370266914,,,,,,,,,,,s018,001,2024-07-24_16h58.45.712,simplestop_skeleton,2022.2.2,59.923663229205246,
$currentCorrectResponse,$currentGoStim,,,,,,,,,1,0,1,0,1,1,5,0,,,,,,,,,879.2103200890124,go,circleblack.png,left,0.15,,,,,,,,,,,,,,,,,,0.001961398869752884,0.4894869774580002,,881.7126266472042,test,2,,,,,,,879.2293056584895,879.7258178256452,879.7258178256452,879.7425550408661,879.8762510530651,880.3752587586641,880.7264818809927,881.73161803931,left,1,0.15,0.26149827614426613,,,,,,,,,,,s018,001,2024-07-24_16h58.45.712,simplestop_skeleton,2022.2.2,59.923663229205246,
None,None,,,,,,,,,1,0,1,0,1,2,6,2,,,,,,,,,881.7130607701838,stop,circleblack.png,left,0.15,,,,,,,,,,,,,,,,,,0.0013985522091388702,0.48951584100723267,0.6398220621049404,884.2153797969222,test,2,,,,,,,881.73161803931,882.2287491112947,882.2287491112947,882.245350331068,882.3787720762193,882.8780399672687,883.2293375618756,884.2346499338746,left,1,0.1,0.2797400951385498,,,,,,,,,,,s018,001,2024-07-24_16h58.45.712,simplestop_skeleton,2022.2.2,59.923663229205246,
None,None,,,,,,,,,1,0,1,0,1,3,7,1,,,,,,,,,884.2158143594861,go,squareblack.png,right,0.1,,,,,,,,,,,,,,,,,,0.0016147755086421967,0.48973578587174416,,886.7181058898568,test,2,,,,,,,884.2346499338746,884.731378916651,884.731378916651,884.7482158504426,884.8318636119366,885.3331287875772,885.731813069433,886.7368097342551,right,1,0.1,0.3262692801654339,,,,,,,,,,,s018,001,2024-07-24_16h58.45.712,simplestop_skeleton,2022.2.2,59.923663229205246,
None,None,,,,,,,,,1,0,1,0,2,0,8,1,,,,,,,,,886.7185532599688,go,squareblack.png,right,0.1,,,,,,,,,,,,,,,,,,0.0012655705213546753,0.48828013241291046,,889.2211510390043,test,2,,,,,,,886.7368097342551,887.2327305190265,887.2327305190265,887.249327249825,887.3352772369981,887.8350995108485,888.2352854385972,889.2401071377099,left,0,0.1,0.3458869643509388,,,,,,,,,,,s018,001,2024-07-24_16h58.45.712,simplestop_skeleton,2022.2.2,59.923663229205246,
$currentCorrectResponse,$currentGoStim,,,,,,,,,1,0,1,0,2,1,9,0,,,,,,,,,889.2216040231287,stop,squareblack.png,right,0.1,,,,,,,,,,,,,,,,,,0.0012904442846775055,0.4893565662205219,0.5895432196557522,891.7241949923337,test,2,,,,,,,889.2401071377099,889.7373850420117,889.7373850420117,889.7537178136408,889.8372246138752,890.3377728052437,890.7384800650179,891.7436429001391,None,0,0.15,,,,,,,,,,,,s018,001,2024-07-24_16h58.45.712,simplestop_skeleton,2022.2.2,59.923663229205246,
None,None,,,,,,,,,1,0,1,0,2,2,10,3,,,,,,,,,891.7246432006359,go,circleblack.png,left,0.15,,,,,,,,,,,,,,,,,,0.002030111849308014,0.48950856551527977,,894.2268850058317,test,2,,,,,,,891.7436429001391,892.2398365326226,892.2398365326226,892.2564605884254,892.3899061009288,892.888962123543,893.2402201704681,894.2495617344975,left,1,0.15,0.2990287095308304,,,,,,,,,,,s018,001,2024-07-24_16h58.45.712,simplestop_skeleton,2022.2.2,59.923663229205246,
None,None,,,,,,,,,1,0,1,0,2,3,11,1,,,,,,,,,894.2273872494698,go,circleblack.png,left,0.15,,,,,,,,,,,,,,,,,,0.002074025571346283,0.48551035672426224,,896.7289728857577,test,2,,,,,,,894.2495617344975,894.7413959912956,894.7413959912956,894.758089158684,894.891405582428,895.3932991847396,895.74271190539,896.7480832412839,right,0,0.15,0.34760475158691406,,,,,,,,,,,s018,001,2024-07-24_16h58.45.712,simplestop_skeleton,2022.2.2,59.923663229205246,
None,None,,,,,,,,,1,0,1,0,3,0,12,2,,,,,,,,,896.729415949434,go,squareblack.png,right,0.15,,,,,,,,,,,,,,,,,,0.0017375275492668152,0.48994944989681244,,899.2318906858563,test,2,,,,,,,896.7480832412839,897.2452675290406,897.2452675290406,897.2617158219218,897.395572822541,897.894405990839,898.245797291398,899.2513854168355,right,1,0.15,0.31268302723765373,,,,,,,,,,,s018,001,2024-07-24_16h58.45.712,simplestop_skeleton,2022.2.2,59.923663229205246,
None,None,,,,,,,,,1,0,1,0,3,1,13,2,,,,,,,,,899.2324155755341,go,circleblack.png,left,0.15,,,,,,,,,,,,,,,,,,0.001922115683555603,0.4895458370447159,,901.7345765344799,test,2,,,,,,,899.2513854168355,899.7480467036366,899.7480467036366,899.7645976766944,899.8983066864312,900.3973264880478,900.7489164993167,901.7540843114257,left,1,0.15,0.33118440583348274,,,,,,,,,,,s018,001,2024-07-24_16h58.45.712,simplestop_skeleton,2022.2.2,59.923663229205246,
None,None,,,,,,,,,1,0,1,0,3,2,14,2,,,,,,,,,901.7350192256272,go,squareblack.png,right,0.15,,,,,,,,,,,,,,,,,,0.0016331076622009277,0.48959245160222054,,904.2374934852123,test,2,,,,,,,901.7540843114257,902.2506185024977,902.2506185024977,902.2675135955215,902.4011295251548,902.9015851020813,903.2510085590184,904.2576674632728,right,1,0.15,0.3670429512858391,,,,,,,,,,,s018,001,2024-07-24_16h58.45.712,simplestop_skeleton,2022.2.2,59.923663229205246,
$currentCorrectResponse,$currentGoStim,,,,,,,,,1,0,1,0,3,3,15,0,,,,,,,,,904.2379375696182,go,circleblack.png,left,0.15,,,,,,,,,,,,,,,,,,0.002755105495452881,0.4890736937522888,,906.7402953356504,test,2,,,,,,,904.2576674632728,904.7533507533371,904.7533507533371,904.7701356522739,904.9037147201598,905.4028184786439,905.7540009319782,906.759286377579,left,1,0.15,0.2922813966870308,,,,,,,,,,,s018,001,2024-07-24_16h58.45.712,simplestop_skeleton,2022.2.2,59.923663229205246,
None,None,,,,,,,,,1,0,1,0,4,0,16,3,,,,,,,,,906.7408100180328,go,circleblack.png,left,0.15,,,,,,,,,,,,,,,,,,0.0013419687747955322,0.48957300558686256,,909.2428799308836,test,2,,,,,,,906.759286377579,907.2564046084881,907.2564046084881,907.2729123495519,907.4064983576536,907.905550237745,908.2569770887494,909.2622750476003,left,1,0.15,0.2882130555808544,,,,,,,,,,,s018,001,2024-07-24_16h58.45.712,simplestop_skeleton,2022.2.2,59.923663229205246,
None,None,,,,,,,,,1,0,1,0,4,1,17,1,,,,,,,,,909.2433148249984,go,circleblack.png,left,0.15,,,,,,,,,,,,,,,,,,0.0013841316103935242,0.489687480032444,,911.7458265535533,test,2,,,,,,,909.2622750476003,909.759005907923,909.759005907923,909.7760268375278,909.9092798829079,910.4082990214229,910.759729526937,911.765001386404,left,1,0.15,0.30547161400318146,,,,,,,,,,,s018,001,2024-07-24_16h58.45.712,simplestop_skeleton,2022.2.2,59.923663229205246,
None,None,,,,,,,,,1,0,1,0,4,2,18,2,,,,,,,,,911.7462546378374,go,squareblack.png,right,0.15,,,,,,,,,,,,,,,,,,0.0017130039632320404,0.48967868462204933,,914.2483571581542,test,2,,,,,,,911.765001386404,912.2618113048375,912.2618113048375,912.2785959430039,912.4119763709605,912.9112908430398,913.2625554986298,914.2679053768516,right,1,0.15,0.3312115930020809,,,,,,,,,,,s018,001,2024-07-24_16h58.45.712,simplestop_skeleton,2022.2.2,59.923663229205246,
None,None,,,,,,,,,1,0,1,0,4,3,19,3,,,,,,,,,914.2487931884825,stop,circleblack.png,left,0.15,,,,,,,,,,,,,,,,,,0.001836884766817093,0.4898264482617378,0.6398227214813232,916.751269493252,test,2,,,,,,,914.2679053768516,914.7648925259709,914.7648925259709,914.7812214270234,914.9145812802017,915.415221285075,915.7650440335274,916.7704990766943,left,1,0.1,0.39282071590423584,,,,,,,,,,,s018,001,2024-07-24_16h58.45.712,simplestop_skeleton,2022.2.2,59.923663229205246,
$currentCorrectResponse,$currentGoStim,,,,,,,,,1,0,1,0,5,0,20,0,,,,,,,,,916.7517187967896,stop,squareblack.png,right,0.1,,,,,,,,,,,,,,,,,,0.0017789192497730255,0.488225344568491,0.5895503014326096,919.2543011941016,test,2,,,,,,,916.7704990766943,917.2659735865891,917.2659735865891,917.282867860049,917.366663813591,917.8679873608053,918.2685694955289,919.273321416229,None,0,0.15,,,,,,,,,,,,s018,001,2024-07-24_16h58.45.712,simplestop_skeleton,2022.2.2,59.923663229205246,
None,None,,,,,,,,,1,0,1,0,5,1,21,3,,,,,,,,,919.2547445558012,go,squareblack.png,right,0.15,,,,,,,,,,,,,,,,,,0.001429494470357895,0.4896507114171982,,921.7571590021253,test,2,,,,,,,919.273321416229,919.7702347189188,919.7702347189188,919.7868747115135,919.9202629551291,920.4195196181536,920.7708383463323,921.7762119062245,right,1,0.15,0.32542647048830986,,,,,,,,,,,s018,001,2024-07-24_16h58.45.712,simplestop_skeleton,2022.2.2,59.923663229205246,
$currentCorrectResponse,$currentGoStim,,,,,,,,,1,0,1,0,5,2,22,0,,,,,,,,,921.7575923241675,stop,squareblack.png,right,0.15,,,,,,,,,,,,,,,,,,0.0013437755405902863,0.48936543613672256,0.639661144465208,924.2594520486891,test,2,,,,,,,921.7762119062245,922.2729295156896,922.2729295156896,922.2899542823434,922.4230777323246,922.9221102185547,923.2737105600536,924.2790033854544,right,1,0.1,0.3349384069442749,,,,,,,,,,,s018,001,2024-07-24_16h58.45.712,simplestop_skeleton,2022.2.2,59.923663229205246,
None,None,,,,,,,,,1,0,1,0,5,3,23,1,,,,,,,,,924.2598864212632,stop,circleblack.png,left,0.1,,,,,,,,,,,,,,,,,,0.0018864981830120087,0.48965582251548767,0.5897791087627411,926.7622634284198,test,2,,,,,,,924.2790033854544,924.7759102024138,924.7759102024138,924.7921830378473,924.8758072853088,925.3762464262545,925.7767467387021,926.7812497243285,None,0,0.15,,,,,,,,,,,,s018,001,2024-07-24_16h58.45.712,simplestop_skeleton,2022.2.2,59.923663229205246,
None,None,,,,,,,,,1,0,1,0,6,0,24,3,,,,,,,,,926.7627569027245,go,circleblack.png,left,0.15,,,,,,,,,,,,,,,,,,0.00130525603890419,0.48965467885136604,,929.2656254172325,test,2,,,,,,,926.7812497243285,927.2782673425972,927.2782673425972,927.2951720654964,927.4284836277366,927.9278178475797,928.2791068926454,929.2851878665388,left,1,0.15,0.357245784252882,,,,,,,,,,,s018,001,2024-07-24_16h58.45.712,simplestop_skeleton,2022.2.2,59.923663229205246,
None,None,,,,,,,,,1,0,1,0,6,1,25,1,,,,,,,,,929.2661274634302,go,squareblack.png,right,0.15,,,,,,,,,,,,,,,,,,0.002439405769109726,0.4888768270611763,,931.7677529193461,test,2,,,,,,,929.2851878665388,929.7809677273035,929.7809677273035,929.7978252917528,929.9312726147473,930.4307518191636,930.7819740474224,931.7869324050844,right,1,0.15,0.3226051479578018,,,,,,,,,,,s018,001,2024-07-24_16h58.45.712,simplestop_skeleton,2022.2.2,59.923663229205246,
$currentCorrectResponse,$currentGoStim,,,,,,,,,1,0,1,0,6,2,26,0,,,,,,,,,931.7681889273226,stop,circleblack.png,left,0.15,,,,,,,,,,,,,,,,,,0.001715444028377533,0.48969555273652077,0.6400707811117172,934.270574234426,test,2,,,,,,,931.7869324050844,932.2838554494083,932.2838554494083,932.3003847412765,932.4343952685595,932.949838001281,933.2846667915583,934.2899763211608,left,1,0.1,0.3235631175339222,,,,,,,,,,,s018,001,2024-07-24_16h58.45.712,simplestop_skeleton,2022.2.2,59.923663229205246,
None,None,,,,,,,,,1,0,1,0,6,3,27,3,,,,,,,,,934.271005064249,go,circleblack.png,left,0.1,,,,,,,,,,,,,,,,,,0.0014421939849853516,0.48933760076761246,,936.7735028378665,test,2,,,,,,,934.2899763211608,934.7866438366473,934.7866438366473,934.803380805999,934.8868016526103,935.386271905154,935.7871707268059,936.7923912070692,left,1,0.1,0.3062782660126686,,,,,,,,,,,s018,001,2024-07-24_16h58.45.712,simplestop_skeleton,2022.2.2,59.923663229205246,
None,None,,,,,,,,,1,0,1,0,7,0,28,3,,,,,,,,,936.7739496603608,go,circleblack.png,left,0.1,,,,,,,,,,,,,,,,,,0.001378372311592102,0.48962099477648735,,939.2762656994164,test,2,,,,,,,936.7923912070692,937.2893783636391,937.2893783636391,937.3062068298459,937.3894618526101,937.8891145512462,938.2899613119662,939.2955295592546,left,1,0.1,0.3069263584911823,,,,,,,,,,,s018,001,2024-07-24_16h58.45.712,simplestop_skeleton,2022.2.2,59.923663229205246,
None,None,,,,,,,,,1,0,1,0,7,1,29,2,,,,,,,,,939.2767122127116,go,squareblack.png,right,0.1,,,,,,,,,,,,,,,,,,0.0017798878252506256,0.48944538086652756,,941.779023334384,test,2,,,,,,,939.2955295592546,939.7923070304096,939.7923070304096,939.8087397031486,939.8922755494714,940.3915534690022,940.7926882207394,941.7977494634688,right,1,0.1,0.2943021096289158,,,,,,,,,,,s018,001,2024-07-24_16h58.45.712,simplestop_skeleton,2022.2.2,59.923663229205246,
$currentCorrectResponse,$currentGoStim,,,,,,,,,1,0,1,0,7,2,30,0,,,,,,,,,941.7794619835913,stop,squareblack.png,right,0.1,,,,,,,,,,,,,,,,,,0.0013322122395038605,0.48963748291134834,0.5897020846605301,944.2816511951387,test,2,,,,,,,941.7977494634688,942.2950037792325,942.2950037792325,942.3116343691945,942.3949293829501,942.8941134922206,943.2954316027462,944.3011070266366,right,1,0.05,0.28341230005025864,,,,,,,,,,,s018,001,2024-07-24_16h58.45.712,simplestop_skeleton,2022.2.2,59.923663229205246,
None,None,,,,,,,,,1,0,1,0,7,3,31,3,,,,,,,,,944.2820863910019,go,circleblack.png,left,0.05,,,,,,,,,,,,,,,,,,0.001841951161623001,0.489657249301672,,946.7842419482768,test,2,,,,,,,944.3011070266366,944.797903355211,944.797903355211,944.8144251666963,944.847595565021,945.3483426384628,945.7981877438724,946.8035443536937,left,1,0.05,0.2780638486146927,,,,,,,,,,,s018,001,2024-07-24_16h58.45.712,simplestop_skeleton,2022.2.2,59.923663229205246,
$currentCorrectResponse,$currentGoStim,,,,,,,,,1,0,1,0,8,0,32,0,,,,,,,,,946.7846763394773,go,squareblack.png,right,0.05,,,,,,,,,,,,,,,,,,0.001597091555595398,0.4883466139435768,,949.2870921827853,test,2,,,,,,,946.8035443536937,947.2989962734282,947.2989962734282,947.315970249474,947.3492263033986,947.8516964651644,948.3013914525509,949.3064871318638,right,1,0.05,0.38927575573325157,,,,,,,,,,,s018,001,2024-07-24_16h58.45.712,simplestop_skeleton,2022.2.2,59.923663229205246,
None,None,,,,,,,,,1,0,1,0,8,1,33,1,,,,,,,,,949.2875346280634,stop,circleblack.png,left,0.05,,,,,,,,,,,,,,,,,,0.0018574930727481842,0.4895365536212921,0.5397942550480366,951.7900118790567,test,2,,,,,,,949.3064871318638,949.8032876178622,949.8032876178622,949.8197628259659,949.8534375168383,950.3538869731128,950.8043146133423,951.8094175942242,None,0,0.1,,,,,,,,,,,,s018,001,2024-07-24_16h58.45.712,simplestop_skeleton,2022.2.2,59.923663229205246,
None,None,,,,,,,,,1,0,1,0,8,2,34,2,,,,,,,,,951.790453903377,stop,squareblack.png,right,0.1,,,,,,,,,,,,,,,,,,0.0017043128609657288,0.4894634336233139,0.5896428041160107,954.2928455583751,test,2,,,,,,,951.8094175942242,952.3061415739357,952.3061415739357,952.3226863592863,952.4059518501163,952.9066963493824,953.3073651790619,954.3118700608611,None,0,0.15,,,,,,,,,,,,s018,001,2024-07-24_16h58.45.712,simplestop_skeleton,2022.2.2,59.923663229205246,
None,None,,,,,,,,,1,0,1,0,8,3,35,1,,,,,,,,,954.2932840809226,go,squareblack.png,right,0.15,,,,,,,,,,,,,,,,,,0.001328933984041214,0.48952918127179146,,956.795460999012,test,2,,,,,,,954.3118700608611,954.8090122900903,954.8090122900903,954.8255516812205,954.9589232802391,955.4587827026844,955.8091066367924,956.8143437281251,right,1,0.15,0.34373532235622406,,,,,,,,,,,s018,001,2024-07-24_16h58.45.712,simplestop_skeleton,2022.2.2,59.923663229205246,
None,None,,,,,,,,,1,0,1,0,9,0,36,3,,,,,,,,,956.7958953082561,stop,squareblack.png,right,0.15,,,,,,,,,,,,,,,,,,0.0013267174363136292,0.49001626670360565,0.6399664878845215,959.2984923049808,test,2,,,,,,,956.8143437281251,957.3119034729898,957.3119034729898,957.3282112255692,957.4618364721537,957.9609559178352,958.3118096552789,959.318125795573,right,1,0.1,0.30029887706041336,,,,,,,,,,,s018,001,2024-07-24_16h58.45.712,simplestop_skeleton,2022.2.2,59.923663229205246,
None,None,,,,,,,,,1,0,1,0,9,1,37,3,,,,,,,,,959.2989177927375,go,circleblack.png,left,0.1,,,,,,,,,,,,,,,,,,0.001991111785173416,0.4892185963690281,,961.8009244278073,test,2,,,,,,,959.318125795573,959.8143062219024,959.8143062219024,959.8309251591563,959.9143557213247,960.4148969836533,960.8139842301607,961.8199896104634,left,1,0.1,0.468302346765995,,,,,,,,,,,s018,001,2024-07-24_16h58.45.712,simplestop_skeleton,2022.2.2,59.923663229205246,
None,None,,,,,,,,,1,0,1,0,9,2,38,2,,,,,,,,,961.8013526834548,stop,circleblack.png,left,0.1,,,,,,,,,,,,,,,,,,0.0013103596866130829,0.48972247913479805,0.5899051390588284,964.3038658723235,test,2,,,,,,,961.8199896104634,962.316992033273,962.316992033273,962.3335372805595,962.4171720743179,962.9176269099116,963.3185245208442,964.3232741877437,None,0,0.15,,,,,,,,,,,,s018,001,2024-07-24_16h58.45.712,simplestop_skeleton,2022.2.2,59.923663229205246,
$currentCorrectResponse,$currentGoStim,,,,,,,,,1,0,1,0,9,3,39,0,,,,,,,,,964.304312877357,go,squareblack.png,right,0.15,,,,,,,,,,,,,,,,,,0.0016115419566631317,0.48993971943855286,,966.8064712174237,test,2,,,,,,,964.3232741877437,964.820007648319,964.820007648319,964.836558509618,964.9703203998506,965.4693947546184,965.8207522183657,966.8256197795272,right,1,0.15,0.3233391270041466,,,,,,,,,,,s018,001,2024-07-24_16h58.45.712,simplestop_skeleton,2022.2.2,59.923663229205246,
None,None,,,,,,,,,1,0,1,0,10,0,40,3,,,,,,,,,966.8069011718035,go,squareblack.png,right,0.15,,,,,,,,,,,,,,,,,,0.0012563355267047882,0.4898412302136421,,969.3091065734625,test,2,,,,,,,966.8256197795272,967.3227948695421,967.3227948695421,967.3394490219653,967.4727766104043,967.9733340479434,968.3231460899115,969.3285582996905,right,1,0.15,0.38821083307266235,,,,,,,,,,,s018,001,2024-07-24_16h58.45.712,simplestop_skeleton,2022.2.2,59.923663229205246,
None,None,,,,,,,,,1,0,1,0,10,1,41,1,,,,,,,,,969.3095550313592,go,circleblack.png,left,0.15,,,,,,,,,,,,,,,,,,0.0017629489302635193,0.48974035307765007,,971.8118135370314,test,2,,,,,,,969.3285582996905,969.8252140432596,969.8252140432596,969.841755501926,969.9755608104169,970.4746799729764,970.8257046192884,971.8306380920112,left,1,0.15,0.2933318391442299,,,,,,,,,,,s018,001,2024-07-24_16h58.45.712,simplestop_skeleton,2022.2.2,59.923663229205246,
None,None,,,,,,,,,1,0,1,0,10,2,42,3,,,,,,,,,971.8122497238219,go,circleblack.png,left,0.15,,,,,,,,,,,,,,,,,,0.0012628436088562012,0.4899691753089428,,974.3146706037223,test,2,,,,,,,971.8306380920112,972.3282312117517,972.3282312117517,972.3447595871985,972.4782005026937,972.9774376042187,973.3286291658878,974.3341419175267,left,1,0.15,0.36235396564006805,,,,,,,,,,,s018,001,2024-07-24_16h58.45.712,simplestop_skeleton,2022.2.2,59.923663229205246,
None,None,,,,,,,,,1,0,1,0,10,3,43,1,,,,,,,,,974.3151165172458,go,squareblack.png,right,0.15,,,,,,,,,,,,,,,,,,0.0017793923616409302,0.48984726145863533,,976.8175686597824,test,2,,,,,,,974.3341419175267,974.8307630084455,974.8307630084455,974.8475344590843,974.9810303114355,975.4804647751153,975.8310473226011,976.8362160101533,right,1,0.15,0.33633124455809593,,,,,,,,,,,s018,001,2024-07-24_16h58.45.712,simplestop_skeleton,2022.2.2,59.923663229205246,
None,None,,,,,,,,,1,0,1,0,11,0,44,2,,,,,,,,,976.8180021233857,go,squareblack.png,right,0.15,,,,,,,,,,,,,,,,,,0.001199088990688324,0.48959027603268623,,979.3206468746066,test,2,,,,,,,976.8362160101533,977.3334981203079,977.3334981203079,977.3502919860184,977.4837649054825,977.984421223402,978.333890452981,979.3400874771178,right,1,0.15,0.37577779591083527,,,,,,,,,,,s018,001,2024-07-24_16h58.45.712,simplestop_skeleton,2022.2.2,59.923663229205246,
$currentCorrectResponse,$currentGoStim,,,,,,,,,1,0,1,0,11,1,45,0,,,,,,,,,979.3211566545069,go,circleblack.png,left,0.15,,,,,,,,,,,,,,,,,,0.001948915421962738,0.4893646463751793,,981.8231386132538,test,2,,,,,,,979.3400874771178,979.8366092927754,979.8366092927754,979.8529680892825,979.9865658432245,980.4856666103005,980.837007638067,981.842343237251,left,1,0.15,0.3027803413569927,,,,,,,,,,,s018,001,2024-07-24_16h58.45.712,simplestop_skeleton,2022.2.2,59.923663229205246,
None,None,,,,,,,,,1,0,1,0,11,2,46,1,,,,,,,,,981.8235845044255,stop,circleblack.png,left,0.15,,,,,,,,,,,,,,,,,,0.0014575012028217316,0.4896330274641514,0.6396499983966351,984.3258818872273,test,2,,,,,,,981.842343237251,982.3391861133277,982.3391861133277,982.355920650065,982.4893226101995,982.988356500864,983.3397903814912,984.3449731357396,left,1,0.1,0.3062622584402561,,,,,,,,,,,s018,001,2024-07-24_16h58.45.712,simplestop_skeleton,2022.2.2,59.923663229205246,
None,None,,,,,,,,,1,0,1,0,11,3,47,2,,,,,,,,,984.326326712966,stop,squareblack.png,right,0.1,,,,,,,,,,,,,,,,,,0.0016456209123134613,0.48981835320591927,0.5896768160164356,986.8287488818169,test,2,,,,,,,984.3449731357396,984.8418984934688,984.8418984934688,984.8584661819041,984.9420607462525,985.4424962699413,985.8420255109668,986.8446928746998,right,1,0.05,0.33137112110853195,,,,,,,,,,,s018,001,2024-07-24_16h58.45.712,simplestop_skeleton,2022.2.2,59.923663229205246,
,,,,,,,,,,1,0,1,0,,,,,,,,,,,,,,,,,,,,,,,,,,,,,,,,,,,,,,,,,,,,,,,,,,,,,,,,,,,986.8446928746998,986.8446928746998,return,16.74747883901,"[{'fileName': 'circleblack.png', 'correct_response': 'left', 'condition': 'go'}, {'fileName': 'squareblack.png', 'correct_response': 'right', 'condition': 'go'}, {'fileName': 'circleblack.png', 'correct_response': 'left', 'condition': 'go'}, {'fileName': 'circleblack.png', 'correct_response': 'left', 'condition': 'stop'}, {'fileName': 'circleblack.png', 'correct_response': 'left', 'condition': 'go'}, {'fileName': 'squareblack.png', 'correct_response': 'right', 'condition': 'go'}, {'fileName': 'squareblack.png', 'correct_response': 'right', 'condition': 'go'}, {'fileName': 'squareblack.png', 'correct_response': 'right', 'condition': 'stop'}, {'fileName': 'circleblack.png', 'correct_response': 'left', 'condition': 'stop'}, {'fileName': 'circleblack.png', 'correct_response': 'left', 'condition': 'go'}, {'fileName': 'squareblack.png', 'correct_response': 'right', 'condition': 'stop'}, {'fileName': 'squareblack.png', 'correct_response': 'right', 'condition': 'go'}, {'fileName': 'circleblack.png', 'correct_response': 'left', 'condition': 'go'}, {'fileName': 'squareblack.png', 'correct_response': 'right', 'condition': 'stop'}, {'fileName': 'squareblack.png', 'correct_response': 'right', 'condition': 'go'}, {'fileName': 'squareblack.png', 'correct_response': 'right', 'condition': 'stop'}, {'fileName': 'circleblack.png', 'correct_response': 'left', 'condition': 'stop'}, {'fileName': 'squareblack.png', 'correct_response': 'right', 'condition': 'go'}, {'fileName': 'circleblack.png', 'correct_response': 'left', 'condition': 'go'}, {'fileName': 'squareblack.png', 'correct_response': 'right', 'condition': 'go'}, {'fileName': 'circleblack.png', 'correct_response': 'left', 'condition': 'go'}, {'fileName': 'circleblack.png', 'correct_response': 'left', 'condition': 'stop'}, {'fileName': 'circleblack.png', 'correct_response': 'left', 'condition': 'go'}, {'fileName': 'squareblack.png', 'correct_response': 'right', 'condition': 'go'}, {'fileName': 'circleblack.png', 'correct_response': 'left', 'condition': 'stop'}, {'fileName': 'circleblack.png', 'correct_response': 'left', 'condition': 'go'}, {'fileName': 'circleblack.png', 'correct_response': 'left', 'condition': 'go'}, {'fileName': 'squareblack.png', 'correct_response': 'right', 'condition': 'go'}, {'fileName': 'squareblack.png', 'correct_response': 'right', 'condition': 'go'}, {'fileName': 'circleblack.png', 'correct_response': 'left', 'condition': 'go'}, {'fileName': 'squareblack.png', 'correct_response': 'right', 'condition': 'go'}, {'fileName': 'circleblack.png', 'correct_response': 'left', 'condition': 'stop'}, {'fileName': 'squareblack.png', 'correct_response': 'right', 'condition': 'go'}, {'fileName': 'squareblack.png', 'correct_response': 'right', 'condition': 'stop'}, {'fileName': 'circleblack.png', 'correct_response': 'left', 'condition': 'go'}, {'fileName': 'squareblack.png', 'correct_response': 'right', 'condition': 'stop'}, {'fileName': 'squareblack.png', 'correct_response': 'right', 'condition': 'go'}, {'fileName': 'circleblack.png', 'correct_response': 'left', 'condition': 'stop'}, {'fileName': 'circleblack.png', 'correct_response': 'left', 'condition': 'go'}, {'fileName': 'circleblack.png', 'correct_response': 'left', 'condition': 'go'}, {'fileName': 'squareblack.png', 'correct_response': 'right', 'condition': 'go'}, {'fileName': 'squareblack.png', 'correct_response': 'right', 'condition': 'go'}, {'fileName': 'circleblack.png', 'correct_response': 'left', 'condition': 'go'}, {'fileName': 'squareblack.png', 'correct_response': 'right', 'condition': 'stop'}, {'fileName': 'circleblack.png', 'correct_response': 'left', 'condition': 'go'}, {'fileName': 'squareblack.png', 'correct_response': 'right', 'condition': 'stop'}, {'fileName': 'circleblack.png', 'correct_response': 'left', 'condition': 'stop'}, {'fileName': 'squareblack.png', 'correct_response': 'right', 'condition': 'go'}]",,,,,,s018,001,2024-07-24_16h58.45.712,simplestop_skeleton,2022.2.2,59.923663229205246,
None,None,,,,,,,,,2,0,2,0,0,0,0,3,,,,,,,,,1003.6183080151677,go,circleblack.png,left,0.05,,,,,,,,,,,,,,,,,,0.002680458128452301,0.484617680311203,,1006.1168812662363,test,3,,,,,,,1003.6399030573666,1004.1302337683737,1004.1302337683737,1004.1466936506331,1004.1800420731306,1004.6804963648319,1005.131186939776,1006.141254670918,left,1,0.05,0.3028273656964302,,,,,,,,,,,s018,001,2024-07-24_16h58.45.712,simplestop_skeleton,2022.2.2,59.923663229205246,
$currentCorrectResponse,$currentGoStim,,,,,,,,,2,0,2,0,0,1,1,0,,,,,,,,,1006.1174286268651,go,squareblack.png,right,0.05,,,,,,,,,,,,,,,,,,0.007244132459163666,0.4894230365753174,,1008.6194076612592,test,3,,,,,,,1006.141254670918,1006.6327831409872,1006.6327831409872,1006.6493203081191,1006.6830850578845,1007.181931938976,1007.6334387585521,1008.6386277228594,right,1,0.05,0.34250279888510704,,,,,,,,,,,s018,001,2024-07-24_16h58.45.712,simplestop_skeleton,2022.2.2,59.923663229205246,
$currentCorrectResponse,$currentGoStim,,,,,,,,,2,0,2,0,0,2,2,0,,,,,,,,,1008.6198390126228,go,circleblack.png,left,0.05,,,,,,,,,,,,,,,,,,0.0017632991075515747,0.48963653296232224,,1011.121847435832,test,3,,,,,,,1008.6386277228594,1009.135628387332,1009.135628387332,1009.1521760448813,1009.1854400597513,1009.6860737465322,1010.1361012160778,1011.140639424324,left,1,0.05,0.33895066753029823,,,,,,,,,,,s018,001,2024-07-24_16h58.45.712,simplestop_skeleton,2022.2.2,59.923663229205246,
None,None,,,,,,,,,2,0,2,0,0,3,3,1,,,,,,,,,1011.1222791858017,stop,circleblack.png,left,0.05,,,,,,,,,,,,,,,,,,0.0012949071824550629,0.48998384922742844,0.5400137417018414,1013.6248500756919,test,3,,,,,,,1011.140639424324,1011.6379464939237,1011.6379464939237,1011.6550201103091,1011.6881878189743,1012.188781093806,1012.6392737850547,1013.6438940651715,None,0,0.1,,,,,,,,,,,,s018,001,2024-07-24_16h58.45.712,simplestop_skeleton,2022.2.2,59.923663229205246,
None,None,,,,,,,,,2,0,2,0,1,0,4,3,,,,,,,,,1013.6252944581211,go,circleblack.png,left,0.1,,,,,,,,,,,,,,,,,,0.0013916566967964172,0.4895692318677902,,1016.126760225743,test,3,,,,,,,1013.6438940651715,1014.1408084817231,1014.1408084817231,1014.1575343124568,1014.2408659346402,1014.7414171993732,1015.1413666084409,1016.1451937034726,left,1,0.1,0.3445873185992241,,,,,,,,,,,s018,001,2024-07-24_16h58.45.712,simplestop_skeleton,2022.2.2,59.923663229205246,
None,None,,,,,,,,,2,0,2,0,1,1,5,2,,,,,,,,,1016.1272905059159,go,squareblack.png,right,0.1,,,,,,,,,,,,,,,,,,0.002260081470012665,0.4902671054005623,,1018.6303366497159,test,3,,,,,,,1016.1451937034726,1016.6443676166236,1016.6443676166236,1016.6609326899052,1016.7425490245223,1017.242841526866,1017.6443194411695,1018.6494248248637,right,1,0.1,0.27788396179676056,,,,,,,,,,,s018,001,2024-07-24_16h58.45.712,simplestop_skeleton,2022.2.2,59.923663229205246,
None,None,,,,,,,,,2,0,2,0,1,2,6,1,,,,,,,,,1018.6307699084282,go,squareblack.png,right,0.1,,,,,,,,,,,,,,,,,,0.0012165307998657227,0.48994307219982147,,1021.1330321282148,test,3,,,,,,,1018.6494248248637,1019.1463647931814,1019.1463647931814,1019.1632387153804,1019.2464010417461,1019.745859850198,1020.1470075845718,1021.1519849337637,right,1,0.1,0.31439821422100067,,,,,,,,,,,s018,001,2024-07-24_16h58.45.712,simplestop_skeleton,2022.2.2,59.923663229205246,
None,None,,,,,,,,,2,0,2,0,1,3,7,3,,,,,,,,,1021.1334608867764,stop,squareblack.png,right,0.1,,,,,,,,,,,,,,,,,,0.0013135001063346863,0.489695280790329,0.5898806937038898,1023.6357827521861,test,3,,,,,,,1021.1519849337637,1021.6492496244609,1021.6492496244609,1021.6657165400684,1021.7492322847247,1022.2497250698507,1022.6497044414282,1023.6552587412298,right,1,0.05,0.34437981992959976,,,,,,,,,,,s018,001,2024-07-24_16h58.45.712,simplestop_skeleton,2022.2.2,59.923663229205246,
$currentCorrectResponse,$currentGoStim,,,,,,,,,2,0,2,0,2,0,8,0,,,,,,,,,1023.6362086646259,stop,circleblack.png,left,0.05,,,,,,,,,,,,,,,,,,0.0020136870443820953,0.4895508587360382,0.5396653302013874,1026.138673081994,test,3,,,,,,,1023.6552587412298,1024.1521711796522,1024.1521711796522,1024.1686459742486,1024.201898008585,1024.7025811225176,1025.1530078910291,1026.1576390974224,None,0,0.1,,,,,,,,,,,,s018,001,2024-07-24_16h58.45.712,simplestop_skeleton,2022.2.2,59.923663229205246,
None,None,,,,,,,,,2,0,2,0,2,1,9,1,,,,,,,,,1026.1391131952405,go,circleblack.png,left,0.1,,,,,,,,,,,,,,,,,,0.0013190656900405884,0.4898521862924099,,1028.6415884532034,test,3,,,,,,,1026.1576390974224,1026.6545128524303,1026.6545128524303,1026.6714945882559,1026.7547570690513,1027.2553221471608,1027.6551881022751,1028.6608349643648,left,1,0.1,0.3590051308274269,,,,,,,,,,,s018,001,2024-07-24_16h58.45.712,simplestop_skeleton,2022.2.2,59.923663229205246,
None,None,,,,,,,,,2,0,2,0,2,2,10,1,,,,,,,,,1028.642031762749,stop,squareblack.png,right,0.1,,,,,,,,,,,,,,,,,,0.001637723296880722,0.4897742532193661,0.5897715464234352,1031.1440425626934,test,3,,,,,,,1028.6608349643648,1029.1577349156141,1029.1577349156141,1029.1742466539145,1029.257804054767,1029.7583170458674,1030.1589345112443,1031.1626765914261,None,0,0.15,,,,,,,,,,,,s018,001,2024-07-24_16h58.45.712,simplestop_skeleton,2022.2.2,59.923663229205246,
None,None,,,,,,,,,2,0,2,0,2,3,11,1,,,,,,,,,1031.1444779522717,go,squareblack.png,right,0.15,,,,,,,,,,,,,,,,,,0.0012306645512580872,0.4897799380123615,,1033.646956834942,test,3,,,,,,,1031.1626765914261,1031.6606764420867,1031.6606764420867,1031.6773194037378,1031.8104071058333,1032.3097133785486,1032.6607523597777,1033.666272394359,right,1,0.15,0.3100258335471153,,,,,,,,,,,s018,001,2024-07-24_16h58.45.712,simplestop_skeleton,2022.2.2,59.923663229205246,
None,None,,,,,,,,,2,0,2,0,3,0,12,2,,,,,,,,,1033.647396568209,go,circleblack.png,left,0.15,,,,,,,,,,,,,,,,,,0.001954399049282074,0.4896825738251209,,1036.1496460996568,test,3,,,,,,,1033.666272394359,1034.163073245436,1034.163073245436,1034.179664671421,1034.3131327219307,1034.812935102731,1035.1639537289739,1036.1687680706382,left,1,0.15,0.3163227289915085,,,,,,,,,,,s018,001,2024-07-24_16h58.45.712,simplestop_skeleton,2022.2.2,59.923663229205246,
None,None,,,,,,,,,2,0,2,0,3,1,13,3,,,,,,,,,1036.1500766538084,stop,squareblack.png,right,0.15,,,,,,,,,,,,,,,,,,0.0016339495778083801,0.489863570779562,0.6396707594394684,1038.652707606554,test,3,,,,,,,1036.1687680706382,1036.6658095754683,1036.6658095754683,1036.6822886541486,1036.8164735920727,1037.3317662663758,1037.6668064147234,1038.6715235821903,right,1,0.1,0.2869030795991421,,,,,,,,,,,s018,001,2024-07-24_16h58.45.712,simplestop_skeleton,2022.2.2,59.923663229205246,
None,None,,,,,,,,,2,0,2,0,3,2,14,1,,,,,,,,,1038.6531457193196,go,squareblack.png,right,0.1,,,,,,,,,,,,,,,,,,0.0014313757419586182,0.4897704981267452,,1041.155748859048,test,3,,,,,,,1038.6715235821903,1039.168672785163,1039.168672785163,1039.1854356005788,1039.2690666280687,1039.7693743035197,1040.1688302345574,1041.174761671573,right,1,0.1,0.3115818053483963,,,,,,,,,,,s018,001,2024-07-24_16h58.45.712,simplestop_skeleton,2022.2.2,59.923663229205246,
$currentCorrectResponse,$currentGoStim,,,,,,,,,2,0,2,0,3,3,15,0,,,,,,,,,1041.1561877205968,stop,squareblack.png,right,0.1,,,,,,,,,,,,,,,,,,0.0013195648789405823,0.48962144553661346,0.5894290059804916,1043.65809468925,test,3,,,,,,,1041.174761671573,1041.6714228317142,1041.6714228317142,1041.6881055422127,1041.7714767120779,1042.2719650268555,1042.6725703664124,1043.6838302351534,None,0,0.15,,,,,,,,,,,,s018,001,2024-07-24_16h58.45.712,simplestop_skeleton,2022.2.2,59.923663229205246,
None,None,,,,,,,,,2,0,2,0,4,0,16,2,,,,,,,,,1043.658524788916,stop,circleblack.png,left,0.15,,,,,,,,,,,,,,,,,,0.008348546922206879,0.4894140884280205,0.6394374147057533,1046.1608840748668,test,3,,,,,,,1043.6838302351534,1044.174320474267,1044.174320474267,1044.1906732693315,1044.324124198407,1044.824798002839,1045.1757091507316,1046.1803265847266,None,0,0.2,,,,,,,,,,,,s018,001,2024-07-24_16h58.45.712,simplestop_skeleton,2022.2.2,59.923663229205246,
None,None,,,,,,,,,2,0,2,0,4,1,17,3,,,,,,,,,1046.1613259539008,go,squareblack.png,right,0.2,,,,,,,,,,,,,,,,,,0.0019120872020721436,0.48980848118662834,,1048.663746010512,test,3,,,,,,,1046.1803265847266,1046.6773107498884,1046.6773107498884,1046.6938461996615,1046.8770604021847,1047.3763938583434,1047.677450735122,1048.683175072074,right,1,0.2,0.34141144901514053,,,,,,,,,,,s018,001,2024-07-24_16h58.45.712,simplestop_skeleton,2022.2.2,59.923663229205246,
$currentCorrectResponse,$currentGoStim,,,,,,,,,2,0,2,0,4,2,18,0,,,,,,,,,1048.664178531617,go,circleblack.png,left,0.2,,,,,,,,,,,,,,,,,,0.0018660202622413635,0.48956434056162834,,1051.1663597673178,test,3,,,,,,,1048.683175072074,1049.1796986982226,1049.1796986982226,1049.1962652094662,1049.379677183926,1049.8795769624412,1050.1802535578609,1051.1858468949795,left,1,0.2,0.36771244555711746,,,,,,,,,,,s018,001,2024-07-24_16h58.45.712,simplestop_skeleton,2022.2.2,59.923663229205246,
None,None,,,,,,,,,2,0,2,0,4,3,19,1,,,,,,,,,1051.1667925566435,go,squareblack.png,right,0.2,,,,,,,,,,,,,,,,,,0.0018724463880062103,0.48987216502428055,,1053.6691958159208,test,3,,,,,,,1051.1858468949795,1051.6826105751097,1051.6826105751097,1051.6989005170763,1051.8824571631849,1052.3817111514509,1052.6827763803303,1053.688525594771,right,1,0.2,0.34111639857292175,,,,,,,,,,,s018,001,2024-07-24_16h58.45.712,simplestop_skeleton,2022.2.2,59.923663229205246,
None,None,,,,,,,,,2,0,2,0,5,0,20,3,,,,,,,,,1053.6696273349226,go,circleblack.png,left,0.2,,,,,,,,,,,,,,,,,,0.0018176883459091187,0.48943228647112846,,1056.1719893626869,test,3,,,,,,,1053.688525594771,1054.1851461939514,1054.1851461939514,1054.2019702978432,1054.3853314556181,1054.884499616921,1055.1857094429433,1056.1914502754807,left,1,0.2,0.31221263110637665,,,,,,,,,,,s018,001,2024-07-24_16h58.45.712,simplestop_skeleton,2022.2.2,59.923663229205246,
None,None,,,,,,,,,2,0,2,0,5,1,21,1,,,,,,,,,1056.1724183894694,stop,circleblack.png,left,0.2,,,,,,,,,,,,,,,,,,0.0013950616121292114,0.48971179872751236,0.6896218098700047,1058.6745936200023,test,3,,,,,,,1056.1914502754807,1056.6880735382438,1056.6880735382438,1056.7043993622065,1056.8881979733706,1057.3872376307845,1057.6885807439685,1058.6939814463258,left,1,0.15,0.285305168479681,,,,,,,,,,,s018,001,2024-07-24_16h58.45.712,simplestop_skeleton,2022.2.2,59.923663229205246,
None,None,,,,,,,,,2,0,2,0,5,2,22,2,,,,,,,,,1058.67505896464,go,circleblack.png,left,0.15,,,,,,,,,,,,,,,,,,0.001420576125383377,0.4896991066634655,,1061.1773141548038,test,3,,,,,,,1058.6939814463258,1059.1906751319766,1059.1906751319766,1059.2076149322093,1059.3407074026763,1059.840117648244,1060.1911066137254,1061.196867581457,left,1,0.15,0.3641221299767494,,,,,,,,,,,s018,001,2024-07-24_16h58.45.712,simplestop_skeleton,2022.2.2,59.923663229205246,
None,None,,,,,,,,,2,0,2,0,5,3,23,3,,,,,,,,,1061.177780136466,go,squareblack.png,right,0.15,,,,,,,,,,,,,,,,,,0.0018293969333171844,0.4900871179997921,,1063.6803704313934,test,3,,,,,,,1061.196867581457,1061.693572834134,1061.693572834134,1061.710262838751,1061.8438046649098,1062.3427224457264,1062.6936847008765,1063.6999773010612,right,1,0.15,0.29075608029961586,,,,,,,,,,,s018,001,2024-07-24_16h58.45.712,simplestop_skeleton,2022.2.2,59.923663229205246,
$currentCorrectResponse,$currentGoStim,,,,,,,,,2,0,2,0,6,0,24,0,,,,,,,,,1063.6808353587985,stop,circleblack.png,left,0.15,,,,,,,,,,,,,,,,,,0.001980554312467575,0.4895787537097931,0.6398915201425552,1066.1828914545476,test,3,,,,,,,1063.6999773010612,1064.1962788663805,1064.1962788663805,1064.2127378247678,1064.3464545980096,1064.8456760533154,1065.1967966929078,1066.2019856385887,left,1,0.1,0.3077038861811161,,,,,,,,,,,s018,001,2024-07-24_16h58.45.712,simplestop_skeleton,2022.2.2,59.923663229205246,
None,None,,,,,,,,,2,0,2,0,6,1,25,2,,,,,,,,,1066.1833303570747,go,circleblack.png,left,0.1,,,,,,,,,,,,,,,,,,0.0013779103755950928,0.4896927624940872,,1068.6856015063822,test,3,,,,,,,1066.2019856385887,1066.6990583017468,1066.6990583017468,1066.7156593874097,1066.7991663590074,1067.2981017753482,1067.7000376805663,1068.704772952944,left,1,0.1,0.29563692584633827,,,,,,,,,,,s018,001,2024-07-24_16h58.45.712,simplestop_skeleton,2022.2.2,59.923663229205246,
None,None,,,,,,,,,2,0,2,0,6,2,26,3,,,,,,,,,1068.6860434226692,go,circleblack.png,left,0.1,,,,,,,,,,,,,,,,,,0.0012952685356140137,0.48979930207133293,,1071.1884579733014,test,3,,,,,,,1068.704772952944,1069.2017544098198,1069.2017544098198,1069.2183051034808,1069.3017452731729,1069.8024204485118,1070.2012973576784,1071.208252377808,left,1,0.1,0.4514450505375862,,,,,,,,,,,s018,001,2024-07-24_16h58.45.712,simplestop_skeleton,2022.2.2,59.923663229205246,
None,None,,,,,,,,,2,0,2,0,6,3,27,2,,,,,,,,,1071.1890433505177,go,squareblack.png,right,0.1,,,,,,,,,,,,,,,,,,0.002036985009908676,0.48936164379119873,,1073.6912130825222,test,3,,,,,,,1071.208252377808,1071.7047317624092,1071.7047317624092,1071.7210627011955,1071.8050212077796,1072.305118523538,1072.7050238214433,1073.7101322300732,right,1,0.1,0.29611102119088173,,,,,,,,,,,s018,001,2024-07-24_16h58.45.712,simplestop_skeleton,2022.2.2,59.923663229205246,
None,None,,,,,,,,,2,0,2,0,7,0,28,2,,,,,,,,,1073.6916446834803,go,squareblack.png,right,0.1,,,,,,,,,,,,,,,,,,0.0013659298419952393,0.4896290600299835,,1076.1936634667218,test,3,,,,,,,1073.7101322300732,1074.2072599232197,1074.2072599232197,1074.2238725163043,1074.3072726875544,1074.8078118674457,1075.207633998245,1076.2132982723415,right,1,0.1,0.329060111194849,,,,,,,,,,,s018,001,2024-07-24_16h58.45.712,simplestop_skeleton,2022.2.2,59.923663229205246,
None,None,,,,,,,,,2,0,2,0,7,1,29,2,,,,,,,,,1076.1941233314574,go,circleblack.png,left,0.1,,,,,,,,,,,,,,,,,,0.0018915608525276184,0.48982298746705055,,1078.696693930775,test,3,,,,,,,1076.2132982723415,1076.7101156152785,1076.7101156152785,1076.7266417965293,1076.8102250359952,1077.3106484934688,1077.7102864645422,1078.7157177627087,left,1,0.1,0.3343651294708252,,,,,,,,,,,s018,001,2024-07-24_16h58.45.712,simplestop_skeleton,2022.2.2,59.923663229205246,
None,None,,,,,,,,,2,0,2,0,7,2,30,2,,,,,,,,,1078.6971407458186,go,squareblack.png,right,0.1,,,,,,,,,,,,,,,,,,0.001479070633649826,0.4894576668739319,,1081.199489325285,test,3,,,,,,,1078.7157177627087,1079.2128559537232,1079.2128559537232,1079.2294011861086,1079.3131055943668,1079.8134111016989,1080.2132132053375,1081.218791063875,right,1,0.1,0.31251050159335136,,,,,,,,,,,s018,001,2024-07-24_16h58.45.712,simplestop_skeleton,2022.2.2,59.923663229205246,
None,None,,,,,,,,,2,0,2,0,7,3,31,3,,,,,,,,,1081.199937786907,stop,circleblack.png,left,0.1,,,,,,,,,,,,,,,,,,0.0018083900213241577,0.489823404699564,0.589717872440815,1083.7020617164671,test,3,,,,,,,1081.218791063875,1081.7155794650316,1081.7155794650316,1081.7320248298347,1081.815715432167,1082.3160605803132,1082.7159930840135,1083.7213279157877,left,1,0.05,0.31766973063349724,,,,,,,,,,,s018,001,2024-07-24_16h58.45.712,simplestop_skeleton,2022.2.2,59.923663229205246,
None,None,,,,,,,,,2,0,2,0,8,0,32,2,,,,,,,,,1083.7025164589286,go,squareblack.png,right,0.05,,,,,,,,,,,,,,,,,,0.0016673877835273743,0.49007323011755943,,1086.2050886787474,test,3,,,,,,,1083.7213279157877,1084.2182699106634,1084.2182699106634,1084.235167555511,1084.268259678036,1084.768796004355,1085.2188984118402,1086.2239652574062,right,1,0.05,0.32528888434171677,,,,,,,,,,,s018,001,2024-07-24_16h58.45.712,simplestop_skeleton,2022.2.2,59.923663229205246,
None,None,,,,,,,,,2,0,2,0,8,1,33,1,,,,,,,,,1086.2055278755724,stop,squareblack.png,right,0.05,,,,,,,,,,,,,,,,,,0.0013513602316379547,0.4894959628582001,0.5396407730877399,1088.70792985335,test,3,,,,,,,1086.2239652574062,1086.721336003393,1086.721336003393,1086.7375954948366,1086.7710788622499,1087.2718103900552,1087.7221275605261,1088.727096106857,None,0,0.1,,,,,,,,,,,,s018,001,2024-07-24_16h58.45.712,simplestop_skeleton,2022.2.2,59.923663229205246,
$currentCorrectResponse,$currentGoStim,,,,,,,,,2,0,2,0,8,2,34,0,,,,,,,,,1088.7083734236658,go,circleblack.png,left,0.1,,,,,,,,,,,,,,,,,,0.0019150562584400177,0.48938751593232155,,1091.2105740830302,test,3,,,,,,,1088.727096106857,1089.2241697087884,1089.2241697087884,1089.2408562935889,1089.3237859383225,1089.8243642523885,1090.2243476212025,1091.2298589646816,left,1,0.1,0.33914484828710556,,,,,,,,,,,s018,001,2024-07-24_16h58.45.712,simplestop_skeleton,2022.2.2,59.923663229205246,
$currentCorrectResponse,$currentGoStim,,,,,,,,,2,0,2,0,8,3,35,0,,,,,,,,,1091.2110181674361,stop,squareblack.png,right,0.1,,,,,,,,,,,,,,,,,,0.0016617104411125183,0.48954150453209877,0.5896696746349335,1093.7131772898138,test,3,,,,,,,1091.2298589646816,1091.7267019748688,1091.7267019748688,1091.74340916425,1091.8268633075058,1092.327186897397,1092.7277115508914,1093.7317616157234,None,0,0.15,,,,,,,,,,,,s018,001,2024-07-24_16h58.45.712,simplestop_skeleton,2022.2.2,59.923663229205246,
None,None,,,,,,,,,2,0,2,0,9,0,36,3,,,,,,,,,1093.7136273235083,go,squareblack.png,right,0.15,,,,,,,,,,,,,,,,,,0.0011850036680698395,0.4898529350757599,,1096.215784970671,test,3,,,,,,,1093.7317616157234,1094.2291482053697,1094.2291482053697,1094.2460045553744,1094.3794833794236,1094.8787714876235,1095.2296878695488,1096.2353150881827,right,1,0.15,0.322237279266119,,,,,,,,,,,s018,001,2024-07-24_16h58.45.712,simplestop_skeleton,2022.2.2,59.923663229205246,
None,None,,,,,,,,,2,0,2,0,9,1,37,3,,,,,,,,,1096.2162217982113,stop,circleblack.png,left,0.15,,,,,,,,,,,,,,,,,,0.001901879906654358,0.48973729833960533,0.640131913125515,1098.7189286202192,test,3,,,,,,,1096.2353150881827,1096.7321438416839,1096.7321438416839,1096.7487836442888,1096.8824470639229,1097.397951181978,1097.7331634275615,1098.7379715666175,left,1,0.1,0.3182295523583889,,,,,,,,,,,s018,001,2024-07-24_16h58.45.712,simplestop_skeleton,2022.2.2,59.923663229205246,
None,None,,,,,,,,,2,0,2,0,9,2,38,1,,,,,,,,,1098.7193817719817,go,circleblack.png,left,0.1,,,,,,,,,,,,,,,,,,0.0014656372368335724,0.48951440677046776,,1101.221265707165,test,3,,,,,,,1098.7379715666175,1099.2347813174129,1099.2347813174129,1099.2515723444521,1099.3348945975304,1099.8353903107345,1100.2344067245722,1101.2401064671576,left,1,0.1,0.5345694310963154,,,,,,,,,,,s018,001,2024-07-24_16h58.45.712,simplestop_skeleton,2022.2.2,59.923663229205246,
None,None,,,,,,,,,2,0,2,0,9,3,39,3,,,,,,,,,1101.2217025384307,go,circleblack.png,left,0.1,,,,,,,,,,,,,,,,,,0.001265011727809906,0.48993968591094017,,1103.724287994206,test,3,,,,,,,1101.2401064671576,1101.7377185449004,1101.7377185449004,1101.7541063278913,1101.8375852145255,1102.3366921655834,1102.738267146051,1103.7434563077986,left,1,0.1,0.30141545832157135,,,,,,,,,,,s018,001,2024-07-24_16h58.45.712,simplestop_skeleton,2022.2.2,59.923663229205246,
None,None,,,,,,,,,2,0,2,0,10,0,40,2,,,,,,,,,1103.7247252576053,go,squareblack.png,right,0.1,,,,,,,,,,,,,,,,,,0.0016997270286083221,0.4897606521844864,,1106.2269350886345,test,3,,,,,,,1103.7434563077986,1104.2403489463031,1104.2403489463031,1104.25679628551,1104.3406904675066,1104.8563070967793,1105.2408074513078,1106.2456583827734,right,1,0.1,0.2830086089670658,,,,,,,,,,,s018,001,2024-07-24_16h58.45.712,simplestop_skeleton,2022.2.2,59.923663229205246,
None,None,,,,,,,,,2,0,2,0,10,1,41,1,,,,,,,,,1106.22739572078,go,squareblack.png,right,0.1,,,,,,,,,,,,,,,,,,0.0011883117258548737,0.4899449646472931,,1108.7296374104917,test,3,,,,,,,1106.2456583827734,1106.7429946288466,1106.7429946288466,1106.7595188245177,1106.8430792167783,1107.3423189334571,1107.7435020208359,1108.7489174455404,right,1,0.1,0.2394966073334217,,,,,,,,,,,s018,001,2024-07-24_16h58.45.712,simplestop_skeleton,2022.2.2,59.923663229205246,
None,None,,,,,,,,,2,0,2,0,10,2,42,1,,,,,,,,,1108.73006766662,go,circleblack.png,left,0.1,,,,,,,,,,,,,,,,,,0.0018129944801330566,0.49001727998256683,,1111.232455406338,test,3,,,,,,,1108.7489174455404,1109.2458627037704,1109.2458627037704,1109.262580100447,1109.3459045290947,1109.8453245386481,1110.2464221417904,1111.2517463080585,left,1,0.1,0.2963360399007797,,,,,,,,,,,s018,001,2024-07-24_16h58.45.712,simplestop_skeleton,2022.2.2,59.923663229205246,
None,None,,,,,,,,,2,0,2,0,10,3,43,2,,,,,,,,,1111.2329024225473,stop,squareblack.png,right,0.1,,,,,,,,,,,,,,,,,,0.0016652978956699371,0.489741999655962,0.5898684076964855,1113.735079009086,test,3,,,,,,,1111.2517463080585,1111.748816665262,1111.748816665262,1111.7652805037796,1111.8487046808004,1112.3477242998779,1112.7492974996567,1113.7544875591993,right,1,0.05,0.2917722649872303,,,,,,,,,,,s018,001,2024-07-24_16h58.45.712,simplestop_skeleton,2022.2.2,59.923663229205246,
$currentCorrectResponse,$currentGoStim,,,,,,,,,2,0,2,0,11,0,44,0,,,,,,,,,1113.7355118952692,go,circleblack.png,left,0.05,,,,,,,,,,,,,,,,,,0.0017755106091499329,0.4898223392665386,,1116.2380400933325,test,3,,,,,,,1113.7544875591993,1114.2514473572373,1114.2514473572373,1114.2678260616958,1114.3013283871114,1114.801828160882,1115.2520373500884,1116.2573738880455,left,1,0.05,0.31929711997509,,,,,,,,,,,s018,001,2024-07-24_16h58.45.712,simplestop_skeleton,2022.2.2,59.923663229205246,
$currentCorrectResponse,$currentGoStim,,,,,,,,,2,0,2,0,11,1,45,0,,,,,,,,,1116.2384753078222,stop,squareblack.png,right,0.05,,,,,,,,,,,,,,,,,,0.0017605386674404144,0.4894876107573509,0.5394854657351971,1118.7412143535912,test,3,,,,,,,1116.2573738880455,1116.7540510632098,1116.7540510632098,1116.7706261202693,1116.8041702769697,1117.3047651536763,1117.75506638363,1118.7605592012405,None,0,0.1,,,,,,,,,,,,s018,001,2024-07-24_16h58.45.712,simplestop_skeleton,2022.2.2,59.923663229205246,
$currentCorrectResponse,$currentGoStim,,,,,,,,,2,0,2,0,11,2,46,0,,,,,,,,,1118.7416581362486,stop,circleblack.png,left,0.1,,,,,,,,,,,,,,,,,,0.0018245726823806763,0.4894283004105091,0.5893908999860287,1121.243450101465,test,3,,,,,,,1118.7605592012405,1119.2569405958056,1119.2569405958056,1119.2737014591694,1119.3568988963962,1119.8575557544827,1120.2579847872257,1121.2627800293267,None,0,0.15,,,,,,,,,,,,s018,001,2024-07-24_16h58.45.712,simplestop_skeleton,2022.2.2,59.923663229205246,
$currentCorrectResponse,$currentGoStim,,,,,,,,,2,0,2,0,11,3,47,0,,,,,,,,,1121.2438923120499,go,squareblack.png,right,0.15,,,,,,,,,,,,,,,,,,0.0017431750893592834,0.48953985795378685,,1123.7466007582843,test,3,,,,,,,1121.2627800293267,1121.7596762478352,1121.7596762478352,1121.776283569634,1121.9097825437784,1122.4102518893778,1122.7606385685503,1123.761839505285,right,1,0.15,0.3416907675564289,,,,,,,,,,,s018,001,2024-07-24_16h58.45.712,simplestop_skeleton,2022.2.2,59.923663229205246,
