corrGoResp,shape,practiceBlocks.thisRepN,practiceBlocks.thisTrialN,practiceBlocks.thisN,practiceBlocks.thisIndex,practiceTrials.thisRepN,practiceTrials.thisTrialN,practiceTrials.thisN,practiceTrials.thisIndex,stopBlocks.thisRepN,stopBlocks.thisTrialN,stopBlocks.thisN,stopBlocks.thisIndex,testTrials.thisRepN,testTrials.thisTrialN,testTrials.thisN,testTrials.thisIndex,stopPracTrialList,Test Block: 1,welcome.started,start_exp.started,start_exp.keys,start_exp.rt,instrStopText.started,start_prac.started,StartTrialTimeStamp,trialType,goStim,correctResponse,ssd,fixation.started,rules.started,goStim.started,goResp.started,fixation.stopped,stopSignal.started,stopSignal.stopped,goStim.stopped,goResp.stopped,rules.stopped,goResp.keys,goResp.corr,goResp.rt,text.started,rules_2.started,text.stopped,rules_2.stopped,fixationOnset,goStimOnset,stopSignalOnset,EndTrialTimeStamp,Phase,Block,text_5.started,key_resp_3.started,key_resp_3.keys,key_resp_3.rt,key_resp.started,testText.started,test_fixation.started,goStim_test.started,goResp_test.started,test_fixation.stopped,stopSignal_test.started,stopSignal_test.stopped,goStim_test.stopped,goResp_test.stopped,goResp_test.keys,goResp_test.corr,goResp_test.rt,EndingSSD,text_6.started,key_resp_4.started,key_resp_4.keys,key_resp_4.rt,Test Block: 2,Test Block: 3,ending_text.started,end_resp.started,end_resp.keys,end_resp.rt,participant,session,date,expName,psychopyVersion,frameRate,
,,,,,,,,,,,,,,,,,,"[{'fileName': 'circleblack.png', 'correct_response': 'left', 'condition': 'go'}, {'fileName': 'squareblack.png', 'correct_response': 'right', 'condition': 'go'}, {'fileName': 'squareblack.png', 'correct_response': 'right', 'condition': 'go'}, {'fileName': 'squareblack.png', 'correct_response': 'right', 'condition': 'stop'}, {'fileName': 'circleblack.png', 'correct_response': 'left', 'condition': 'go'}, {'fileName': 'circleblack.png', 'correct_response': 'left', 'condition': 'stop'}, {'fileName': 'circleblack.png', 'correct_response': 'left', 'condition': 'go'}, {'fileName': 'squareblack.png', 'correct_response': 'right', 'condition': 'go'}, {'fileName': 'squareblack.png', 'correct_response': 'right', 'condition': 'stop'}, {'fileName': 'circleblack.png', 'correct_response': 'left', 'condition': 'go'}, {'fileName': 'squareblack.png', 'correct_response': 'right', 'condition': 'go'}, {'fileName': 'circleblack.png', 'correct_response': 'left', 'condition': 'stop'}, {'fileName': 'circleblack.png', 'correct_response': 'left', 'condition': 'go'}, {'fileName': 'squareblack.png', 'correct_response': 'right', 'condition': 'go'}, {'fileName': 'circleblack.png', 'correct_response': 'left', 'condition': 'go'}, {'fileName': 'circleblack.png', 'correct_response': 'left', 'condition': 'go'}, {'fileName': 'circleblack.png', 'correct_response': 'left', 'condition': 'stop'}, {'fileName': 'squareblack.png', 'correct_response': 'right', 'condition': 'go'}, {'fileName': 'squareblack.png', 'correct_response': 'right', 'condition': 'stop'}, {'fileName': 'circleblack.png', 'correct_response': 'left', 'condition': 'stop'}, {'fileName': 'circleblack.png', 'correct_response': 'left', 'condition': 'go'}, {'fileName': 'squareblack.png', 'correct_response': 'right', 'condition': 'stop'}, {'fileName': 'squareblack.png', 'correct_response': 'right', 'condition': 'go'}, {'fileName': 'squareblack.png', 'correct_response': 'right', 'condition': 'go'}]","[{'fileName': 'circleblack.png', 'correct_response': 'left', 'condition': 'go'}, {'fileName': 'squareblack.png', 'correct_response': 'right', 'condition': 'go'}, {'fileName': 'circleblack.png', 'correct_response': 'left', 'condition': 'stop'}, {'fileName': 'squareblack.png', 'correct_response': 'right', 'condition': 'go'}, {'fileName': 'circleblack.png', 'correct_response': 'left', 'condition': 'go'}, {'fileName': 'circleblack.png', 'correct_response': 'left', 'condition': 'go'}, {'fileName': 'circleblack.png', 'correct_response': 'left', 'condition': 'go'}, {'fileName': 'circleblack.png', 'correct_response': 'left', 'condition': 'stop'}, {'fileName': 'squareblack.png', 'correct_response': 'right', 'condition': 'stop'}, {'fileName': 'squareblack.png', 'correct_response': 'right', 'condition': 'stop'}, {'fileName': 'squareblack.png', 'correct_response': 'right', 'condition': 'go'}, {'fileName': 'squareblack.png', 'correct_response': 'right', 'condition': 'go'}, {'fileName': 'squareblack.png', 'correct_response': 'right', 'condition': 'stop'}, {'fileName': 'circleblack.png', 'correct_response': 'left', 'condition': 'go'}, {'fileName': 'circleblack.png', 'correct_response': 'left', 'condition': 'stop'}, {'fileName': 'squareblack.png', 'correct_response': 'right', 'condition': 'go'}, {'fileName': 'squareblack.png', 'correct_response': 'right', 'condition': 'stop'}, {'fileName': 'squareblack.png', 'correct_response': 'right', 'condition': 'go'}, {'fileName': 'circleblack.png', 'correct_response': 'left', 'condition': 'go'}, {'fileName': 'squareblack.png', 'correct_response': 'right', 'condition': 'go'}, {'fileName': 'circleblack.png', 'correct_response': 'left', 'condition': 'go'}, {'fileName': 'circleblack.png', 'correct_response': 'left', 'condition': 'go'}, {'fileName': 'squareblack.png', 'correct_response': 'right', 'condition': 'go'}, {'fileName': 'circleblack.png', 'correct_response': 'left', 'condition': 'stop'}, {'fileName': 'squareblack.png', 'correct_response': 'right', 'condition': 'stop'}, {'fileName': 'circleblack.png', 'correct_response': 'left', 'condition': 'go'}, {'fileName': 'circleblack.png', 'correct_response': 'left', 'condition': 'stop'}, {'fileName': 'circleblack.png', 'correct_response': 'left', 'condition': 'go'}, {'fileName': 'squareblack.png', 'correct_response': 'right', 'condition': 'go'}, {'fileName': 'circleblack.png', 'correct_response': 'left', 'condition': 'go'}, {'fileName': 'squareblack.png', 'correct_response': 'right', 'condition': 'go'}, {'fileName': 'squareblack.png', 'correct_response': 'right', 'condition': 'go'}, {'fileName': 'circleblack.png', 'correct_response': 'left', 'condition': 'stop'}, {'fileName': 'squareblack.png', 'correct_response': 'right', 'condition': 'stop'}, {'fileName': 'circleblack.png', 'correct_response': 'left', 'condition': 'go'}, {'fileName': 'squareblack.png', 'correct_response': 'right', 'condition': 'go'}, {'fileName': 'squareblack.png', 'correct_response': 'right', 'condition': 'go'}, {'fileName': 'squareblack.png', 'correct_response': 'right', 'condition': 'go'}, {'fileName': 'circleblack.png', 'correct_response': 'left', 'condition': 'go'}, {'fileName': 'circleblack.png', 'correct_response': 'left', 'condition': 'stop'}, {'fileName': 'squareblack.png', 'correct_response': 'right', 'condition': 'go'}, {'fileName': 'circleblack.png', 'correct_response': 'left', 'condition': 'go'}, {'fileName': 'squareblack.png', 'correct_response': 'right', 'condition': 'stop'}, {'fileName': 'squareblack.png', 'correct_response': 'right', 'condition': 'go'}, {'fileName': 'circleblack.png', 'correct_response': 'left', 'condition': 'go'}, {'fileName': 'circleblack.png', 'correct_response': 'left', 'condition': 'go'}, {'fileName': 'squareblack.png', 'correct_response': 'right', 'condition': 'stop'}, {'fileName': 'circleblack.png', 'correct_response': 'left', 'condition': 'stop'}]",2737.9069783836603,2737.9069783836603,return,2.259215533733368,,,,,,,,,,,,,,,,,,,,,,,,,,,,,,,,,,,,,,,,,,,,,,,,,,,,,,,,,,,s035,001,2024-09-23_10h08.31.706,simplestop_skeleton,2022.2.2,59.66393017877301,
$currentCorrectResponse,$currentGoStim,0,0,0,0,0,0,0,0,,,,,,,,,,,,,,,2740.2097176909447,2740.2097176909447,2803.450533516705,go,circleblack.png,left,0.35,2803.4721719920635,2803.4721719920635,2803.9627813845873,2803.9627813845873,2803.979540169239,2804.31321554631,2804.813852496445,2804.963954500854,2805.965114414692,2805.981827311218,left,1,0.3780848756432533,2805.981827311218,2805.981827311218,2806.4887528494,2806.4887528494,0.0035623684525489807,0.4858015701174736,0.8362627550959587,2806.466787971556,practice,1,,,,,,,,,,,,,,,,,,,,,,,,,,,,,s035,001,2024-09-23_10h08.31.706,simplestop_skeleton,2022.2.2,59.66393017877301,
None,None,0,0,0,0,0,1,1,2,,,,,,,,,,,,,,,,,2806.4673154205084,go,squareblack.png,right,0.35,2806.4887528494,2806.4887528494,2806.9829805120826,2806.9829805120826,2806.9995277374983,2807.3336241170764,2807.8491326346993,2807.982795983553,2808.9837142452598,2809.0002662166953,right,1,0.34586499631404877,2809.0002662166953,2809.0002662166953,2809.5166628211737,2809.5166628211737,0.003927059471607208,0.48912500590085983,0.8393618613481522,2809.485327914357,practice,1,,,,,,,,,,,,,,,,,,,,,,,,,,,,,s035,001,2024-09-23_10h08.31.706,simplestop_skeleton,2022.2.2,59.66393017877301,
$currentCorrectResponse,$currentGoStim,0,0,0,0,0,2,2,0,,,,,,,,,,,,,,,,,2809.485752888024,go,squareblack.png,right,0.35,2809.5166628211737,2809.5166628211737,2810.003293849528,2810.003293849528,2810.0200251191854,2810.3518010526896,2810.852392077446,2811.002520248294,2812.003805115819,2812.0205901786685,left,0,0.3949997127056122,2812.0205901786685,2812.0205901786685,2812.536576412618,2812.536576412618,0.001207001507282257,0.4918207377195358,0.8403303250670433,2812.505131557584,practice,1,,,,,,,,,,,,,,,,,,,,,,,,,,,,,s035,001,2024-09-23_10h08.31.706,simplestop_skeleton,2022.2.2,59.66393017877301,
None,None,0,0,0,0,0,3,3,3,,,,,,,,,,,,,,,,,2812.50556319952,stop,squareblack.png,right,0.35,2812.536576412618,2812.536576412618,2813.0213586613536,2813.0213586613536,2813.03802356869,2813.3735809475183,2813.889164596796,2814.022485949099,2815.023604258895,2815.040391303599,right,1,0.41806894540786743,2815.040391303599,2815.040391303599,,,0.001187346875667572,0.48990463465452194,0.8422557413578033,2815.5251608118415,practice,1,,,,,,,,,,,,,,,,,,,,,,,,,,,,,s035,001,2024-09-23_10h08.31.706,simplestop_skeleton,2022.2.2,59.66393017877301,
None,None,0,0,0,0,1,0,4,1,,,,,,,,,,,,,,,,,2815.5256502330303,go,circleblack.png,left,0.3,2815.544899985194,2815.544899985194,2816.0413571596146,2816.0413571596146,2816.057975612581,2816.341684758663,2816.842337027192,2817.0425756424665,2818.0435426980257,2818.0602432116866,left,1,0.38498928397893906,2818.0602432116866,2818.0602432116866,,,0.0027772486209869385,0.48951709270477295,0.7898235693573952,2818.546761341393,practice,1,,,,,,,,,,,,,,,,,,,,,,,,,,,,,s035,001,2024-09-23_10h08.31.706,simplestop_skeleton,2022.2.2,59.66393017877301,
None,None,0,0,0,0,1,1,5,2,,,,,,,,,,,,,,,,,2818.5472398027778,stop,circleblack.png,left,0.3,2818.5684764161706,2818.5684764161706,2819.0615749806166,2819.0615749806166,2819.0780962854624,2819.361585095525,2819.8622067943215,2820.064211048186,2821.0635277181864,2821.0801677033305,left,1,0.4140937104821205,2821.0801677033305,2821.0801677033305,2821.5825058072805,2821.5825058072805,0.0025156140327453613,0.48733872175216675,0.7875547707080841,2821.5651822313666,practice,1,,,,,,,,,,,,,,,,,,,,,,,,,,,,,s035,001,2024-09-23_10h08.31.706,simplestop_skeleton,2022.2.2,59.66393017877301,
None,None,0,0,0,0,1,2,6,1,,,,,,,,,,,,,,,,,2821.565634831786,go,circleblack.png,left,0.25,2821.5825058072805,2821.5825058072805,2822.0814717262983,2822.0814717262983,2822.09806650877,2822.3318656906486,2822.832136593759,2823.0824610441923,2824.0854478552938,2824.0854478552938,left,1,0.4864935129880905,2824.0854478552938,2824.0854478552938,,,0.0012340247631072998,0.4900241866707802,0.7402895167469978,2824.5847863182425,practice,1,,,,,,,,,,,,,,,,,,,,,,,,,,,,,s035,001,2024-09-23_10h08.31.706,simplestop_skeleton,2022.2.2,59.66393017877301,
None,None,0,0,0,0,1,3,7,1,,,,,,,,,,,,,,,,,2824.585239879787,go,squareblack.png,right,0.25,2824.6026890575886,2824.6026890575886,2825.101262077689,2825.101262077689,2825.1179594546556,2825.3515305668116,2825.852299965918,2826.102730035782,2827.1036120280623,2827.1036120280623,right,1,0.5245314314961433,2827.1036120280623,2827.1036120280623,2827.6069495901465,2827.6069495901465,0.001665167510509491,0.4902194142341614,0.7406875789165497,2827.588527008891,practice,1,,,,,,,,,,,,,,,,,,,,,,,,,,,,,s035,001,2024-09-23_10h08.31.706,simplestop_skeleton,2022.2.2,59.66393017877301,
$currentCorrectResponse,$currentGoStim,0,0,0,0,2,0,8,0,,,,,,,,,,,,,,,,,2827.589006304741,stop,squareblack.png,right,0.25,2827.6069495901465,2827.6069495901465,2828.1046643331647,2828.1046643331647,2828.1213528066874,2828.354937002063,2828.8556354120374,2829.1059142649174,2830.1069103702903,2830.1069103702903,right,1,0.37128297984600067,2830.1069103702903,2830.1069103702903,2830.6103650331497,2830.6103650331497,0.0012390613555908203,0.48961492627859116,0.7399048954248428,2830.591744184494,practice,1,,,,,,,,,,,,,,,,,,,,,,,,,,,,,s035,001,2024-09-23_10h08.31.706,simplestop_skeleton,2022.2.2,59.66393017877301,
$currentCorrectResponse,$currentGoStim,0,0,0,0,2,1,9,0,,,,,,,,,,,,,,,,,2830.5921625867486,go,circleblack.png,left,0.2,2830.6103650331497,2830.6103650331497,2831.1082283183932,2831.1082283183932,2831.1249879598618,2831.3081645071507,2831.8088628947735,2832.11112832278,2833.111366122961,2833.111366122961,left,1,0.4385073110461235,2833.111366122961,2833.111366122961,2833.6126836910844,2833.6126836910844,0.001857653260231018,0.4899742677807808,0.6899516135454178,2833.5948864147067,practice,1,,,,,,,,,,,,,,,,,,,,,,,,,,,,,s035,001,2024-09-23_10h08.31.706,simplestop_skeleton,2022.2.2,59.66393017877301,
$currentCorrectResponse,$currentGoStim,0,0,0,0,2,2,10,0,,,,,,,,,,,,,,,,,2833.5953112468123,go,squareblack.png,right,0.2,2833.6126836910844,2833.6126836910844,2834.111860573292,2834.111860573292,2834.128397539258,2834.311627969146,2834.8121257945895,2835.1129778772593,2836.1152786314487,2836.1152786314487,right,1,0.3548390194773674,2836.1152786314487,2836.1152786314487,,,0.001618906855583191,0.49005303531885147,0.6905504614114761,2836.615873143077,practice,1,,,,,,,,,,,,,,,,,,,,,,,,,,,,,s035,001,2024-09-23_10h08.31.706,simplestop_skeleton,2022.2.2,59.66393017877301,
None,None,0,0,0,0,2,3,11,3,,,,,,,,,,,,,,,,,2836.616341382265,stop,circleblack.png,left,0.2,2836.6340045407414,2836.6340045407414,2837.131469041109,2837.131469041109,2837.1481941640377,2837.3314649388194,2837.8321028873324,2838.132555305958,2839.1354359164834,2839.1354359164834,right,0,0.31610728055238724,2839.1354359164834,2839.1354359164834,,,0.0017568841576576233,0.4892360046505928,0.6892672553658485,2839.620240047574,practice,1,,,,,,,,,,,,,,,,,,,,,,,,,,,,,s035,001,2024-09-23_10h08.31.706,simplestop_skeleton,2022.2.2,59.66393017877301,
None,None,0,0,0,0,3,0,12,2,,,,,,,,,,,,,,,,,2839.620723299682,go,circleblack.png,left,0.15,2839.6419327780604,2839.6419327780604,2840.135763183236,2840.135763183236,2840.151240669191,2840.2846933975816,2840.7852219715714,2841.1363728046417,2842.1368232667446,2842.1536169350147,left,1,0.3834993317723274,2842.1536169350147,2842.1536169350147,2842.656265027821,2842.656265027821,0.002375006675720215,0.4867361709475517,0.636920228600502,2842.6383786797523,practice,1,,,,,,,,,,,,,,,,,,,,,,,,,,,,,s035,001,2024-09-23_10h08.31.706,simplestop_skeleton,2022.2.2,59.66393017877301,
None,None,0,0,0,0,3,1,13,3,,,,,,,,,,,,,,,,,2842.6388285011053,go,squareblack.png,right,0.15,2842.656265027821,2842.656265027821,2843.156438462436,2843.156438462436,2843.156438462436,2843.30663664639,2843.8221070468426,2844.1556892693043,2845.1585801169276,2845.1585801169276,right,1,0.32253775000572205,2845.1585801169276,2845.1585801169276,,,0.001680321991443634,0.49168457090854645,0.6418550908565521,2845.6580655276775,practice,1,,,,,,,,,,,,,,,,,,,,,,,,,,,,,s035,001,2024-09-23_10h08.31.706,simplestop_skeleton,2022.2.2,59.66393017877301,
$currentCorrectResponse,$currentGoStim,0,0,0,0,3,2,14,0,,,,,,,,,,,,,,,,,2845.6585186347365,go,circleblack.png,left,0.15,2845.6760316193104,2845.6760316193104,2846.1745793372393,2846.1745793372393,2846.191240787506,2846.324826002121,2846.825698338449,2847.1758736148477,2848.176877550781,2848.176877550781,left,1,0.4825756698846817,2848.176877550781,2848.176877550781,2848.6794051527977,2848.6794051527977,0.001763276755809784,0.4902510419487953,0.6404720395803452,2848.6618371531367,practice,1,,,,,,,,,,,,,,,,,,,,,,,,,,,,,s035,001,2024-09-23_10h08.31.706,simplestop_skeleton,2022.2.2,59.66393017877301,
None,None,0,0,0,0,3,3,15,1,,,,,,,,,,,,,,,,,2848.662346087396,go,circleblack.png,left,0.15,2848.6794051527977,2848.6794051527977,2849.1796546950936,2849.1796546950936,2849.1796546950936,2849.328103348613,2849.8287642747164,2850.1790207251906,2851.180094346404,2851.180094346404,left,1,0.5993198230862617,2851.180094346404,2851.180094346404,2851.696476750076,2851.696476750076,0.0012024417519569397,0.49150148034095764,0.6398715078830719,2851.664928212762,practice,1,,,,,,,,,,,,,,,,,,,,,,,,,,,,,s035,001,2024-09-23_10h08.31.706,simplestop_skeleton,2022.2.2,59.66393017877301,
None,None,0,0,0,0,4,0,16,1,,,,,,,,,,,,,,,,,2851.6653843820095,stop,circleblack.png,left,0.15,2851.696476750076,2851.696476750076,2852.181432634592,2852.181432634592,2852.1979643031955,2852.331604398787,2852.831967920065,2853.182270012796,2854.185223199427,2854.200289271772,None,0,,2854.200289271772,2854.200289271772,2854.7071871981025,2854.7071871981025,0.0012325569987297058,0.49013103544712067,0.6403358057141304,2854.6849716752768,practice,1,,,,,,,,,,,,,,,,,,,,,,,,,,,,,s035,001,2024-09-23_10h08.31.706,simplestop_skeleton,2022.2.2,59.66393017877301,
None,None,0,0,0,0,4,1,17,3,,,,,,,,,,,,,,,,,2854.6853904798627,go,squareblack.png,right,0.2,2854.7071871981025,2854.7071871981025,2855.201270468533,2855.201270468533,2855.2180670574307,2855.4014332816005,2855.9021406769753,2856.2026022672653,2857.2034451290965,2857.22017352283,right,1,0.31195519864559174,2857.22017352283,2857.22017352283,,,0.007062926888465881,0.4901566877961159,0.6904356330633163,2857.705006092787,practice,1,,,,,,,,,,,,,,,,,,,,,,,,,,,,,s035,001,2024-09-23_10h08.31.706,simplestop_skeleton,2022.2.2,59.66393017877301,
None,None,0,0,0,0,4,2,18,3,,,,,,,,,,,,,,,,,2857.7054464295506,stop,squareblack.png,right,0.2,2857.724293284118,2857.724293284118,2858.2211777493358,2858.2211777493358,2858.237824983895,2858.4214330390096,2858.922025114298,2859.222520247102,2860.2233584076166,2860.240000382066,None,0,,2860.240000382066,2860.240000382066,,,0.0013001933693885803,0.4886343777179718,0.688820518553257,2860.7248615399003,practice,1,,,,,,,,,,,,,,,,,,,,,,,,,,,,,s035,001,2024-09-23_10h08.31.706,simplestop_skeleton,2022.2.2,59.66393017877301,
None,None,0,0,0,0,4,3,19,1,,,,,,,,,,,,,,,,,2860.7252773568034,stop,circleblack.png,left,0.25,2860.7445781305432,2860.7445781305432,2861.2414280101657,2861.2414280101657,2861.258047066629,2861.4915462359786,2861.992035128176,2862.2426659315825,2863.243337124586,2863.2600844353437,left,1,0.3297199010848999,2863.2600844353437,2863.2600844353437,2863.761780112982,2863.761780112982,0.0021420493721961975,0.49009623378515244,0.7401112020015717,2863.7448292672634,practice,1,,,,,,,,,,,,,,,,,,,,,,,,,,,,,s035,001,2024-09-23_10h08.31.706,simplestop_skeleton,2022.2.2,59.66393017877301,
None,None,0,0,0,0,5,0,20,2,,,,,,,,,,,,,,,,,2863.745246335864,go,circleblack.png,left,0.2,2863.761780112982,2863.761780112982,2864.2621720805764,2864.2621720805764,2864.2621720805764,2864.4628238528967,2864.9624916017056,2865.2622301653028,2866.264706350863,2866.264706350863,left,1,0.8260371536016464,2866.264706350863,2866.264706350863,2866.767769344151,2866.767769344151,0.0012415200471878052,0.4927792549133301,0.6914231330156326,2866.7484921664,practice,1,,,,,,,,,,,,,,,,,,,,,,,,,,,,,s035,001,2024-09-23_10h08.31.706,simplestop_skeleton,2022.2.2,59.66393017877301,
None,None,0,0,0,0,5,1,21,3,,,,,,,,,,,,,,,,,2866.748970903456,stop,squareblack.png,right,0.2,2866.767769344151,2866.767769344151,2867.2644884884357,2867.2644884884357,2867.2810983732343,2867.4647247344255,2867.9653166234493,2868.265853896737,2869.2667250335217,2869.2833900228143,None,0,,2869.2833900228143,2869.2833900228143,,,0.0017941445112228394,0.4890375956892967,0.6892561465501785,2869.768945455551,practice,1,,,,,,,,,,,,,,,,,,,,,,,,,,,,,s035,001,2024-09-23_10h08.31.706,simplestop_skeleton,2022.2.2,59.66393017877301,
None,None,0,0,0,0,5,2,22,2,,,,,,,,,,,,,,,,,2869.7694958671927,go,squareblack.png,right,0.25,2869.7894922718406,2869.7894922718406,2870.28478500247,2870.28478500247,2870.301294334233,2870.5349648222327,2871.0352878943086,2871.2855910882354,2872.2866321206093,2872.3033116981387,right,1,0.46080614626407623,2872.3033116981387,2872.3033116981387,2872.805298805237,2872.805298805237,0.001941099762916565,0.487892709672451,0.7379901260137558,2872.7882039621472,practice,1,,,,,,,,,,,,,,,,,,,,,,,,,,,,,s035,001,2024-09-23_10h08.31.706,simplestop_skeleton,2022.2.2,59.66393017877301,
None,None,0,0,0,0,5,3,23,2,,,,,,,,,,,,,,,,,2872.7886717021465,go,squareblack.png,right,0.25,2872.805298805237,2872.805298805237,2873.304595813155,2873.304595813155,2873.304595813155,2873.554956033826,2874.055405303836,2874.305596023798,2875.3086033016443,2875.3086033016443,right,1,0.37006109207868576,2875.3086033016443,2875.3086033016443,,,0.0011791959404945374,0.4902975484728813,0.7406448051333427,2875.808222681284,practice,1,,,,,,,,,,,,,,,,,,,,,,,,,,,,,s035,001,2024-09-23_10h08.31.706,simplestop_skeleton,2022.2.2,59.66393017877301,
,,0,0,0,0,,,,,,,,,,,,,"[{'fileName': 'circleblack.png', 'correct_response': 'left', 'condition': 'stop'}, {'fileName': 'circleblack.png', 'correct_response': 'left', 'condition': 'stop'}, {'fileName': 'squareblack.png', 'correct_response': 'right', 'condition': 'go'}, {'fileName': 'squareblack.png', 'correct_response': 'right', 'condition': 'go'}, {'fileName': 'squareblack.png', 'correct_response': 'right', 'condition': 'go'}, {'fileName': 'squareblack.png', 'correct_response': 'right', 'condition': 'stop'}, {'fileName': 'circleblack.png', 'correct_response': 'left', 'condition': 'go'}, {'fileName': 'circleblack.png', 'correct_response': 'left', 'condition': 'go'}, {'fileName': 'squareblack.png', 'correct_response': 'right', 'condition': 'go'}, {'fileName': 'squareblack.png', 'correct_response': 'right', 'condition': 'stop'}, {'fileName': 'circleblack.png', 'correct_response': 'left', 'condition': 'go'}, {'fileName': 'circleblack.png', 'correct_response': 'left', 'condition': 'go'}, {'fileName': 'squareblack.png', 'correct_response': 'right', 'condition': 'stop'}, {'fileName': 'circleblack.png', 'correct_response': 'left', 'condition': 'go'}, {'fileName': 'squareblack.png', 'correct_response': 'right', 'condition': 'go'}, {'fileName': 'circleblack.png', 'correct_response': 'left', 'condition': 'go'}, {'fileName': 'squareblack.png', 'correct_response': 'right', 'condition': 'go'}, {'fileName': 'squareblack.png', 'correct_response': 'right', 'condition': 'go'}, {'fileName': 'circleblack.png', 'correct_response': 'left', 'condition': 'stop'}, {'fileName': 'squareblack.png', 'correct_response': 'right', 'condition': 'go'}, {'fileName': 'circleblack.png', 'correct_response': 'left', 'condition': 'stop'}, {'fileName': 'circleblack.png', 'correct_response': 'left', 'condition': 'go'}, {'fileName': 'squareblack.png', 'correct_response': 'right', 'condition': 'stop'}, {'fileName': 'circleblack.png', 'correct_response': 'left', 'condition': 'go'}]",,,,,,,,,,,,,,,,,,,,,,,,,,,,,,,,,,,,2875.825599849224,2875.825599849224,return,2.295976512134075,,,,,,,,,,,,,,,,,,,,,,,,,s035,001,2024-09-23_10h08.31.706,simplestop_skeleton,2022.2.2,59.66393017877301,
None,None,,,,,,,,,0,0,0,0,0,0,0,2,,,,,,,,,2881.264204017818,go,circleblack.png,left,0.25,,,,,,,,,,,,,,,,,,0.003561154007911682,0.4894898906350136,,2883.7689299806952,test,1,,,,,2878.14318292588,2878.14318292588,2881.283786959946,2881.7805147245526,2881.7805147245526,2881.7971435934305,2882.030863277614,2882.5328359007835,2882.7832072153687,2883.788370780647,left,1,0.45058218389749527,0.25,,,,,,,,,,,s035,001,2024-09-23_10h08.31.706,simplestop_skeleton,2022.2.2,59.66393017877301,
None,None,,,,,,,,,0,0,0,0,0,1,1,3,,,,,,,,,2883.769508138299,go,squareblack.png,right,0.25,,,,,,,,,,,,,,,,,,0.0017356574535369873,0.4892714396119118,,2886.2700448706746,test,1,,,,,,,2883.788370780647,2884.284717269242,2884.284717269242,2884.3014698922634,2884.534898750484,2885.034615688026,2885.284716822207,2886.28766477108,right,1,0.4338103458285332,0.25,,,,,,,,,,,s035,001,2024-09-23_10h08.31.706,simplestop_skeleton,2022.2.2,59.66393017877301,
None,None,,,,,,,,,0,0,0,0,0,2,2,3,,,,,,,,,2886.270492553711,stop,circleblack.png,left,0.25,,,,,,,,,,,,,,,,,,0.0017777681350708008,0.48948541283607483,0.7398011758923531,2888.7751204669476,test,1,,,,,,,2886.28766477108,2886.7863402292132,2886.7863402292132,2886.803201019764,2887.036392003298,2887.536869391799,2887.787074699998,2888.796027302742,None,0,,0.3,,,,,,,,,,,s035,001,2024-09-23_10h08.31.706,simplestop_skeleton,2022.2.2,59.66393017877301,
$currentCorrectResponse,$currentGoStim,,,,,,,,,0,0,0,0,0,3,3,0,,,,,,,,,2888.7755771279335,go,squareblack.png,right,0.3,,,,,,,,,,,,,,,,,,0.00229693204164505,0.48650698363780975,,2891.275396540761,test,1,,,,,,,2888.796027302742,2889.2889564931393,2889.2889564931393,2889.305740967393,2889.5891530513763,2890.0896581038833,2890.2919517457485,2891.2927444800735,right,1,0.45074956119060516,0.3,,,,,,,,,,,s035,001,2024-09-23_10h08.31.706,simplestop_skeleton,2022.2.2,59.66393017877301,
$currentCorrectResponse,$currentGoStim,,,,,,,,,0,0,0,0,1,0,4,0,,,,,,,,,2891.275836072862,go,circleblack.png,left,0.3,,,,,,,,,,,,,,,,,,0.0017118453979492188,0.4897910803556442,,2893.778388746083,test,1,,,,,,,2891.2927444800735,2891.7915215343237,2891.7915215343237,2891.8084042668343,2892.0919305607677,2892.5943447500467,2892.7928773090243,2893.7952344715595,left,1,0.536280982196331,0.3,,,,,,,,,,,s035,001,2024-09-23_10h08.31.706,simplestop_skeleton,2022.2.2,59.66393017877301,
$currentCorrectResponse,$currentGoStim,,,,,,,,,0,0,0,0,1,1,5,0,,,,,,,,,2893.7788479328156,go,circleblack.png,left,0.3,,,,,,,,,,,,,,,,,,0.001258261501789093,0.4923098310828209,,2896.2832408845425,test,1,,,,,,,2893.7952344715595,2894.2963039800525,2894.2963039800525,2894.2963039800525,2894.594804905355,2895.0952052921057,2895.2954549863935,2896.303992278874,left,1,0.6254344955086708,0.3,,,,,,,,,,,s035,001,2024-09-23_10h08.31.706,simplestop_skeleton,2022.2.2,59.66393017877301,
None,None,,,,,,,,,0,0,0,0,1,2,6,1,,,,,,,,,2896.2837167829275,go,circleblack.png,left,0.3,,,,,,,,,,,,,,,,,,0.0019258931279182434,0.48653293401002884,,2898.7837693467736,test,1,,,,,,,2896.303992278874,2896.7973645552993,2896.7973645552993,2896.8141458183527,2897.0973125472665,2897.5980618596077,2897.798082411289,2898.800635099411,left,1,0.5830580964684486,0.3,,,,,,,,,,,s035,001,2024-09-23_10h08.31.706,simplestop_skeleton,2022.2.2,59.66393017877301,
$currentCorrectResponse,$currentGoStim,,,,,,,,,0,0,0,0,1,3,7,0,,,,,,,,,2898.7842101454735,stop,circleblack.png,left,0.3,,,,,,,,,,,,,,,,,,0.0013096481561660767,0.489590547978878,0.7902033478021622,2901.2865330800414,test,1,,,,,,,2898.800635099411,2899.299787826836,2899.299787826836,2899.316541098058,2899.6002302393317,2900.1026344522834,2900.3011972904205,2901.308674097061,None,0,,0.35,,,,,,,,,,,s035,001,2024-09-23_10h08.31.706,simplestop_skeleton,2022.2.2,59.66393017877301,
$currentCorrectResponse,$currentGoStim,,,,,,,,,0,0,0,0,2,0,8,0,,,,,,,,,2901.286968484521,stop,squareblack.png,right,0.35,,,,,,,,,,,,,,,,,,0.007152959704399109,0.49100708961486816,0.8420624062418938,2903.7914178967476,test,1,,,,,,,2901.308674097061,2901.8039621412754,2901.8039621412754,2901.820229150355,2902.1548697650433,2902.670372031629,2902.803649663925,2903.811925254762,right,1,0.4624730423092842,0.3,,,,,,,,,,,s035,001,2024-09-23_10h08.31.706,simplestop_skeleton,2022.2.2,59.66393017877301,
$currentCorrectResponse,$currentGoStim,,,,,,,,,0,0,0,0,2,1,9,0,,,,,,,,,2903.791873589158,stop,squareblack.png,right,0.3,,,,,,,,,,,,,,,,,,0.002184145152568817,0.4868711233139038,0.7870128974318504,2906.292434848845,test,1,,,,,,,2903.811925254762,2904.3055474609137,2904.3055474609137,2904.322462543845,2904.6056651622057,2905.10624755919,2905.306646235287,2906.309720955789,None,0,,0.35,,,,,,,,,,,s035,001,2024-09-23_10h08.31.706,simplestop_skeleton,2022.2.2,59.66393017877301,
None,None,,,,,,,,,0,0,0,0,2,2,10,3,,,,,,,,,2906.2928884774446,go,squareblack.png,right,0.35,,,,,,,,,,,,,,,,,,0.0012232735753059387,0.48905836045742035,,2908.7947596535087,test,1,,,,,,,2906.309720955789,2906.807986743748,2906.807986743748,2906.824705258012,2907.1589185222983,2907.660143122077,2907.8110840022564,2908.8114957511425,right,1,0.6387141346931458,0.35,,,,,,,,,,,s035,001,2024-09-23_10h08.31.706,simplestop_skeleton,2022.2.2,59.66393017877301,
$currentCorrectResponse,$currentGoStim,,,,,,,,,0,0,0,0,2,3,11,0,,,,,,,,,2908.7952123582363,go,squareblack.png,right,0.35,,,,,,,,,,,,,,,,,,0.0011670216917991638,0.4904864802956581,,2911.298540942371,test,1,,,,,,,2908.8114957511425,2909.311671771109,2909.311671771109,2909.311671771109,2909.6630846187472,2910.178508274257,2910.3119224458933,2911.317284554243,right,1,0.6484755948185921,0.35,,,,,,,,,,,s035,001,2024-09-23_10h08.31.706,simplestop_skeleton,2022.2.2,59.66393017877301,
None,None,,,,,,,,,0,0,0,0,3,0,12,1,,,,,,,,,2911.2989760562778,stop,squareblack.png,right,0.35,,,,,,,,,,,,,,,,,,0.002201855182647705,0.4875190481543541,0.8376568406820297,2913.800629109144,test,1,,,,,,,2911.317284554243,2911.8138134628534,2911.8138134628534,2911.830485343933,2912.1640090718865,2912.6645235344768,2912.81472183764,2913.8244730606675,None,0,,0.4,,,,,,,,,,,s035,001,2024-09-23_10h08.31.706,simplestop_skeleton,2022.2.2,59.66393017877301,
None,None,,,,,,,,,0,0,0,0,3,1,13,2,,,,,,,,,2913.801135532558,go,circleblack.png,left,0.4,,,,,,,,,,,,,,,,,,0.008098796010017395,0.48867159336805344,,2916.3031644672155,test,1,,,,,,,2913.8244730606675,2914.316492162645,2914.316492162645,2914.3330285325646,2914.7168361991644,2915.217524692416,2915.3177311345935,2916.319875739515,left,1,0.5740340575575829,0.4,,,,,,,,,,,s035,001,2024-09-23_10h08.31.706,simplestop_skeleton,2022.2.2,59.66393017877301,
None,None,,,,,,,,,0,0,0,0,3,2,14,1,,,,,,,,,2916.303707756102,stop,circleblack.png,left,0.4,,,,,,,,,,,,,,,,,,0.0012408122420310974,0.4906041547656059,0.892094686627388,2918.806722328067,test,1,,,,,,,2916.319875739515,2916.8198120594025,2916.8198120594025,2916.8198120594025,2917.2214545980096,2917.7367691621184,2917.820218130946,2918.824900493026,None,0,,0.45,,,,,,,,,,,s035,001,2024-09-23_10h08.31.706,simplestop_skeleton,2022.2.2,59.66393017877301,
$currentCorrectResponse,$currentGoStim,,,,,,,,,0,0,0,0,3,3,15,0,,,,,,,,,2918.8071645870805,go,squareblack.png,right,0.45,,,,,,,,,,,,,,,,,,0.0017469078302383423,0.4887121394276619,,2921.3088821694255,test,1,,,,,,,2918.824900493026,2919.322066962719,2919.322066962719,2919.338807038963,2919.77238984406,2920.2729344666004,2920.322940811515,2921.3267272114754,right,1,0.5311731025576591,0.45,,,,,,,,,,,s035,001,2024-09-23_10h08.31.706,simplestop_skeleton,2022.2.2,59.66393017877301,
None,None,,,,,,,,,0,0,0,0,4,0,16,2,,,,,,,,,2921.309328466654,stop,squareblack.png,right,0.45,,,,,,,,,,,,,,,,,,0.001241639256477356,0.4888788014650345,0.9394218400120735,2923.811568081379,test,1,,,,,,,2921.3267272114754,2921.824641160667,2921.824641160667,2921.841427862644,2922.2751399949193,2922.7768423482776,2922.8273278847337,2923.842662394047,None,0,,0.5,,,,,,,,,,,s035,001,2024-09-23_10h08.31.706,simplestop_skeleton,2022.2.2,59.66393017877301,
None,None,,,,,,,,,0,0,0,0,4,1,17,2,,,,,,,,,2923.812023088336,go,squareblack.png,right,0.5,,,,,,,,,,,,,,,,,,0.0011592954397201538,0.4899408593773842,,2926.3143373429775,test,1,,,,,,,2923.842662394047,2924.327675834298,2924.327675834298,2924.3440860956907,2924.8297888487577,2925.345485806465,2925.328849732876,2926.3318498954177,right,1,0.4635000452399254,0.5,,,,,,,,,,,s035,001,2024-09-23_10h08.31.706,simplestop_skeleton,2022.2.2,59.66393017877301,
None,None,,,,,,,,,0,0,0,0,4,2,18,1,,,,,,,,,2926.3147926852107,go,circleblack.png,left,0.5,,,,,,,,,,,,,,,,,,0.0018370896577835083,0.49146632850170135,,2928.8191922456026,test,1,,,,,,,2926.3318498954177,2926.832008510828,2926.832008510828,2926.832008510828,2927.3307581320405,2927.831229545176,2927.831229545176,2928.840753033757,left,1,0.660286083817482,0.5,,,,,,,,,,,s035,001,2024-09-23_10h08.31.706,simplestop_skeleton,2022.2.2,59.66393017877301,
None,None,,,,,,,,,0,0,0,0,4,3,19,2,,,,,,,,,2928.819676861167,go,squareblack.png,right,0.5,,,,,,,,,,,,,,,,,,0.0022444725036621094,0.485462948679924,,2931.3198194652796,test,1,,,,,,,2928.840753033757,2929.3329052329063,2929.3329052329063,2929.3496610224247,2929.8337828293443,2930.3364665731788,2930.3364665731788,2931.3374230265617,right,1,0.496916227042675,0.5,,,,,,,,,,,s035,001,2024-09-23_10h08.31.706,simplestop_skeleton,2022.2.2,59.66393017877301,
None,None,,,,,,,,,0,0,0,0,5,0,20,1,,,,,,,,,2931.3202679380774,go,circleblack.png,left,0.5,,,,,,,,,,,,,,,,,,0.001762978732585907,0.4895518198609352,,2933.8224920406938,test,1,,,,,,,2931.3374230265617,2931.8357703983784,2931.8357703983784,2931.852382645011,2932.3374417573214,2932.8369985222816,2932.8369985222816,2933.839305192232,left,1,0.4096749275922775,0.5,,,,,,,,,,,s035,001,2024-09-23_10h08.31.706,simplestop_skeleton,2022.2.2,59.66393017877301,
None,None,,,,,,,,,0,0,0,0,5,1,21,3,,,,,,,,,2933.8229467347264,go,circleblack.png,left,0.5,,,,,,,,,,,,,,,,,,0.0013227015733718872,0.49123429507017136,,2936.326501637697,test,1,,,,,,,2933.839305192232,2934.339575380087,2934.339575380087,2934.339575380087,2934.8392903208733,2935.3397087976336,2935.3397087976336,2936.346989877522,left,1,0.5672241076827049,0.5,,,,,,,,,,,s035,001,2024-09-23_10h08.31.706,simplestop_skeleton,2022.2.2,59.66393017877301,
None,None,,,,,,,,,0,0,0,0,5,2,22,1,,,,,,,,,2936.3269415944815,go,squareblack.png,right,0.5,,,,,,,,,,,,,,,,,,0.001916930079460144,0.48802699893713,,2938.8281123638153,test,1,,,,,,,2936.346989877522,2936.8413972631097,2936.8413972631097,2936.8580292388797,2937.341828390956,2937.842349052429,2937.842349052429,2938.846318691969,right,1,0.5854079648852348,0.5,,,,,,,,,,,s035,001,2024-09-23_10h08.31.706,simplestop_skeleton,2022.2.2,59.66393017877301,
None,None,,,,,,,,,0,0,0,0,5,3,23,1,,,,,,,,,2938.82857183367,stop,circleblack.png,left,0.5,,,,,,,,,,,,,,,,,,0.0020644590258598328,0.48920129984617233,0.989774763584137,2941.3309925869107,test,1,,,,,,,2938.846318691969,2939.344026826322,2939.344026826322,2939.36067404598,2939.8445049375296,2940.3468462750316,2940.3468462750316,2941.3482927009463,left,1,0.450767919421196,0.45,,,,,,,,,,,s035,001,2024-09-23_10h08.31.706,simplestop_skeleton,2022.2.2,59.66393017877301,
None,None,,,,,,,,,0,0,0,0,6,0,24,3,,,,,,,,,2941.331445284188,stop,squareblack.png,right,0.45,,,,,,,,,,,,,,,,,,0.001583091914653778,0.4904269352555275,0.9418188333511353,2943.8346933051944,test,1,,,,,,,2941.3482927009463,2941.847621202469,2941.847621202469,2941.847621202469,2942.297405347228,2942.7978869974613,2942.847798295319,2943.8561396449804,None,0,,0.5,,,,,,,,,,,s035,001,2024-09-23_10h08.31.706,simplestop_skeleton,2022.2.2,59.66393017877301,
None,None,,,,,,,,,0,0,0,0,6,1,25,1,,,,,,,,,2943.8354095965624,go,circleblack.png,left,0.5,,,,,,,,,,,,,,,,,,0.0017940551042556763,0.4847160428762436,,2946.3366303667426,test,1,,,,,,,2943.8561396449804,2944.3497195392847,2944.3497195392847,2944.3663669601083,2944.850086554885,2945.3505767285824,2945.3505767285824,2946.3542543128133,left,1,0.5270976424217224,0.5,,,,,,,,,,,s035,001,2024-09-23_10h08.31.706,simplestop_skeleton,2022.2.2,59.66393017877301,
None,None,,,,,,,,,0,0,0,0,6,2,26,2,,,,,,,,,2946.33710899204,stop,circleblack.png,left,0.5,,,,,,,,,,,,,,,,,,0.0012979358434677124,0.48881854861974716,0.9895998537540436,2948.839282862842,test,1,,,,,,,2946.3542543128133,2946.8522429913282,2946.8522429913282,2946.868944428861,2947.352851316333,2947.853715598583,2947.853715598583,2948.8569883182645,left,1,0.5059919133782387,0.45,,,,,,,,,,,s035,001,2024-09-23_10h08.31.706,simplestop_skeleton,2022.2.2,59.66393017877301,
None,None,,,,,,,,,0,0,0,0,6,3,27,2,,,,,,,,,2948.8397265151143,go,circleblack.png,left,0.45,,,,,,,,,,,,,,,,,,0.0013223439455032349,0.4891451969742775,,2951.3422322422266,test,1,,,,,,,2948.8569883182645,2949.355742648244,2949.355742648244,2949.374087370932,2949.807431258261,2950.3229827433825,2950.3565546274185,2951.3605861887336,left,1,0.7505819126963615,0.45,,,,,,,,,,,s035,001,2024-09-23_10h08.31.706,simplestop_skeleton,2022.2.2,59.66393017877301,
None,None,,,,,,,,,0,0,0,0,7,0,28,2,,,,,,,,,2951.3426856547594,go,squareblack.png,right,0.45,,,,,,,,,,,,,,,,,,0.0017332732677459717,0.49051234871149063,,2953.84659768641,test,1,,,,,,,2951.3605861887336,2951.8596837595105,2951.8596837595105,2951.876441657543,2952.3084800317883,2952.8088707849383,2952.8588395491242,2953.8679602220654,right,1,0.4025767594575882,0.45,,,,,,,,,,,s035,001,2024-09-23_10h08.31.706,simplestop_skeleton,2022.2.2,59.66393017877301,
None,None,,,,,,,,,0,0,0,0,7,1,29,2,,,,,,,,,2953.8470544964075,go,circleblack.png,left,0.45,,,,,,,,,,,,,,,,,,0.002321578562259674,0.4863598123192787,,2956.3478567674756,test,1,,,,,,,2953.8679602220654,2954.3608217164874,2954.3608217164874,2954.3775285482407,2954.810963846743,2955.3119406700134,2955.3616873025894,2956.365192323923,left,1,0.7525768578052521,0.45,,,,,,,,,,,s035,001,2024-09-23_10h08.31.706,simplestop_skeleton,2022.2.2,59.66393017877301,
None,None,,,,,,,,,0,0,0,0,7,2,30,3,,,,,,,,,2956.3483065515757,go,squareblack.png,right,0.45,,,,,,,,,,,,,,,,,,0.0016199573874473572,0.4890681505203247,,2958.8500698804855,test,1,,,,,,,2956.365192323923,2956.8632738143206,2956.8632738143206,2956.8799307346344,2957.313873909414,2957.816310785711,2957.864692002535,2958.866748906672,right,1,0.8464013412594795,0.45,,,,,,,,,,,s035,001,2024-09-23_10h08.31.706,simplestop_skeleton,2022.2.2,59.66393017877301,
None,None,,,,,,,,,0,0,0,0,7,3,31,2,,,,,,,,,2958.850503921509,go,squareblack.png,right,0.45,,,,,,,,,,,,,,,,,,0.0012055188417434692,0.49017424136400223,,2961.353707753122,test,1,,,,,,,2958.866748906672,2959.367202706635,2959.367202706635,2959.367202706635,2959.8167145326734,2960.3171872869134,2960.3670748770237,2961.373194038868,right,1,0.7323624566197395,0.45,,,,,,,,,,,s035,001,2024-09-23_10h08.31.706,simplestop_skeleton,2022.2.2,59.66393017877301,
None,None,,,,,,,,,0,0,0,0,8,0,32,3,,,,,,,,,2961.3542033061385,stop,circleblack.png,left,0.45,,,,,,,,,,,,,,,,,,0.0023196041584014893,0.48752961307764053,0.9378634840250015,2963.8559525609016,test,1,,,,,,,2961.373194038868,2961.869027324021,2961.869027324021,2961.885841026902,2962.3194026574492,2962.81984526664,2962.8700383752584,2963.874048523605,None,0,,0.5,,,,,,,,,,,s035,001,2024-09-23_10h08.31.706,simplestop_skeleton,2022.2.2,59.66393017877301,
None,None,,,,,,,,,0,0,0,0,8,1,33,1,,,,,,,,,2963.85641413182,stop,squareblack.png,right,0.5,,,,,,,,,,,,,,,,,,0.0018207728862762451,0.48878903687000275,0.9893387258052826,2966.358460985124,test,1,,,,,,,2963.874048523605,2964.371514350176,2964.371514350176,2964.388273179531,2964.8721912652254,2965.3729157820344,2965.3729157820344,2966.3772850334644,right,1,0.5407856926321983,0.45,,,,,,,,,,,s035,001,2024-09-23_10h08.31.706,simplestop_skeleton,2022.2.2,59.66393017877301,
$currentCorrectResponse,$currentGoStim,,,,,,,,,0,0,0,0,8,2,34,0,,,,,,,,,2966.358922854066,go,circleblack.png,left,0.45,,,,,,,,,,,,,,,,,,0.00198277086019516,0.488815039396286,,2968.86104375124,test,1,,,,,,,2966.3772850334644,2966.8743537813425,2966.8743537813425,2966.891053803265,2967.3267396762967,2967.842280089855,2967.875417329371,2968.8785038739443,left,1,0.6084425300359726,0.45,,,,,,,,,,,s035,001,2024-09-23_10h08.31.706,simplestop_skeleton,2022.2.2,59.66393017877301,
None,None,,,,,,,,,0,0,0,0,8,3,35,3,,,,,,,,,2968.8614981248975,go,squareblack.png,right,0.45,,,,,,,,,,,,,,,,,,0.001759640872478485,0.4897022247314453,,2971.364173680544,test,1,,,,,,,2968.8785038739443,2969.3773747980595,2969.3773747980595,2969.3941438794136,2969.827598027885,2970.328102812171,2970.3784698694944,2971.3817596659064,right,1,0.7173467203974724,0.45,,,,,,,,,,,s035,001,2024-09-23_10h08.31.706,simplestop_skeleton,2022.2.2,59.66393017877301,
$currentCorrectResponse,$currentGoStim,,,,,,,,,0,0,0,0,9,0,36,0,,,,,,,,,2971.364646151662,go,squareblack.png,right,0.45,,,,,,,,,,,,,,,,,,0.0012484416365623474,0.48899511247873306,,2973.866728104651,test,1,,,,,,,2971.3817596659064,2971.8798359259963,2971.8798359259963,2971.8965136110783,2972.330354258418,2972.8320820629597,2972.8825525715947,2973.883373975754,right,1,0.49163777381181717,0.45,,,,,,,,,,,s035,001,2024-09-23_10h08.31.706,simplestop_skeleton,2022.2.2,59.66393017877301,
None,None,,,,,,,,,0,0,0,0,9,1,37,3,,,,,,,,,2973.8672104924917,go,squareblack.png,right,0.45,,,,,,,,,,,,,,,,,,0.0011796057224273682,0.48954032361507416,,2976.3693203553557,test,1,,,,,,,2973.883373975754,2974.3827305287123,2974.3827305287123,2974.3827305287123,2974.8342278525233,2975.333861425519,2975.383876696229,2976.3930247053504,right,1,0.704565517604351,0.45,,,,,,,,,,,s035,001,2024-09-23_10h08.31.706,simplestop_skeleton,2022.2.2,59.66393017877301,
None,None,,,,,,,,,0,0,0,0,9,2,38,1,,,,,,,,,2976.369751289487,go,circleblack.png,left,0.45,,,,,,,,,,,,,,,,,,0.008052527904510498,0.4901377558708191,,2978.87343403697,test,1,,,,,,,2976.3930247053504,2976.886230275035,2976.886230275035,2976.903486251831,2977.3361728042364,2977.836424909532,2977.8864650949836,2978.89292345196,left,1,0.600372277200222,0.45,,,,,,,,,,,s035,001,2024-09-23_10h08.31.706,simplestop_skeleton,2022.2.2,59.66393017877301,
None,None,,,,,,,,,0,0,0,0,9,3,39,3,,,,,,,,,2978.8738929778337,stop,circleblack.png,left,0.45,,,,,,,,,,,,,,,,,,0.0018227994441986084,0.48665210604667664,0.9369353875517845,2981.3755057677627,test,1,,,,,,,2978.89292345196,2979.3883804380894,2979.3883804380894,2979.4051227644086,2979.838664866984,2980.3391978517175,2980.389298968017,2981.395723246038,right,0,0.0038197264075279236,0.4,,,,,,,,,,,s035,001,2024-09-23_10h08.31.706,simplestop_skeleton,2022.2.2,59.66393017877301,
None,None,,,,,,,,,0,0,0,0,10,0,40,3,,,,,,,,,2981.3759587183595,go,squareblack.png,right,0.4,,,,,,,,,,,,,,,,,,0.0025688037276268005,0.48657138645648956,,2983.8776381462812,test,1,,,,,,,2981.395723246038,2981.8909161388874,2981.8909161388874,2981.9076979607344,2982.291437484324,2982.7920441254973,2982.8921735063195,2983.895102545619,right,1,0.7418185174465179,0.4,,,,,,,,,,,s035,001,2024-09-23_10h08.31.706,simplestop_skeleton,2022.2.2,59.66393017877301,
None,None,,,,,,,,,0,0,0,0,10,1,41,2,,,,,,,,,2983.878106556833,go,circleblack.png,left,0.4,,,,,,,,,,,,,,,,,,0.001782245934009552,0.4896087273955345,,2986.381293334067,test,1,,,,,,,2983.895102545619,2984.3936790451407,2984.3936790451407,2984.4104665219784,2984.796205818653,2985.311670869589,2985.3948035538197,2986.399505458772,left,1,0.5595274642109871,0.4,,,,,,,,,,,s035,001,2024-09-23_10h08.31.706,simplestop_skeleton,2022.2.2,59.66393017877301,
$currentCorrectResponse,$currentGoStim,,,,,,,,,0,0,0,0,10,2,42,0,,,,,,,,,2986.3817399591208,stop,squareblack.png,right,0.4,,,,,,,,,,,,,,,,,,0.001890331506729126,0.4887292981147766,0.8888849467039108,2988.8855688795447,test,1,,,,,,,2986.399505458772,2986.8969150707126,2986.8969150707126,2986.9135562181473,2987.2969029173255,2987.7974657416344,2987.897600851953,2988.9083743318915,right,1,0.2589906305074692,0.35,,,,,,,,,,,s035,001,2024-09-23_10h08.31.706,simplestop_skeleton,2022.2.2,59.66393017877301,
None,None,,,,,,,,,0,0,0,0,10,3,43,3,,,,,,,,,2988.886027380824,go,squareblack.png,right,0.35,,,,,,,,,,,,,,,,,,0.0013854801654815674,0.48319508880376816,,2991.3859351202846,test,1,,,,,,,2988.9083743318915,2989.399185322225,2989.399185322225,2989.4161006212234,2989.7497974708676,2990.250514574349,2990.402708888054,2991.403329476714,None,0,,0.35,,,,,,,,,,,s035,001,2024-09-23_10h08.31.706,simplestop_skeleton,2022.2.2,59.66393017877301,
$currentCorrectResponse,$currentGoStim,,,,,,,,,0,0,0,0,11,0,44,0,,,,,,,,,2991.386405572295,go,circleblack.png,left,0.35,,,,,,,,,,,,,,,,,,0.0017614439129829407,0.48968596011400223,,2993.888796389103,test,1,,,,,,,2991.403329476714,2991.9020241573453,2991.9020241573453,2991.918658427894,2992.2523536756635,2992.754905588925,2992.9032309800386,2993.9199750199914,left,1,0.6644054129719734,0.35,,,,,,,,,,,s035,001,2024-09-23_10h08.31.706,simplestop_skeleton,2022.2.2,59.66393017877301,
None,None,,,,,,,,,0,0,0,0,11,1,45,2,,,,,,,,,2993.889312312007,go,circleblack.png,left,0.35,,,,,,,,,,,,,,,,,,0.0012350305914878845,0.49076616764068604,,2996.3928001001477,test,1,,,,,,,2993.9199750199914,2994.4058162793517,2994.4058162793517,2994.423030488193,2994.755268111825,2995.2556395605206,2995.4057953432202,2996.4144372865558,left,1,0.5880590826272964,0.35,,,,,,,,,,,s035,001,2024-09-23_10h08.31.706,simplestop_skeleton,2022.2.2,59.66393017877301,
None,None,,,,,,,,,0,0,0,0,11,2,46,1,,,,,,,,,2996.393445342779,stop,squareblack.png,right,0.35,,,,,,,,,,,,,,,,,,0.0021098777651786804,0.48411715775728226,0.8343622535467148,2998.8944902941585,test,1,,,,,,,2996.4144372865558,2996.9077273607254,2996.9077273607254,2996.924442179501,2997.2578257396817,2997.758433096111,2997.9085392430425,2998.912831246853,None,0,,0.4,,,,,,,,,,,s035,001,2024-09-23_10h08.31.706,simplestop_skeleton,2022.2.2,59.66393017877301,
None,None,,,,,,,,,0,0,0,0,11,3,47,1,,,,,,,,,2998.894931599498,stop,circleblack.png,left,0.4,,,,,,,,,,,,,,,,,,0.0018957704305648804,0.4889804571866989,0.8894845619797707,3001.3970391079783,test,1,,,,,,,2998.912831246853,2999.4102352261543,2999.4102352261543,2999.4268798604608,2999.810698002577,3000.3119903430343,3000.4115292057395,3001.425029374659,None,0,,0.45,,,,,,,,,,,s035,001,2024-09-23_10h08.31.706,simplestop_skeleton,2022.2.2,59.66393017877301,
,,,,,,,,,,0,0,0,0,,,,,,"[{'fileName': 'circleblack.png', 'correct_response': 'left', 'condition': 'go'}, {'fileName': 'circleblack.png', 'correct_response': 'left', 'condition': 'go'}, {'fileName': 'squareblack.png', 'correct_response': 'right', 'condition': 'go'}, {'fileName': 'circleblack.png', 'correct_response': 'left', 'condition': 'go'}, {'fileName': 'circleblack.png', 'correct_response': 'left', 'condition': 'go'}, {'fileName': 'circleblack.png', 'correct_response': 'left', 'condition': 'stop'}, {'fileName': 'squareblack.png', 'correct_response': 'right', 'condition': 'stop'}, {'fileName': 'circleblack.png', 'correct_response': 'left', 'condition': 'stop'}, {'fileName': 'squareblack.png', 'correct_response': 'right', 'condition': 'go'}, {'fileName': 'squareblack.png', 'correct_response': 'right', 'condition': 'go'}, {'fileName': 'squareblack.png', 'correct_response': 'right', 'condition': 'stop'}, {'fileName': 'squareblack.png', 'correct_response': 'right', 'condition': 'go'}, {'fileName': 'squareblack.png', 'correct_response': 'right', 'condition': 'go'}, {'fileName': 'circleblack.png', 'correct_response': 'left', 'condition': 'go'}, {'fileName': 'circleblack.png', 'correct_response': 'left', 'condition': 'go'}, {'fileName': 'squareblack.png', 'correct_response': 'right', 'condition': 'stop'}, {'fileName': 'circleblack.png', 'correct_response': 'left', 'condition': 'stop'}, {'fileName': 'circleblack.png', 'correct_response': 'left', 'condition': 'go'}, {'fileName': 'squareblack.png', 'correct_response': 'right', 'condition': 'go'}, {'fileName': 'squareblack.png', 'correct_response': 'right', 'condition': 'go'}, {'fileName': 'squareblack.png', 'correct_response': 'right', 'condition': 'go'}, {'fileName': 'circleblack.png', 'correct_response': 'left', 'condition': 'stop'}, {'fileName': 'squareblack.png', 'correct_response': 'right', 'condition': 'stop'}, {'fileName': 'circleblack.png', 'correct_response': 'left', 'condition': 'go'}, {'fileName': 'squareblack.png', 'correct_response': 'right', 'condition': 'stop'}, {'fileName': 'circleblack.png', 'correct_response': 'left', 'condition': 'go'}, {'fileName': 'circleblack.png', 'correct_response': 'left', 'condition': 'stop'}, {'fileName': 'squareblack.png', 'correct_response': 'right', 'condition': 'go'}, {'fileName': 'squareblack.png', 'correct_response': 'right', 'condition': 'stop'}, {'fileName': 'circleblack.png', 'correct_response': 'left', 'condition': 'go'}, {'fileName': 'squareblack.png', 'correct_response': 'right', 'condition': 'go'}, {'fileName': 'circleblack.png', 'correct_response': 'left', 'condition': 'stop'}, {'fileName': 'circleblack.png', 'correct_response': 'left', 'condition': 'go'}, {'fileName': 'squareblack.png', 'correct_response': 'right', 'condition': 'go'}, {'fileName': 'squareblack.png', 'correct_response': 'right', 'condition': 'go'}, {'fileName': 'circleblack.png', 'correct_response': 'left', 'condition': 'go'}, {'fileName': 'squareblack.png', 'correct_response': 'right', 'condition': 'stop'}, {'fileName': 'squareblack.png', 'correct_response': 'right', 'condition': 'go'}, {'fileName': 'squareblack.png', 'correct_response': 'right', 'condition': 'go'}, {'fileName': 'circleblack.png', 'correct_response': 'left', 'condition': 'go'}, {'fileName': 'circleblack.png', 'correct_response': 'left', 'condition': 'stop'}, {'fileName': 'squareblack.png', 'correct_response': 'right', 'condition': 'go'}, {'fileName': 'circleblack.png', 'correct_response': 'left', 'condition': 'go'}, {'fileName': 'circleblack.png', 'correct_response': 'left', 'condition': 'go'}, {'fileName': 'squareblack.png', 'correct_response': 'right', 'condition': 'stop'}, {'fileName': 'squareblack.png', 'correct_response': 'right', 'condition': 'go'}, {'fileName': 'circleblack.png', 'correct_response': 'left', 'condition': 'go'}, {'fileName': 'circleblack.png', 'correct_response': 'left', 'condition': 'stop'}]",,,,,,,,,,,,,,,,,,,,,,,,,,,,,,,,,,,,,,,,,,,,,,,,,,,,,3001.425029374659,3001.425029374659,return,3.321120373904705,,,,,,,s035,001,2024-09-23_10h08.31.706,simplestop_skeleton,2022.2.2,59.66393017877301,
$currentCorrectResponse,$currentGoStim,,,,,,,,,1,0,1,0,0,0,0,0,,,,,,,,,3004.774879537523,go,circleblack.png,left,0.45,,,,,,,,,,,,,,,,,,0.0013191699981689453,0.4983239024877548,,3007.287340529263,test,2,,,,,,,3004.793142475188,3005.300008289516,3005.300008289516,3005.300008289516,3005.750842116773,3006.2513278499246,3006.3017566651106,3007.3042770400643,left,1,0.815074697136879,0.45,,,,,,,,,,,s035,001,2024-09-23_10h08.31.706,simplestop_skeleton,2022.2.2,59.66393017877301,
None,None,,,,,,,,,1,0,1,0,0,1,1,3,,,,,,,,,3007.287888213992,go,circleblack.png,left,0.45,,,,,,,,,,,,,,,,,,0.0012373775243759155,0.4890660345554352,,3009.7900068238378,test,2,,,,,,,3007.3042770400643,3007.8029277920723,3007.8029277920723,3007.8195943683386,3008.2552067115903,3008.7707418501377,3008.804189197719,3009.8127126693726,left,1,0.5077624693512917,0.45,,,,,,,,,,,s035,001,2024-09-23_10h08.31.706,simplestop_skeleton,2022.2.2,59.66393017877301,
None,None,,,,,,,,,1,0,1,0,0,2,2,2,,,,,,,,,3009.790455773473,go,squareblack.png,right,0.45,,,,,,,,,,,,,,,,,,0.007385753095149994,0.4908299446105957,,3012.2946033477783,test,2,,,,,,,3009.8127126693726,3010.307487718761,3010.307487718761,3010.324140101671,3010.7562841922045,3011.2565684095025,3011.3067498728633,3012.3163422718644,right,1,0.7036615386605263,0.45,,,,,,,,,,,s035,001,2024-09-23_10h08.31.706,simplestop_skeleton,2022.2.2,59.66393017877301,
None,None,,,,,,,,,1,0,1,0,0,3,3,1,,,,,,,,,3012.295106239617,go,circleblack.png,left,0.45,,,,,,,,,,,,,,,,,,0.0027291998267173767,0.486086905002594,,3014.795079007745,test,2,,,,,,,3012.3163422718644,3012.8085807561874,3012.8085807561874,3012.8253272101283,3013.258969962597,3013.759415052831,3013.809443682432,3014.81191534549,left,1,0.4503563344478607,0.45,,,,,,,,,,,s035,001,2024-09-23_10h08.31.706,simplestop_skeleton,2022.2.2,59.66393017877301,
None,None,,,,,,,,,1,0,1,0,1,0,4,3,,,,,,,,,3014.795526050031,go,circleblack.png,left,0.45,,,,,,,,,,,,,,,,,,0.0012610182166099548,0.48968032002449036,,3017.2979896590114,test,2,,,,,,,3014.81191534549,3015.311090670526,3015.311090670526,3015.311090670526,3015.761837542057,3016.2642235308886,3016.314198985696,3017.314628303051,left,1,0.4439583569765091,0.45,,,,,,,,,,,s035,001,2024-09-23_10h08.31.706,simplestop_skeleton,2022.2.2,59.66393017877301,
$currentCorrectResponse,$currentGoStim,,,,,,,,,1,0,1,0,1,1,5,0,,,,,,,,,3017.2984352633357,stop,circleblack.png,left,0.45,,,,,,,,,,,,,,,,,,0.0012167468667030334,0.49042993783950806,0.9418971017003059,3019.8008138537407,test,2,,,,,,,3017.314628303051,3017.8146288096905,3017.8146288096905,3017.8146288096905,3018.2662576138973,3018.7819425463676,3018.8149135410786,3019.8227630779147,left,1,0.42219699174165726,0.4,,,,,,,,,,,s035,001,2024-09-23_10h08.31.706,simplestop_skeleton,2022.2.2,59.66393017877301,
None,None,,,,,,,,,1,0,1,0,1,2,6,1,,,,,,,,,3019.8012494817376,stop,squareblack.png,right,0.4,,,,,,,,,,,,,,,,,,0.006979435682296753,0.489607535302639,0.8899010494351387,3022.3038076087832,test,2,,,,,,,3019.8227630779147,3020.317054949701,3020.317054949701,3020.3334379270673,3020.717064283788,3021.2176084443927,3021.3176755160093,3022.322195671499,None,0,,0.45,,,,,,,,,,,s035,001,2024-09-23_10h08.31.706,simplestop_skeleton,2022.2.2,59.66393017877301,
None,None,,,,,,,,,1,0,1,0,1,3,7,3,,,,,,,,,3022.3042737692595,stop,circleblack.png,left,0.45,,,,,,,,,,,,,,,,,,0.0018608346581459045,0.48879116773605347,0.9391934797167778,3024.806404672563,test,2,,,,,,,3022.322195671499,3022.819401808083,3022.819401808083,3022.8360452130437,3023.2699726074934,3023.7716038674116,3023.822132460773,3024.823413051665,left,1,0.3790391981601715,0.4,,,,,,,,,,,s035,001,2024-09-23_10h08.31.706,simplestop_skeleton,2022.2.2,59.66393017877301,
None,None,,,,,,,,,1,0,1,0,2,0,8,2,,,,,,,,,3024.80685801059,go,squareblack.png,right,0.4,,,,,,,,,,,,,,,,,,0.0016086697578430176,0.48949357867240906,,3027.3087905570865,test,2,,,,,,,3024.823413051665,3025.322085238993,3025.322085238993,3025.3389667868614,3025.723576180637,3026.2233160585165,3026.3234834969044,3027.3255765140057,right,1,0.6451453641057014,0.4,,,,,,,,,,,s035,001,2024-09-23_10h08.31.706,simplestop_skeleton,2022.2.2,59.66393017877301,
None,None,,,,,,,,,1,0,1,0,2,1,9,3,,,,,,,,,3027.30923589319,go,squareblack.png,right,0.4,,,,,,,,,,,,,,,,,,0.00116632878780365,0.48977117240428925,,3029.811699785292,test,2,,,,,,,3027.3255765140057,3027.827210970223,3027.827210970223,3027.827210970223,3028.227181404829,3028.742638207972,3028.8429085686803,3029.8284367993474,right,1,0.7285785898566246,0.4,,,,,,,,,,,s035,001,2024-09-23_10h08.31.706,simplestop_skeleton,2022.2.2,59.66393017877301,
None,None,,,,,,,,,1,0,1,0,2,2,10,2,,,,,,,,,3029.81212990731,stop,squareblack.png,right,0.4,,,,,,,,,,,,,,,,,,0.0011583417654037476,0.4915999695658684,0.8904217407107353,3032.3176841065288,test,2,,,,,,,3029.8284367993474,3030.329500235617,3030.329500235617,3030.329500235617,3030.728276334703,3031.2286697104573,3031.3287295103073,3032.341673567891,right,1,0.8272412940859795,0.35,,,,,,,,,,,s035,001,2024-09-23_10h08.31.706,simplestop_skeleton,2022.2.2,59.66393017877301,
None,None,,,,,,,,,1,0,1,0,2,3,11,3,,,,,,,,,3032.3181671202183,go,squareblack.png,right,0.35,,,,,,,,,,,,,,,,,,0.0018077492713928223,0.48392824828624725,,3034.8174050450325,test,2,,,,,,,3032.341673567891,3032.8310439512134,3032.8310439512134,3032.847644738853,3033.180887117982,3033.6814100518823,3033.8318294659257,3034.8351350426674,None,0,,0.35,,,,,,,,,,,s035,001,2024-09-23_10h08.31.706,simplestop_skeleton,2022.2.2,59.66393017877301,
$currentCorrectResponse,$currentGoStim,,,,,,,,,1,0,1,0,3,0,12,0,,,,,,,,,3034.8178536444902,go,squareblack.png,right,0.35,,,,,,,,,,,,,,,,,,0.0012156739830970764,0.4888756796717644,,3037.319941163063,test,2,,,,,,,3034.8351350426674,3035.333217896521,3035.333217896521,3035.3499918729067,3035.683692365885,3036.1853579729795,3036.336452357471,3037.342828862369,right,1,0.7962642535567284,0.35,,,,,,,,,,,s035,001,2024-09-23_10h08.31.706,simplestop_skeleton,2022.2.2,59.66393017877301,
None,None,,,,,,,,,1,0,1,0,3,1,13,3,,,,,,,,,3037.320391021669,go,circleblack.png,left,0.35,,,,,,,,,,,,,,,,,,0.00802651047706604,0.4906003400683403,,3039.82268512249,test,2,,,,,,,3037.342828862369,3037.836631938815,3037.836631938815,3037.853509142995,3038.1882357746363,3038.7038147449493,3038.8370263278484,3039.839554041624,left,1,0.7658970355987549,0.35,,,,,,,,,,,s035,001,2024-09-23_10h08.31.706,simplestop_skeleton,2022.2.2,59.66393017877301,
None,None,,,,,,,,,1,0,1,0,3,2,14,1,,,,,,,,,3039.8231357634068,go,circleblack.png,left,0.35,,,,,,,,,,,,,,,,,,0.0012277960777282715,0.4902060404419899,,3042.3275713026524,test,2,,,,,,,3039.839554041624,3040.339018650353,3040.339018650353,3040.339018650353,3040.689427867532,3041.1897457093,3041.339795537293,3042.349133081734,left,1,0.7066784054040909,0.35,,,,,,,,,,,s035,001,2024-09-23_10h08.31.706,simplestop_skeleton,2022.2.2,59.66393017877301,
None,None,,,,,,,,,1,0,1,0,3,3,15,2,,,,,,,,,3042.3280429020524,stop,squareblack.png,right,0.35,,,,,,,,,,,,,,,,,,0.002693168818950653,0.4864969998598099,0.8366332575678825,3044.828682526946,test,2,,,,,,,3042.349133081734,3042.842003069818,3042.842003069818,3042.858193859458,3043.19188015908,3043.692394785583,3043.842724725604,3044.847258605063,None,0,,0.4,,,,,,,,,,,s035,001,2024-09-23_10h08.31.706,simplestop_skeleton,2022.2.2,59.66393017877301,
None,None,,,,,,,,,1,0,1,0,4,0,16,2,,,,,,,,,3044.829140894115,stop,circleblack.png,left,0.4,,,,,,,,,,,,,,,,,,0.0017101839184761047,0.488172210752964,0.8885805383324623,3047.331107288599,test,2,,,,,,,3044.847258605063,3045.3443561792374,3045.3443561792374,3045.3608942851424,3045.7446868121624,3046.2472841888666,3046.347282603383,3047.3479290679097,left,1,0.49752161651849747,0.35,,,,,,,,,,,s035,001,2024-09-23_10h08.31.706,simplestop_skeleton,2022.2.2,59.66393017877301,
None,None,,,,,,,,,1,0,1,0,4,1,17,2,,,,,,,,,3047.3315574377775,go,circleblack.png,left,0.35,,,,,,,,,,,,,,,,,,0.0012367665767669678,0.4922568276524544,,3049.8347704410553,test,2,,,,,,,3047.3479290679097,3047.8481009081006,3047.8481009081006,3047.8481009081006,3048.1993313208222,3048.6981205269694,3048.848178587854,3049.8523850291967,left,1,0.635296642780304,0.35,,,,,,,,,,,s035,001,2024-09-23_10h08.31.706,simplestop_skeleton,2022.2.2,59.66393017877301,
$currentCorrectResponse,$currentGoStim,,,,,,,,,1,0,1,0,4,2,18,0,,,,,,,,,3049.8351955115795,go,squareblack.png,right,0.35,,,,,,,,,,,,,,,,,,0.0016327351331710815,0.48839764297008514,,3052.338713467121,test,2,,,,,,,3049.8523850291967,3050.3500268757343,3050.3500268757343,3050.3666978627443,3050.700506441295,3051.2008035779,3051.3509224429727,3052.359818711877,right,1,0.5308295264840126,0.35,,,,,,,,,,,s035,001,2024-09-23_10h08.31.706,simplestop_skeleton,2022.2.2,59.66393017877301,
$currentCorrectResponse,$currentGoStim,,,,,,,,,1,0,1,0,4,3,19,0,,,,,,,,,3052.339181981981,go,squareblack.png,right,0.35,,,,,,,,,,,,,,,,,,0.00212705135345459,0.4862501323223114,,3054.839504621923,test,2,,,,,,,3052.359818711877,3052.85290350765,3052.85290350765,3052.869251355529,3053.2028101086617,3053.7033577412367,3053.853686489165,3054.857132062316,right,1,0.6089599058032036,0.35,,,,,,,,,,,s035,001,2024-09-23_10h08.31.706,simplestop_skeleton,2022.2.2,59.66393017877301,
None,None,,,,,,,,,1,0,1,0,5,0,20,1,,,,,,,,,3054.8399681821465,go,squareblack.png,right,0.35,,,,,,,,,,,,,,,,,,0.0013133436441421509,0.4890769049525261,,3057.3421936929226,test,2,,,,,,,3054.857132062316,3055.3552970662713,3055.3552970662713,3055.3718874007463,3055.7056315019727,3056.207362487912,3056.3583417013288,3057.3596193641424,right,1,0.4301750436425209,0.35,,,,,,,,,,,s035,001,2024-09-23_10h08.31.706,simplestop_skeleton,2022.2.2,59.66393017877301,
None,None,,,,,,,,,1,0,1,0,5,1,21,1,,,,,,,,,3057.3426559120417,stop,circleblack.png,left,0.35,,,,,,,,,,,,,,,,,,0.0018357187509536743,0.4897502735257149,0.8408873081207275,3059.845332108438,test,2,,,,,,,3057.3596193641424,3057.858131915331,3057.858131915331,3057.874779678881,3058.210223905742,3058.7259281873703,3058.8593726679683,3059.862939044833,None,0,,0.4,,,,,,,,,,,s035,001,2024-09-23_10h08.31.706,simplestop_skeleton,2022.2.2,59.66393017877301,
None,None,,,,,,,,,1,0,1,0,5,2,22,2,,,,,,,,,3059.845801502466,stop,squareblack.png,right,0.4,,,,,,,,,,,,,,,,,,0.0015943348407745361,0.4911281391978264,0.8897473141551018,3062.3497092053294,test,2,,,,,,,3059.862939044833,3060.3627865836024,3060.3627865836024,3060.3627865836024,3060.7614829540253,3061.261880837381,3061.3786356151104,3062.371333785355,None,0,,0.45,,,,,,,,,,,s035,001,2024-09-23_10h08.31.706,simplestop_skeleton,2022.2.2,59.66393017877301,
None,None,,,,,,,,,1,0,1,0,5,3,23,3,,,,,,,,,3062.3501625955105,go,circleblack.png,left,0.45,,,,,,,,,,,,,,,,,,0.0026229694485664368,0.48628682643175125,,3064.850724555552,test,2,,,,,,,3062.371333785355,3062.863738439977,3062.863738439977,3062.8804534077644,3063.314056456089,3063.8146399483085,3063.8655689954758,3064.8691247552633,left,1,0.7680759951472282,0.45,,,,,,,,,,,s035,001,2024-09-23_10h08.31.706,simplestop_skeleton,2022.2.2,59.66393017877301,
None,None,,,,,,,,,1,0,1,0,6,0,24,2,,,,,,,,,3064.851164035499,stop,squareblack.png,right,0.45,,,,,,,,,,,,,,,,,,0.0017369166016578674,0.48874707520008087,0.9391897618770599,3067.353192985058,test,2,,,,,,,3064.8691247552633,3065.3662920594215,3065.3662920594215,3065.383012972772,3065.8167980462313,3066.3192990124226,3066.3692237734795,3067.3704439252615,None,0,,0.5,,,,,,,,,,,s035,001,2024-09-23_10h08.31.706,simplestop_skeleton,2022.2.2,59.66393017877301,
$currentCorrectResponse,$currentGoStim,,,,,,,,,1,0,1,0,6,1,25,0,,,,,,,,,3067.3536220937967,go,circleblack.png,left,0.5,,,,,,,,,,,,,,,,,,0.0017223134636878967,0.4903499111533165,,3069.855726182461,test,2,,,,,,,3067.3704439252615,3067.8713761121035,3067.8713761121035,3067.8713761121035,3068.370543859899,3068.8715790212154,3068.887028835714,3069.872557014227,left,1,0.7317308485507965,0.5,,,,,,,,,,,s035,001,2024-09-23_10h08.31.706,simplestop_skeleton,2022.2.2,59.66393017877301,
$currentCorrectResponse,$currentGoStim,,,,,,,,,1,0,1,0,6,2,26,0,,,,,,,,,3069.8561706766486,stop,circleblack.png,left,0.5,,,,,,,,,,,,,,,,,,0.0012357383966445923,0.49051516503095627,0.9903879016637802,3072.360154904425,test,2,,,,,,,3069.872557014227,3070.3724991455674,3070.3724991455674,3070.3724991455674,3070.8726141154766,3071.372938685119,3071.372938685119,3072.381887972355,None,0,,0.55,,,,,,,,,,,s035,001,2024-09-23_10h08.31.706,simplestop_skeleton,2022.2.2,59.66393017877301,
None,None,,,,,,,,,1,0,1,0,6,3,27,1,,,,,,,,,3072.3608660399914,go,squareblack.png,right,0.55,,,,,,,,,,,,,,,,,,0.0020410269498825073,0.484328456223011,,3074.863399796188,test,2,,,,,,,3072.381887972355,3072.8748342320323,3072.8748342320323,3072.8919583186507,3073.425377354026,3073.925784483552,3073.8757437318563,3074.884176582098,right,1,0.5719181299209595,0.55,,,,,,,,,,,s035,001,2024-09-23_10h08.31.706,simplestop_skeleton,2022.2.2,59.66393017877301,
None,None,,,,,,,,,1,0,1,0,7,0,28,1,,,,,,,,,3074.8638999685645,stop,squareblack.png,right,0.55,,,,,,,,,,,,,,,,,,0.001841723918914795,0.4862291291356087,1.0369735062122345,3077.364348910749,test,2,,,,,,,3074.884176582098,3075.377364434302,3075.377364434302,3075.394031815231,3075.9279979765415,3076.4311987012625,3076.3785275146365,3077.38241943717,right,1,0.6784220710396767,0.5,,,,,,,,,,,s035,001,2024-09-23_10h08.31.706,simplestop_skeleton,2022.2.2,59.66393017877301,
None,None,,,,,,,,,1,0,1,0,7,1,29,3,,,,,,,,,3077.3648158833385,go,circleblack.png,left,0.5,,,,,,,,,,,,,,,,,,0.0018628612160682678,0.48862532526254654,,3079.8668959513307,test,2,,,,,,,3077.38241943717,3077.880198419094,3077.880198419094,3077.8969856873155,3078.3815047591925,3078.8814778253436,3078.8814778253436,3079.884120233357,left,1,0.45364687591791153,0.5,,,,,,,,,,,s035,001,2024-09-23_10h08.31.706,simplestop_skeleton,2022.2.2,59.66393017877301,
None,None,,,,,,,,,1,0,1,0,7,2,30,3,,,,,,,,,3079.8673277944326,go,squareblack.png,right,0.5,,,,,,,,,,,,,,,,,,0.0017148926854133606,0.4896812438964844,,3082.369941316545,test,2,,,,,,,3079.884120233357,3080.382964529097,3080.382964529097,3080.402096286416,3080.885428212583,3081.4008714184165,3081.3843006566167,3082.387184225023,right,1,0.8411891460418701,0.5,,,,,,,,,,,s035,001,2024-09-23_10h08.31.706,simplestop_skeleton,2022.2.2,59.66393017877301,
$currentCorrectResponse,$currentGoStim,,,,,,,,,1,0,1,0,7,3,31,0,,,,,,,,,3082.3703642711043,stop,circleblack.png,left,0.5,,,,,,,,,,,,,,,,,,0.0018029287457466125,0.4914189651608467,0.9903723448514938,3084.874348014593,test,2,,,,,,,3082.387184225023,3082.887583516538,3082.887583516538,3082.887583516538,3083.386566631496,3083.8866686969995,3083.8866686969995,3084.894830055535,None,0,,0.55,,,,,,,,,,,s035,001,2024-09-23_10h08.31.706,simplestop_skeleton,2022.2.2,59.66393017877301,
$currentCorrectResponse,$currentGoStim,,,,,,,,,1,0,1,0,8,0,32,0,,,,,,,,,3084.8747959062457,go,circleblack.png,left,0.55,,,,,,,,,,,,,,,,,,0.002209179103374481,0.48919523507356644,,3087.3755687847733,test,2,,,,,,,3084.894830055535,3085.388700544834,3085.388700544834,3085.4054207727313,3085.9390685483813,3086.439620874822,3086.3895378112793,3087.3937599137425,left,1,0.4424631968140602,0.55,,,,,,,,,,,s035,001,2024-09-23_10h08.31.706,simplestop_skeleton,2022.2.2,59.66393017877301,
$currentCorrectResponse,$currentGoStim,,,,,,,,,1,0,1,0,8,1,33,0,,,,,,,,,3087.376048050821,go,squareblack.png,right,0.55,,,,,,,,,,,,,,,,,,0.0017525330185890198,0.4889790713787079,,3089.877875007689,test,2,,,,,,,3087.3937599137425,3087.891391567886,3087.891391567886,3087.907933726907,3088.441841341555,3088.9425279721618,3088.8926143571734,3089.8946509733796,right,1,0.47591762989759445,0.55,,,,,,,,,,,s035,001,2024-09-23_10h08.31.706,simplestop_skeleton,2022.2.2,59.66393017877301,
None,None,,,,,,,,,1,0,1,0,8,2,34,1,,,,,,,,,3089.8783265650272,go,squareblack.png,right,0.55,,,,,,,,,,,,,,,,,,0.0011585280299186707,0.49007242918014526,,3092.3806849196553,test,2,,,,,,,3089.8946509733796,3090.3940115347505,3090.3940115347505,3090.3940115347505,3090.946302011609,3091.461962737143,3091.3953170254827,3092.3979348018765,right,1,0.6531802713871002,0.55,,,,,,,,,,,s035,001,2024-09-23_10h08.31.706,simplestop_skeleton,2022.2.2,59.66393017877301,
None,None,,,,,,,,,1,0,1,0,8,3,35,2,,,,,,,,,3092.381115436554,go,circleblack.png,left,0.55,,,,,,,,,,,,,,,,,,0.0018968954682350159,0.49042175710201263,,3094.8841122835875,test,2,,,,,,,3092.3979348018765,3092.8980087265372,3092.8980087265372,3092.8980087265372,3093.4476312845945,3093.9478162825108,3093.8977378234267,3094.902110092342,left,1,0.5918437913060188,0.55,,,,,,,,,,,s035,001,2024-09-23_10h08.31.706,simplestop_skeleton,2022.2.2,59.66393017877301,
None,None,,,,,,,,,1,0,1,0,9,0,36,1,,,,,,,,,3094.884542822838,stop,squareblack.png,right,0.55,,,,,,,,,,,,,,,,,,0.0016809329390525818,0.4890287294983864,1.0394864678382874,3097.3865765035152,test,2,,,,,,,3094.902110092342,3095.399735212326,3095.399735212326,3095.4164215549827,3095.950002297759,3096.4505622163415,3096.40061827749,3097.4041503444314,right,1,0.6557849943637848,0.5,,,,,,,,,,,s035,001,2024-09-23_10h08.31.706,simplestop_skeleton,2022.2.2,59.66393017877301,
None,None,,,,,,,,,1,0,1,0,9,1,37,1,,,,,,,,,3097.387015670538,go,squareblack.png,right,0.5,,,,,,,,,,,,,,,,,,0.0012684613466262817,0.4889243096113205,,3099.8888643309474,test,2,,,,,,,3097.4041503444314,3097.902149349451,3097.902149349451,3097.918871872127,3098.4028090015054,3098.9033292084932,3098.9033292084932,3099.9056943282485,None,0,,0.5,,,,,,,,,,,s035,001,2024-09-23_10h08.31.706,simplestop_skeleton,2022.2.2,59.66393017877301,
None,None,,,,,,,,,1,0,1,0,9,2,38,1,,,,,,,,,3099.889310374856,go,squareblack.png,right,0.5,,,,,,,,,,,,,,,,,,0.0011830255389213562,0.48973414301872253,,3102.391650490463,test,2,,,,,,,3099.9056943282485,3100.405010148883,3100.405010148883,3100.405010148883,3100.90649048239,3101.4062352776527,3101.4062352776527,3102.409187436104,right,1,0.48747991770505905,0.5,,,,,,,,,,,s035,001,2024-09-23_10h08.31.706,simplestop_skeleton,2022.2.2,59.66393017877301,
$currentCorrectResponse,$currentGoStim,,,,,,,,,1,0,1,0,9,3,39,0,,,,,,,,,3102.3920813649893,go,circleblack.png,left,0.5,,,,,,,,,,,,,,,,,,0.0018665269017219543,0.49198880791664124,,3104.8944818452,test,2,,,,,,,3102.409187436104,3102.908695921302,3102.908695921302,3102.908695921302,3103.4084958806634,3103.908855602145,3103.908855602145,3104.9120015352964,left,1,0.39473817497491837,0.5,,,,,,,,,,,s035,001,2024-09-23_10h08.31.706,simplestop_skeleton,2022.2.2,59.66393017877301,
None,None,,,,,,,,,1,0,1,0,10,0,40,2,,,,,,,,,3104.8949083015323,stop,circleblack.png,left,0.5,,,,,,,,,,,,,,,,,,0.001238025724887848,0.4909604862332344,0.9898235499858856,3107.399352543056,test,2,,,,,,,3104.9120015352964,3105.4124296978116,3105.4124296978116,3105.4124296978116,3105.911350309849,3106.411589741707,3106.4283829554915,3107.4200341925025,left,1,0.41832271218299866,0.45,,,,,,,,,,,s035,001,2024-09-23_10h08.31.706,simplestop_skeleton,2022.2.2,59.66393017877301,
None,None,,,,,,,,,1,0,1,0,10,1,41,1,,,,,,,,,3107.3998294472694,go,squareblack.png,right,0.45,,,,,,,,,,,,,,,,,,0.002351433038711548,0.48687727004289627,,3109.9002980813384,test,2,,,,,,,3107.4200341925025,3107.913518153131,3107.913518153131,3107.9300945550203,3108.36370562762,3108.864365838468,3108.9143162220716,3109.9181315004826,right,1,0.6936405748128891,0.45,,,,,,,,,,,s035,001,2024-09-23_10h08.31.706,simplestop_skeleton,2022.2.2,59.66393017877301,
None,None,,,,,,,,,1,0,1,0,10,2,42,3,,,,,,,,,3109.9007465317845,go,circleblack.png,left,0.45,,,,,,,,,,,,,,,,,,0.001794561743736267,0.4890403151512146,,3112.4027422741055,test,2,,,,,,,3109.9181315004826,3110.4160740822554,3110.4160740822554,3110.4326478391886,3110.866429179907,3111.3671630471945,3111.417290478945,3112.420544922352,left,1,0.39112358540296555,0.45,,,,,,,,,,,s035,001,2024-09-23_10h08.31.706,simplestop_skeleton,2022.2.2,59.66393017877301,
$currentCorrectResponse,$currentGoStim,,,,,,,,,1,0,1,0,10,3,43,0,,,,,,,,,3112.4032061621547,go,circleblack.png,left,0.45,,,,,,,,,,,,,,,,,,0.0012407824397087097,0.4888593405485153,,3114.9055470749736,test,2,,,,,,,3112.420544922352,3112.918807812035,3112.918807812035,3112.9357507005334,3113.3706321641803,3113.870121575892,3113.9200414419174,3114.924135811627,left,1,0.3867381662130356,0.45,,,,,,,,,,,s035,001,2024-09-23_10h08.31.706,simplestop_skeleton,2022.2.2,59.66393017877301,
None,None,,,,,,,,,1,0,1,0,11,0,44,3,,,,,,,,,3114.9059784710407,stop,squareblack.png,right,0.45,,,,,,,,,,,,,,,,,,0.0016287118196487427,0.4899771809577942,0.9395458996295929,3117.4095388799906,test,2,,,,,,,3114.924135811627,3115.422795444727,3115.422795444727,3115.439888484776,3115.872219130397,3116.3725490272045,3116.4227794259787,3117.4265106916428,left,0,0.2965777814388275,0.4,,,,,,,,,,,s035,001,2024-09-23_10h08.31.706,simplestop_skeleton,2022.2.2,59.66393017877301,
None,None,,,,,,,,,1,0,1,0,11,1,45,2,,,,,,,,,3117.409989759326,go,squareblack.png,right,0.4,,,,,,,,,,,,,,,,,,0.0012993812561035156,0.4886297881603241,,3119.9112968742847,test,2,,,,,,,3117.4265106916428,3117.9245611056685,3117.9245611056685,3117.9412128403783,3118.32485845685,3118.8252468407154,3118.9253893122077,3119.9296193420887,right,1,0.6389693543314934,0.4,,,,,,,,,,,s035,001,2024-09-23_10h08.31.706,simplestop_skeleton,2022.2.2,59.66393017877301,
None,None,,,,,,,,,1,0,1,0,11,2,46,2,,,,,,,,,3119.9117427542806,go,circleblack.png,left,0.4,,,,,,,,,,,,,,,,,,0.0019012391567230225,0.4890798404812813,,3122.414134077728,test,2,,,,,,,3119.9296193420887,3120.4271146431565,3120.4271146431565,3120.443714223802,3120.827543117106,3121.3280986472964,3121.4291373565793,3122.4309394806623,left,1,0.4431536793708801,0.4,,,,,,,,,,,s035,001,2024-09-23_10h08.31.706,simplestop_skeleton,2022.2.2,59.66393017877301,
None,None,,,,,,,,,1,0,1,0,11,3,47,3,,,,,,,,,3122.4145708829165,stop,circleblack.png,left,0.4,,,,,,,,,,,,,,,,,,0.0012257471680641174,0.4894608035683632,0.8901776447892189,3124.9168271794915,test,2,,,,,,,3122.4309394806623,3122.929810754955,3122.929810754955,3122.9464993849397,3123.3306485190988,3123.830988049507,3123.9310932829976,3124.937178477645,left,1,0.3464099019765854,0.35,,,,,,,,,,,s035,001,2024-09-23_10h08.31.706,simplestop_skeleton,2022.2.2,59.66393017877301,
,,,,,,,,,,1,0,1,0,,,,,,,,,,,,,,,,,,,,,,,,,,,,,,,,,,,,,,,,,,,,,,,,,,,,,,,,,,,3124.937178477645,3124.937178477645,return,1.791618324816227,"[{'fileName': 'squareblack.png', 'correct_response': 'right', 'condition': 'go'}, {'fileName': 'squareblack.png', 'correct_response': 'right', 'condition': 'stop'}, {'fileName': 'squareblack.png', 'correct_response': 'right', 'condition': 'go'}, {'fileName': 'circleblack.png', 'correct_response': 'left', 'condition': 'go'}, {'fileName': 'circleblack.png', 'correct_response': 'left', 'condition': 'stop'}, {'fileName': 'squareblack.png', 'correct_response': 'right', 'condition': 'go'}, {'fileName': 'squareblack.png', 'correct_response': 'right', 'condition': 'go'}, {'fileName': 'circleblack.png', 'correct_response': 'left', 'condition': 'go'}, {'fileName': 'squareblack.png', 'correct_response': 'right', 'condition': 'stop'}, {'fileName': 'circleblack.png', 'correct_response': 'left', 'condition': 'go'}, {'fileName': 'circleblack.png', 'correct_response': 'left', 'condition': 'stop'}, {'fileName': 'circleblack.png', 'correct_response': 'left', 'condition': 'go'}, {'fileName': 'circleblack.png', 'correct_response': 'left', 'condition': 'go'}, {'fileName': 'squareblack.png', 'correct_response': 'right', 'condition': 'go'}, {'fileName': 'circleblack.png', 'correct_response': 'left', 'condition': 'stop'}, {'fileName': 'squareblack.png', 'correct_response': 'right', 'condition': 'go'}, {'fileName': 'circleblack.png', 'correct_response': 'left', 'condition': 'go'}, {'fileName': 'squareblack.png', 'correct_response': 'right', 'condition': 'stop'}, {'fileName': 'squareblack.png', 'correct_response': 'right', 'condition': 'stop'}, {'fileName': 'squareblack.png', 'correct_response': 'right', 'condition': 'go'}, {'fileName': 'circleblack.png', 'correct_response': 'left', 'condition': 'go'}, {'fileName': 'squareblack.png', 'correct_response': 'right', 'condition': 'go'}, {'fileName': 'circleblack.png', 'correct_response': 'left', 'condition': 'stop'}, {'fileName': 'circleblack.png', 'correct_response': 'left', 'condition': 'go'}, {'fileName': 'circleblack.png', 'correct_response': 'left', 'condition': 'stop'}, {'fileName': 'squareblack.png', 'correct_response': 'right', 'condition': 'stop'}, {'fileName': 'circleblack.png', 'correct_response': 'left', 'condition': 'go'}, {'fileName': 'squareblack.png', 'correct_response': 'right', 'condition': 'go'}, {'fileName': 'circleblack.png', 'correct_response': 'left', 'condition': 'stop'}, {'fileName': 'squareblack.png', 'correct_response': 'right', 'condition': 'go'}, {'fileName': 'squareblack.png', 'correct_response': 'right', 'condition': 'go'}, {'fileName': 'circleblack.png', 'correct_response': 'left', 'condition': 'go'}, {'fileName': 'squareblack.png', 'correct_response': 'right', 'condition': 'stop'}, {'fileName': 'circleblack.png', 'correct_response': 'left', 'condition': 'go'}, {'fileName': 'squareblack.png', 'correct_response': 'right', 'condition': 'go'}, {'fileName': 'circleblack.png', 'correct_response': 'left', 'condition': 'go'}, {'fileName': 'squareblack.png', 'correct_response': 'right', 'condition': 'go'}, {'fileName': 'squareblack.png', 'correct_response': 'right', 'condition': 'stop'}, {'fileName': 'squareblack.png', 'correct_response': 'right', 'condition': 'go'}, {'fileName': 'circleblack.png', 'correct_response': 'left', 'condition': 'stop'}, {'fileName': 'circleblack.png', 'correct_response': 'left', 'condition': 'go'}, {'fileName': 'circleblack.png', 'correct_response': 'left', 'condition': 'go'}, {'fileName': 'squareblack.png', 'correct_response': 'right', 'condition': 'go'}, {'fileName': 'squareblack.png', 'correct_response': 'right', 'condition': 'go'}, {'fileName': 'circleblack.png', 'correct_response': 'left', 'condition': 'go'}, {'fileName': 'circleblack.png', 'correct_response': 'left', 'condition': 'go'}, {'fileName': 'circleblack.png', 'correct_response': 'left', 'condition': 'stop'}, {'fileName': 'squareblack.png', 'correct_response': 'right', 'condition': 'stop'}]",,,,,,s035,001,2024-09-23_10h08.31.706,simplestop_skeleton,2022.2.2,59.66393017877301,
$currentCorrectResponse,$currentGoStim,,,,,,,,,2,0,2,0,0,0,0,0,,,,,,,,,3126.7600374743342,go,squareblack.png,right,0.35,,,,,,,,,,,,,,,,,,0.0018009990453720093,0.49886947125196457,,3129.2714510709047,test,3,,,,,,,3126.778013020754,3127.284956663847,3127.284956663847,3127.284956663847,3127.6192900016904,3128.1190132424235,3128.285880431533,3129.290054857731,None,0,,0.35,,,,,,,,,,,s035,001,2024-09-23_10h08.31.706,simplestop_skeleton,2022.2.2,59.66393017877301,
$currentCorrectResponse,$currentGoStim,,,,,,,,,2,0,2,0,0,1,1,0,,,,,,,,,3129.272004008293,stop,squareblack.png,right,0.35,,,,,,,,,,,,,,,,,,0.00125044584274292,0.4886021390557289,0.8388721123337746,3131.775447048247,test,3,,,,,,,3129.290054857731,3129.7880548238754,3129.7880548238754,3129.804796665907,3130.1383276581764,3130.6382888182998,3130.788491278887,3131.7928783744574,right,1,0.5039959400892258,0.3,,,,,,,,,,,s035,001,2024-09-23_10h08.31.706,simplestop_skeleton,2022.2.2,59.66393017877301,
None,None,,,,,,,,,2,0,2,0,0,2,2,3,,,,,,,,,3131.775878198445,go,squareblack.png,right,0.3,,,,,,,,,,,,,,,,,,0.0013248920440673828,0.4899391755461693,,3134.277319326997,test,3,,,,,,,3131.7928783744574,3132.2901411801577,3132.2901411801577,3132.3070730268955,3132.5907128825784,3133.0910612419248,3133.291184730828,3134.3002634719014,right,1,0.4829135537147522,0.3,,,,,,,,,,,s035,001,2024-09-23_10h08.31.706,simplestop_skeleton,2022.2.2,59.66393017877301,
None,None,,,,,,,,,2,0,2,0,0,3,3,2,,,,,,,,,3134.277792684734,go,circleblack.png,left,0.3,,,,,,,,,,,,,,,,,,0.00748143345117569,0.4891938418149948,,3136.7800256982446,test,3,,,,,,,3134.3002634719014,3134.792871005833,3134.792871005833,3134.809694968164,3135.0935247018933,3135.594011388719,3135.79464892298,3136.7976793423295,left,1,0.545882411301136,0.3,,,,,,,,,,,s035,001,2024-09-23_10h08.31.706,simplestop_skeleton,2022.2.2,59.66393017877301,
None,None,,,,,,,,,2,0,2,0,1,0,4,3,,,,,,,,,3136.7804863080382,stop,circleblack.png,left,0.3,,,,,,,,,,,,,,,,,,0.001354217529296875,0.4887973889708519,0.7891509458422661,3139.282349191606,test,3,,,,,,,3136.7976793423295,3137.2956694066525,3137.2956694066525,3137.3123833090067,3137.596048824489,3138.0966722518206,3138.2969835698605,3139.313555523753,None,0,,0.35,,,,,,,,,,,s035,001,2024-09-23_10h08.31.706,simplestop_skeleton,2022.2.2,59.66393017877301,
None,None,,,,,,,,,2,0,2,0,1,1,5,3,,,,,,,,,3139.2827817350626,go,squareblack.png,right,0.35,,,,,,,,,,,,,,,,,,0.00167141854763031,0.4899693727493286,,3141.7852659523487,test,3,,,,,,,3139.313555523753,3139.798390634358,3139.798390634358,3139.815140031278,3140.1501301154494,3140.651224285364,3140.7996850013733,3141.8020858466625,right,1,0.46637561172246933,0.35,,,,,,,,,,,s035,001,2024-09-23_10h08.31.706,simplestop_skeleton,2022.2.2,59.66393017877301,
None,None,,,,,,,,,2,0,2,0,1,2,6,2,,,,,,,,,3141.7857015430927,go,squareblack.png,right,0.35,,,,,,,,,,,,,,,,,,0.0011995583772659302,0.490670844912529,,3144.289551399648,test,3,,,,,,,3141.8020858466625,3142.303078249097,3142.303078249097,3142.303078249097,3142.651864156127,3143.152354210615,3143.302319198847,3144.312311515212,right,1,0.5714577212929726,0.35,,,,,,,,,,,s035,001,2024-09-23_10h08.31.706,simplestop_skeleton,2022.2.2,59.66393017877301,
$currentCorrectResponse,$currentGoStim,,,,,,,,,2,0,2,0,1,3,7,0,,,,,,,,,3144.2902566865087,go,circleblack.png,left,0.35,,,,,,,,,,,,,,,,,,0.0024861618876457214,0.484035924077034,,3146.790900103748,test,3,,,,,,,3144.312311515212,3144.8041696324944,3144.8041696324944,3144.821007825434,3145.1544326022267,3145.6550390273333,3145.8050971776247,3146.808872446418,left,1,0.5516393557190895,0.35,,,,,,,,,,,s035,001,2024-09-23_10h08.31.706,simplestop_skeleton,2022.2.2,59.66393017877301,
None,None,,,,,,,,,2,0,2,0,2,0,8,3,,,,,,,,,3146.791337929666,stop,squareblack.png,right,0.35,,,,,,,,,,,,,,,,,,0.001665368676185608,0.48920921236276627,0.839453861117363,3149.2938677817583,test,3,,,,,,,3146.808872446418,3147.3070437312126,3147.3070437312126,3147.323435485363,3147.6571495831013,3148.157829120755,3148.3078888729215,3149.3123725503683,right,1,0.4554133340716362,0.3,,,,,,,,,,,s035,001,2024-09-23_10h08.31.706,simplestop_skeleton,2022.2.2,59.66393017877301,
None,None,,,,,,,,,2,0,2,0,2,1,9,1,,,,,,,,,3149.294327765703,go,circleblack.png,left,0.3,,,,,,,,,,,,,,,,,,0.00183858722448349,0.4884560853242874,,3151.7962338477373,test,3,,,,,,,3149.3123725503683,3149.8094702735543,3149.8094702735543,3149.826164700091,3150.1099606007338,3150.610824689269,3150.810687072575,3151.8129703700542,left,1,0.4721858352422714,0.3,,,,,,,,,,,s035,001,2024-09-23_10h08.31.706,simplestop_skeleton,2022.2.2,59.66393017877301,
$currentCorrectResponse,$currentGoStim,,,,,,,,,2,0,2,0,2,2,10,0,,,,,,,,,3151.7966787964106,stop,circleblack.png,left,0.3,,,,,,,,,,,,,,,,,,0.0012333318591117859,0.4902331605553627,0.7911660447716713,3154.2989769652486,test,3,,,,,,,3151.8129703700542,3152.3124128505588,3152.3124128505588,3152.3124128505588,3152.613393060863,3153.113484494388,3153.3135355487466,3154.315612949431,None,0,,0.35,,,,,,,,,,,s035,001,2024-09-23_10h08.31.706,simplestop_skeleton,2022.2.2,59.66393017877301,
None,None,,,,,,,,,2,0,2,0,2,3,11,2,,,,,,,,,3154.2994277104735,go,circleblack.png,left,0.35,,,,,,,,,,,,,,,,,,0.0012348294258117676,0.49069368839263916,,3156.8024234995246,test,3,,,,,,,3154.315612949431,3154.816384419799,3154.816384419799,3154.816384419799,3155.165881574154,3155.665940389037,3155.8161077052355,3156.8203683793545,left,1,0.5128477215766907,0.35,,,,,,,,,,,s035,001,2024-09-23_10h08.31.706,simplestop_skeleton,2022.2.2,59.66393017877301,
$currentCorrectResponse,$currentGoStim,,,,,,,,,2,0,2,0,3,0,12,0,,,,,,,,,3156.8028527647257,go,circleblack.png,left,0.35,,,,,,,,,,,,,,,,,,0.0013243407011032104,0.48879871517419815,,3159.3068683072925,test,3,,,,,,,3156.8203683793545,3157.317935489118,3157.317935489118,3157.334685742855,3157.66854159534,3158.1689655706286,3158.318824350834,3159.333801589906,left,1,0.6674807518720627,0.35,,,,,,,,,,,s035,001,2024-09-23_10h08.31.706,simplestop_skeleton,2022.2.2,59.66393017877301,
None,None,,,,,,,,,2,0,2,0,3,1,13,1,,,,,,,,,3159.3073255494237,go,squareblack.png,right,0.35,,,,,,,,,,,,,,,,,,0.007905654609203339,0.4860502853989601,,3161.8074741363525,test,3,,,,,,,3159.333801589906,3159.82075509429,3159.82075509429,3159.837454803288,3160.1711365133524,3160.6714945733547,3160.82175911963,3161.825725339353,right,1,0.5930674150586128,0.35,,,,,,,,,,,s035,001,2024-09-23_10h08.31.706,simplestop_skeleton,2022.2.2,59.66393017877301,
$currentCorrectResponse,$currentGoStim,,,,,,,,,2,0,2,0,3,2,14,0,,,,,,,,,3161.80791323632,stop,circleblack.png,left,0.35,,,,,,,,,,,,,,,,,,0.0019274130463600159,0.4891717657446861,0.8395033478736877,3164.3103519529104,test,3,,,,,,,3161.825725339353,3162.3232191577554,3162.3232191577554,3162.3400263488293,3162.6736678108573,3163.174497805536,3163.324544303119,3164.3274618685246,None,0,,0.4,,,,,,,,,,,s035,001,2024-09-23_10h08.31.706,simplestop_skeleton,2022.2.2,59.66393017877301,
None,None,,,,,,,,,2,0,2,0,3,3,15,2,,,,,,,,,3164.310794197023,go,squareblack.png,right,0.4,,,,,,,,,,,,,,,,,,0.001588292419910431,0.4893360659480095,,3166.812710545957,test,3,,,,,,,3164.3274618685246,3164.825990073383,3164.825990073383,3164.8427567631006,3165.2276429459453,3165.7272664755583,3165.827231839299,3166.830013848841,right,1,0.3998575285077095,0.4,,,,,,,,,,,s035,001,2024-09-23_10h08.31.706,simplestop_skeleton,2022.2.2,59.66393017877301,
None,None,,,,,,,,,2,0,2,0,4,0,16,2,,,,,,,,,3166.813141912222,go,circleblack.png,left,0.4,,,,,,,,,,,,,,,,,,0.001694321632385254,0.4908464401960373,,3169.3160647004843,test,3,,,,,,,3166.830013848841,3167.3300448432565,3167.3300448432565,3167.3300448432565,3167.7294313162565,3168.2297390699387,3168.329912081361,3169.334847562015,left,1,0.3327703922986984,0.4,,,,,,,,,,,s035,001,2024-09-23_10h08.31.706,simplestop_skeleton,2022.2.2,59.66393017877301,
None,None,,,,,,,,,2,0,2,0,4,1,17,3,,,,,,,,,3169.316512301564,stop,squareblack.png,right,0.4,,,,,,,,,,,,,,,,,,0.0017385929822921753,0.48830053955316544,0.8888046890497208,3171.8206106349826,test,3,,,,,,,3169.334847562015,3169.831749498844,3169.831749498844,3169.848434589803,3170.232249163091,3170.7325211390853,3170.8326915726066,3171.841645486653,right,1,0.5710152015089989,0.35,,,,,,,,,,,s035,001,2024-09-23_10h08.31.706,simplestop_skeleton,2022.2.2,59.66393017877301,
None,None,,,,,,,,,2,0,2,0,4,2,18,1,,,,,,,,,3171.8210840523243,stop,squareblack.png,right,0.35,,,,,,,,,,,,,,,,,,0.0021572113037109375,0.4862027242779732,0.8363917991518974,3174.321503482759,test,3,,,,,,,3171.841645486653,3172.3345710858703,3172.3345710858703,3172.3512055128813,3172.6847100630403,3173.1853801831603,3173.3359153419733,3174.3409579992294,None,0,,0.4,,,,,,,,,,,s035,001,2024-09-23_10h08.31.706,simplestop_skeleton,2022.2.2,59.66393017877301,
None,None,,,,,,,,,2,0,2,0,4,3,19,2,,,,,,,,,3174.3219561576843,go,squareblack.png,right,0.4,,,,,,,,,,,,,,,,,,0.0012467801570892334,0.4886207655072212,,3176.8238236382604,test,3,,,,,,,3174.3409579992294,3174.837005406618,3174.837005406618,3174.853836029768,3175.2375772744417,3175.7396766468883,3175.8391545042396,3176.847630441189,right,1,0.583539217710495,0.4,,,,,,,,,,,s035,001,2024-09-23_10h08.31.706,simplestop_skeleton,2022.2.2,59.66393017877301,
None,None,,,,,,,,,2,0,2,0,5,0,20,3,,,,,,,,,3176.824257776141,go,circleblack.png,left,0.4,,,,,,,,,,,,,,,,,,0.007928825914859772,0.48872147500514984,,3179.326742231846,test,3,,,,,,,3176.847630441189,3177.3399343267083,3177.3399343267083,3177.3565260097384,3177.74157653749,3178.241081058979,3178.341296635568,3179.343832075596,left,1,0.39665186405181885,0.4,,,,,,,,,,,s035,001,2024-09-23_10h08.31.706,simplestop_skeleton,2022.2.2,59.66393017877301,
None,None,,,,,,,,,2,0,2,0,5,1,21,2,,,,,,,,,3179.3271891847253,go,squareblack.png,right,0.4,,,,,,,,,,,,,,,,,,0.001599438488483429,0.48955171555280685,,3181.8293718248606,test,3,,,,,,,3179.343832075596,3179.8425961732864,3179.8425961732864,3179.859335668385,3180.2449579313397,3180.7604169622064,3180.8440412655473,3181.847266830504,right,1,0.5637384504079819,0.4,,,,,,,,,,,s035,001,2024-09-23_10h08.31.706,simplestop_skeleton,2022.2.2,59.66393017877301,
None,None,,,,,,,,,2,0,2,0,5,2,22,3,,,,,,,,,3181.8298078626394,stop,circleblack.png,left,0.4,,,,,,,,,,,,,,,,,,0.0017339512705802917,0.4909198582172394,0.890177458524704,3184.333293609321,test,3,,,,,,,3181.847266830504,3182.3464618325233,3182.3464618325233,3182.3464618325233,3182.745998136699,3183.2462769672275,3183.346399374306,3184.351281389594,left,1,0.5499823912978172,0.35,,,,,,,,,,,s035,001,2024-09-23_10h08.31.706,simplestop_skeleton,2022.2.2,59.66393017877301,
None,None,,,,,,,,,2,0,2,0,5,3,23,1,,,,,,,,,3184.3337270990014,go,circleblack.png,left,0.35,,,,,,,,,,,,,,,,,,0.001550145447254181,0.4878038465976715,,3186.8368351757526,test,3,,,,,,,3184.351281389594,3184.8483213707805,3184.8483213707805,3184.8650666475296,3185.199089810252,3185.6990336179733,3185.8491878435016,3186.8570159375668,left,1,0.4073951840400696,0.35,,,,,,,,,,,s035,001,2024-09-23_10h08.31.706,simplestop_skeleton,2022.2.2,59.66393017877301,
None,None,,,,,,,,,2,0,2,0,6,0,24,2,,,,,,,,,3186.837289251387,stop,circleblack.png,left,0.35,,,,,,,,,,,,,,,,,,0.0021621882915496826,0.48682259023189545,0.8371250033378601,3189.338039726019,test,3,,,,,,,3186.8570159375668,3187.350991256535,3187.350991256535,3187.3676149100065,3187.701399408281,3188.2020075544715,3188.3520063757896,3189.360509671271,left,1,0.3949245288968086,0.3,,,,,,,,,,,s035,001,2024-09-23_10h08.31.706,simplestop_skeleton,2022.2.2,59.66393017877301,
None,None,,,,,,,,,2,0,2,0,6,1,25,3,,,,,,,,,3189.338479526341,stop,squareblack.png,right,0.3,,,,,,,,,,,,,,,,,,0.00703980028629303,0.4888155907392502,0.7891058251261711,3191.84059420228,test,3,,,,,,,3189.360509671271,3189.8537484556437,3189.8537484556437,3189.8703729882836,3190.153979472816,3190.6550953239202,3190.8549313619733,3191.8576045036316,right,1,0.4200541526079178,0.25,,,,,,,,,,,s035,001,2024-09-23_10h08.31.706,simplestop_skeleton,2022.2.2,59.66393017877301,
None,None,,,,,,,,,2,0,2,0,6,2,26,1,,,,,,,,,3191.841031163931,go,circleblack.png,left,0.25,,,,,,,,,,,,,,,,,,0.0017186328768730164,0.4902287572622299,,3194.3432673066854,test,3,,,,,,,3191.8576045036316,3192.3586700856686,3192.3586700856686,3192.3586700856686,3192.607477195561,3193.10745729506,3193.374341532588,3194.3604427203536,left,1,0.4420683979988098,0.25,,,,,,,,,,,s035,001,2024-09-23_10h08.31.706,simplestop_skeleton,2022.2.2,59.66393017877301,
None,None,,,,,,,,,2,0,2,0,6,3,27,3,,,,,,,,,3194.3437137901783,go,squareblack.png,right,0.25,,,,,,,,,,,,,,,,,,0.0015861615538597107,0.490605965256691,,3196.84588432312,test,3,,,,,,,3194.3604427203536,3194.8600067049265,3194.8600067049265,3194.8600067049265,3195.111274175346,3195.6269908323884,3195.860164783895,3196.8632864654064,right,1,0.5281776711344719,0.25,,,,,,,,,,,s035,001,2024-09-23_10h08.31.706,simplestop_skeleton,2022.2.2,59.66393017877301,
None,None,,,,,,,,,2,0,2,0,7,0,28,1,,,,,,,,,3196.846310019493,stop,circleblack.png,left,0.25,,,,,,,,,,,,,,,,,,0.0017138272523880005,0.4899907112121582,0.7402794286608696,3199.350815869868,test,3,,,,,,,3196.8632864654064,3197.3621573522687,3197.3621573522687,3197.3789271712303,3197.6125095188618,3198.1127776131034,3198.363033130765,3199.371873766184,None,0,,0.3,,,,,,,,,,,s035,001,2024-09-23_10h08.31.706,simplestop_skeleton,2022.2.2,59.66393017877301,
None,None,,,,,,,,,2,0,2,0,7,1,29,1,,,,,,,,,3199.3512752577662,go,squareblack.png,right,0.3,,,,,,,,,,,,,,,,,,0.0025084316730499268,0.4869798272848129,,3201.851700745523,test,3,,,,,,,3199.371873766184,3199.8649658188224,3199.8649658188224,3199.8816295042634,3200.1655873581767,3200.6655731499195,3200.8657528683543,3201.870511241257,right,1,0.6619002744555473,0.3,,,,,,,,,,,s035,001,2024-09-23_10h08.31.706,simplestop_skeleton,2022.2.2,59.66393017877301,
None,None,,,,,,,,,2,0,2,0,7,2,30,2,,,,,,,,,3201.8521460220218,go,squareblack.png,right,0.3,,,,,,,,,,,,,,,,,,0.0014517158269882202,0.48796872794628143,,3204.354492470622,test,3,,,,,,,3201.870511241257,3202.367451310158,3202.367451310158,3202.384175732732,3202.6677919998765,3203.168277487159,3203.369244225323,3204.3725686371326,right,1,0.6319704502820969,0.3,,,,,,,,,,,s035,001,2024-09-23_10h08.31.706,simplestop_skeleton,2022.2.2,59.66393017877301,
None,None,,,,,,,,,2,0,2,0,7,3,31,3,,,,,,,,,3204.354951992631,go,circleblack.png,left,0.3,,,,,,,,,,,,,,,,,,0.0018347427248954773,0.489058181643486,,3206.8568648695946,test,3,,,,,,,3204.3725686371326,3204.870230048895,3204.870230048895,3204.8868850171566,3205.170592226088,3205.6715202331543,3205.8718099072576,3206.873892776668,left,1,0.49739309400320053,0.3,,,,,,,,,,,s035,001,2024-09-23_10h08.31.706,simplestop_skeleton,2022.2.2,59.66393017877301,
None,None,,,,,,,,,2,0,2,0,8,0,32,1,,,,,,,,,3206.8572958111763,stop,squareblack.png,right,0.3,,,,,,,,,,,,,,,,,,0.001589760184288025,0.49025557935237885,0.7911710366606712,3209.3596887364984,test,3,,,,,,,3206.873892776668,3207.3732966184616,3207.3732966184616,3207.3732966184616,3207.6746237799525,3208.174044661224,3208.374345615506,3209.3792418316007,None,0,,0.35,,,,,,,,,,,s035,001,2024-09-23_10h08.31.706,simplestop_skeleton,2022.2.2,59.66393017877301,
$currentCorrectResponse,$currentGoStim,,,,,,,,,2,0,2,0,8,1,33,0,,,,,,,,,3209.3601416274905,go,circleblack.png,left,0.35,,,,,,,,,,,,,,,,,,0.002032957971096039,0.4887087196111679,,3211.863285012543,test,3,,,,,,,3209.3792418316007,3209.877201780677,3209.877201780677,3209.894020818174,3210.2267736792564,3210.7268573865294,3210.8767440244555,3211.88085026294,left,1,0.5752532184123993,0.35,,,,,,,,,,,s035,001,2024-09-23_10h08.31.706,simplestop_skeleton,2022.2.2,59.66393017877301,
None,None,,,,,,,,,2,0,2,0,8,2,34,1,,,,,,,,,3211.86371807009,go,squareblack.png,right,0.35,,,,,,,,,,,,,,,,,,0.00174819678068161,0.4890093728899956,,3214.3673904314637,test,3,,,,,,,3211.88085026294,3212.378689803183,3212.378689803183,3212.395353473723,3212.7291408479214,3213.229568362236,3213.379513271153,3214.3884270861745,right,1,0.6310313642024994,0.35,,,,,,,,,,,s035,001,2024-09-23_10h08.31.706,simplestop_skeleton,2022.2.2,59.66393017877301,
None,None,,,,,,,,,2,0,2,0,8,3,35,3,,,,,,,,,3214.3678357973695,go,circleblack.png,left,0.35,,,,,,,,,,,,,,,,,,0.002410478889942169,0.4867902919650078,,3216.8683257624507,test,3,,,,,,,3214.3884270861745,3214.8815416023135,3214.8815416023135,3214.8983366563916,3215.231756411493,3215.732161678374,3215.8824634104967,3216.8864715844393,left,1,0.746709369122982,0.35,,,,,,,,,,,s035,001,2024-09-23_10h08.31.706,simplestop_skeleton,2022.2.2,59.66393017877301,
$currentCorrectResponse,$currentGoStim,,,,,,,,,2,0,2,0,9,0,36,0,,,,,,,,,3216.8687816485763,go,squareblack.png,right,0.35,,,,,,,,,,,,,,,,,,0.001689821481704712,0.4889005944132805,,3219.371050514281,test,3,,,,,,,3216.8864715844393,3217.383971467614,3217.383971467614,3217.400614961982,3217.7344354838133,3218.2351730018854,3218.3858451098204,3219.3886953145266,right,1,0.39388855546712875,0.35,,,,,,,,,,,s035,001,2024-09-23_10h08.31.706,simplestop_skeleton,2022.2.2,59.66393017877301,
$currentCorrectResponse,$currentGoStim,,,,,,,,,2,0,2,0,9,1,37,0,,,,,,,,,3219.371491804719,stop,squareblack.png,right,0.35,,,,,,,,,,,,,,,,,,0.0012841522693634033,0.48892834782600403,0.8393098413944244,3221.873597845435,test,3,,,,,,,3219.3886953145266,3219.886734344065,3219.886734344065,3219.903599023819,3220.2373344525695,3220.737914547324,3220.8880912065506,3221.8902195692062,right,1,0.49312838912010193,0.3,,,,,,,,,,,s035,001,2024-09-23_10h08.31.706,simplestop_skeleton,2022.2.2,59.66393017877301,
$currentCorrectResponse,$currentGoStim,,,,,,,,,2,0,2,0,9,2,38,0,,,,,,,,,3221.874026864767,go,squareblack.png,right,0.3,,,,,,,,,,,,,,,,,,0.00117512047290802,0.49003343284130096,,3224.3764275088906,test,3,,,,,,,3221.8902195692062,3222.389544427395,3222.389544427395,3222.389544427395,3222.6912422701716,3223.1905355378985,3223.3908518478274,3224.400144688785,right,1,0.6392810344696045,0.3,,,,,,,,,,,s035,001,2024-09-23_10h08.31.706,simplestop_skeleton,2022.2.2,59.66393017877301,
None,None,,,,,,,,,2,0,2,0,9,3,39,1,,,,,,,,,3224.3768654465675,stop,circleblack.png,left,0.3,,,,,,,,,,,,,,,,,,0.00820266455411911,0.49017753452062607,0.79170111566782,3226.8802243471146,test,3,,,,,,,3224.400144688785,3224.89336194098,3224.89336194098,3224.9103910401464,3225.1945610940456,3225.709964208305,3225.8934083357453,3226.8974590450525,None,0,,0.35,,,,,,,,,,,s035,001,2024-09-23_10h08.31.706,simplestop_skeleton,2022.2.2,59.66393017877301,
None,None,,,,,,,,,2,0,2,0,10,0,40,1,,,,,,,,,3226.8806752711535,go,circleblack.png,left,0.35,,,,,,,,,,,,,,,,,,0.0013909116387367249,0.48845094442367554,,3229.3838708102703,test,3,,,,,,,3226.8974590450525,3227.395315013826,3227.395315013826,3227.4119426459074,3227.7456998825073,3228.246195204556,3228.3961582928896,3229.4045233353972,left,1,0.378591813147068,0.35,,,,,,,,,,,s035,001,2024-09-23_10h08.31.706,simplestop_skeleton,2022.2.2,59.66393017877301,
$currentCorrectResponse,$currentGoStim,,,,,,,,,2,0,2,0,10,1,41,0,,,,,,,,,3229.3843219578266,go,circleblack.png,left,0.35,,,,,,,,,,,,,,,,,,0.0021396204829216003,0.48679152876138687,,3231.8849217519164,test,3,,,,,,,3229.4045233353972,3229.8980572372675,3229.8980572372675,3229.914772339165,3230.2484938427806,3230.7486712262034,3230.898905746639,3231.907807894051,left,1,0.37336762994527817,0.35,,,,,,,,,,,s035,001,2024-09-23_10h08.31.706,simplestop_skeleton,2022.2.2,59.66393017877301,
None,None,,,,,,,,,2,0,2,0,10,2,42,2,,,,,,,,,3231.885387994349,go,squareblack.png,right,0.35,,,,,,,,,,,,,,,,,,0.007374905049800873,0.4887998104095459,,3234.387352794409,test,3,,,,,,,3231.907807894051,3232.400774434209,3232.400774434209,3232.4171624854207,3232.750997312367,3233.2517540454865,3233.4025406613946,3234.4040318503976,right,1,0.6235051229596138,0.35,,,,,,,,,,,s035,001,2024-09-23_10h08.31.706,simplestop_skeleton,2022.2.2,59.66393017877301,
$currentCorrectResponse,$currentGoStim,,,,,,,,,2,0,2,0,10,3,43,0,,,,,,,,,3234.387816593051,go,squareblack.png,right,0.35,,,,,,,,,,,,,,,,,,0.0011654123663902283,0.48960744589567184,,3236.8900087699294,test,3,,,,,,,3234.4040318503976,3234.9032689630985,3234.9032689630985,3234.9032689630985,3235.2539039701223,3235.7544182166457,3235.9045794010162,3236.9075231403112,right,1,0.5964858382940292,0.35,,,,,,,,,,,s035,001,2024-09-23_10h08.31.706,simplestop_skeleton,2022.2.2,59.66393017877301,
None,None,,,,,,,,,2,0,2,0,11,0,44,1,,,,,,,,,3236.890468366444,go,circleblack.png,left,0.35,,,,,,,,,,,,,,,,,,0.0018105730414390564,0.490045502781868,,3239.392767429352,test,3,,,,,,,3236.9075231403112,3237.4064546450973,3237.4064546450973,3237.4231311678886,3237.757542833686,3238.257382430136,3238.4074939116836,3239.4095862954855,left,1,0.4017969220876694,0.35,,,,,,,,,,,s035,001,2024-09-23_10h08.31.706,simplestop_skeleton,2022.2.2,59.66393017877301,
None,None,,,,,,,,,2,0,2,0,11,1,45,3,,,,,,,,,3239.393200881779,go,circleblack.png,left,0.35,,,,,,,,,,,,,,,,,,0.0012546852231025696,0.49033913016319275,,3241.895576417446,test,3,,,,,,,3239.4095862954855,3239.909941829741,3239.909941829741,3239.909941829741,3240.261407211423,3240.7767662629485,3240.9099711328745,3241.9125471934676,left,1,0.39451397955417633,0.35,,,,,,,,,,,s035,001,2024-09-23_10h08.31.706,simplestop_skeleton,2022.2.2,59.66393017877301,
None,None,,,,,,,,,2,0,2,0,11,2,46,2,,,,,,,,,3241.8960214704275,stop,circleblack.png,left,0.35,,,,,,,,,,,,,,,,,,0.0012399256229400635,0.4914320632815361,0.8401721492409706,3244.4004908278584,test,3,,,,,,,3241.9125471934676,3242.413426503539,3242.413426503539,3242.413426503539,3242.762233965099,3243.2626499459147,3243.4126939326525,3244.4261659681797,left,1,0.373097188770771,0.3,,,,,,,,,,,s035,001,2024-09-23_10h08.31.706,simplestop_skeleton,2022.2.2,59.66393017877301,
None,None,,,,,,,,,2,0,2,0,11,3,47,2,,,,,,,,,3244.400934651494,stop,squareblack.png,right,0.3,,,,,,,,,,,,,,,,,,0.007187701761722565,0.48678863048553467,0.7871663123369217,3246.901694819331,test,3,,,,,,,3244.4261659681797,3244.9144974425435,3244.9144974425435,3244.931316740811,3245.214788235724,3245.7153302133083,3245.9154481887817,3246.923005141318,right,1,0.45129209756851196,0.25,,,,,,,,,,,s035,001,2024-09-23_10h08.31.706,simplestop_skeleton,2022.2.2,59.66393017877301,
