corrGoResp,shape,practiceBlocks.thisRepN,practiceBlocks.thisTrialN,practiceBlocks.thisN,practiceBlocks.thisIndex,practiceTrials.thisRepN,practiceTrials.thisTrialN,practiceTrials.thisN,practiceTrials.thisIndex,stopBlocks.thisRepN,stopBlocks.thisTrialN,stopBlocks.thisN,stopBlocks.thisIndex,testTrials.thisRepN,testTrials.thisTrialN,testTrials.thisN,testTrials.thisIndex,stopPracTrialList,Test Block: 1,welcome.started,start_exp.started,start_exp.keys,start_exp.rt,instrStopText.started,start_prac.started,StartTrialTimeStamp,trialType,goStim,correctResponse,ssd,fixation.started,rules.started,goStim.started,goResp.started,fixation.stopped,stopSignal.started,stopSignal.stopped,goStim.stopped,goResp.stopped,rules.stopped,goResp.keys,goResp.corr,goResp.rt,text.started,rules_2.started,text.stopped,rules_2.stopped,fixationOnset,goStimOnset,stopSignalOnset,EndTrialTimeStamp,Phase,Block,text_5.started,key_resp_3.started,key_resp_3.keys,key_resp_3.rt,key_resp.started,testText.started,test_fixation.started,goStim_test.started,goResp_test.started,test_fixation.stopped,stopSignal_test.started,goStim_test.stopped,stopSignal_test.stopped,goResp_test.stopped,goResp_test.keys,goResp_test.corr,goResp_test.rt,EndingSSD,text_6.started,key_resp_4.started,key_resp_4.keys,key_resp_4.rt,Test Block: 2,Test Block: 3,ending_text.started,end_resp.started,end_resp.keys,end_resp.rt,participant,session,date,expName,psychopyVersion,frameRate,
,,,,,,,,,,,,,,,,,,"[{'fileName': 'squareblack.png', 'correct_response': 'right', 'condition': 'go'}, {'fileName': 'circleblack.png', 'correct_response': 'left', 'condition': 'stop'}, {'fileName': 'circleblack.png', 'correct_response': 'left', 'condition': 'stop'}, {'fileName': 'circleblack.png', 'correct_response': 'left', 'condition': 'go'}, {'fileName': 'squareblack.png', 'correct_response': 'right', 'condition': 'go'}, {'fileName': 'squareblack.png', 'correct_response': 'right', 'condition': 'stop'}, {'fileName': 'circleblack.png', 'correct_response': 'left', 'condition': 'go'}, {'fileName': 'circleblack.png', 'correct_response': 'left', 'condition': 'go'}, {'fileName': 'squareblack.png', 'correct_response': 'right', 'condition': 'go'}, {'fileName': 'squareblack.png', 'correct_response': 'right', 'condition': 'go'}, {'fileName': 'squareblack.png', 'correct_response': 'right', 'condition': 'stop'}, {'fileName': 'circleblack.png', 'correct_response': 'left', 'condition': 'go'}, {'fileName': 'circleblack.png', 'correct_response': 'left', 'condition': 'go'}, {'fileName': 'squareblack.png', 'correct_response': 'right', 'condition': 'stop'}, {'fileName': 'squareblack.png', 'correct_response': 'right', 'condition': 'go'}, {'fileName': 'circleblack.png', 'correct_response': 'left', 'condition': 'go'}, {'fileName': 'circleblack.png', 'correct_response': 'left', 'condition': 'stop'}, {'fileName': 'squareblack.png', 'correct_response': 'right', 'condition': 'go'}, {'fileName': 'circleblack.png', 'correct_response': 'left', 'condition': 'stop'}, {'fileName': 'squareblack.png', 'correct_response': 'right', 'condition': 'stop'}, {'fileName': 'squareblack.png', 'correct_response': 'right', 'condition': 'go'}, {'fileName': 'circleblack.png', 'correct_response': 'left', 'condition': 'go'}, {'fileName': 'circleblack.png', 'correct_response': 'left', 'condition': 'go'}, {'fileName': 'squareblack.png', 'correct_response': 'right', 'condition': 'go'}]","[{'fileName': 'squareblack.png', 'correct_response': 'right', 'condition': 'stop'}, {'fileName': 'squareblack.png', 'correct_response': 'right', 'condition': 'go'}, {'fileName': 'circleblack.png', 'correct_response': 'left', 'condition': 'stop'}, {'fileName': 'circleblack.png', 'correct_response': 'left', 'condition': 'go'}, {'fileName': 'squareblack.png', 'correct_response': 'right', 'condition': 'go'}, {'fileName': 'squareblack.png', 'correct_response': 'right', 'condition': 'go'}, {'fileName': 'circleblack.png', 'correct_response': 'left', 'condition': 'go'}, {'fileName': 'squareblack.png', 'correct_response': 'right', 'condition': 'go'}, {'fileName': 'squareblack.png', 'correct_response': 'right', 'condition': 'stop'}, {'fileName': 'circleblack.png', 'correct_response': 'left', 'condition': 'stop'}, {'fileName': 'circleblack.png', 'correct_response': 'left', 'condition': 'go'}, {'fileName': 'circleblack.png', 'correct_response': 'left', 'condition': 'go'}, {'fileName': 'circleblack.png', 'correct_response': 'left', 'condition': 'stop'}, {'fileName': 'squareblack.png', 'correct_response': 'right', 'condition': 'stop'}, {'fileName': 'squareblack.png', 'correct_response': 'right', 'condition': 'go'}, {'fileName': 'circleblack.png', 'correct_response': 'left', 'condition': 'go'}, {'fileName': 'squareblack.png', 'correct_response': 'right', 'condition': 'stop'}, {'fileName': 'squareblack.png', 'correct_response': 'right', 'condition': 'go'}, {'fileName': 'circleblack.png', 'correct_response': 'left', 'condition': 'stop'}, {'fileName': 'circleblack.png', 'correct_response': 'left', 'condition': 'go'}, {'fileName': 'squareblack.png', 'correct_response': 'right', 'condition': 'go'}, {'fileName': 'circleblack.png', 'correct_response': 'left', 'condition': 'go'}, {'fileName': 'circleblack.png', 'correct_response': 'left', 'condition': 'go'}, {'fileName': 'squareblack.png', 'correct_response': 'right', 'condition': 'go'}, {'fileName': 'squareblack.png', 'correct_response': 'right', 'condition': 'go'}, {'fileName': 'squareblack.png', 'correct_response': 'right', 'condition': 'go'}, {'fileName': 'squareblack.png', 'correct_response': 'right', 'condition': 'stop'}, {'fileName': 'circleblack.png', 'correct_response': 'left', 'condition': 'go'}, {'fileName': 'circleblack.png', 'correct_response': 'left', 'condition': 'stop'}, {'fileName': 'circleblack.png', 'correct_response': 'left', 'condition': 'stop'}, {'fileName': 'squareblack.png', 'correct_response': 'right', 'condition': 'go'}, {'fileName': 'squareblack.png', 'correct_response': 'right', 'condition': 'stop'}, {'fileName': 'circleblack.png', 'correct_response': 'left', 'condition': 'go'}, {'fileName': 'circleblack.png', 'correct_response': 'left', 'condition': 'go'}, {'fileName': 'circleblack.png', 'correct_response': 'left', 'condition': 'go'}, {'fileName': 'squareblack.png', 'correct_response': 'right', 'condition': 'go'}, {'fileName': 'squareblack.png', 'correct_response': 'right', 'condition': 'go'}, {'fileName': 'circleblack.png', 'correct_response': 'left', 'condition': 'go'}, {'fileName': 'circleblack.png', 'correct_response': 'left', 'condition': 'stop'}, {'fileName': 'squareblack.png', 'correct_response': 'right', 'condition': 'go'}, {'fileName': 'circleblack.png', 'correct_response': 'left', 'condition': 'go'}, {'fileName': 'circleblack.png', 'correct_response': 'left', 'condition': 'go'}, {'fileName': 'squareblack.png', 'correct_response': 'right', 'condition': 'stop'}, {'fileName': 'circleblack.png', 'correct_response': 'left', 'condition': 'stop'}, {'fileName': 'squareblack.png', 'correct_response': 'right', 'condition': 'go'}, {'fileName': 'squareblack.png', 'correct_response': 'right', 'condition': 'stop'}, {'fileName': 'squareblack.png', 'correct_response': 'right', 'condition': 'go'}, {'fileName': 'circleblack.png', 'correct_response': 'left', 'condition': 'go'}]",488.6801342442632,488.6801342442632,return,6.7643375769257545,,,,,,,,,,,,,,,,,,,,,,,,,,,,,,,,,,,,,,,,,,,,,,,,,,,,,,,,,,,s040,001,2024-09-26_14h02.25.505,simplestop_skeleton,2022.2.2,59.599264317176115,
$currentCorrectResponse,$currentGoStim,0,0,0,0,0,0,0,0,,,,,,,,,,,,,,,495.4843924343586,495.4843924343586,548.3054603040218,go,squareblack.png,right,0.35,548.3303159251809,548.3303159251809,548.8202812597156,548.8202812597156,548.8368825018406,549.1705680787563,549.6709779798985,549.8210894688964,550.822532966733,550.83938190341,right,1,1.6896908655762672,550.83938190341,550.83938190341,551.3487214297056,551.3487214297056,0.0029719918966293335,0.4877363219857216,0.8385865986347198,551.3240574225783,practice,1,,,,,,,,,,,,,,,,,,,,,,,,,,,,,s040,001,2024-09-26_14h02.25.505,simplestop_skeleton,2022.2.2,59.599264317176115,
None,None,0,0,0,0,0,1,1,3,,,,,,,,,,,,,,,,,551.3245850875974,stop,circleblack.png,left,0.35,551.3487214297056,551.3487214297056,551.840165682137,551.840165682137,551.857091628015,552.1906611248851,552.6911121606827,552.8412716761231,553.8410359472036,553.8577141836286,left,1,1.5689408034086227,553.8577141836286,553.8577141836286,554.360208503902,554.360208503902,0.00796431303024292,0.4896412566304207,0.8398840874433517,554.3425539210439,practice,1,,,,,,,,,,,,,,,,,,,,,,,,,,,,,s040,001,2024-09-26_14h02.25.505,simplestop_skeleton,2022.2.2,59.599264317176115,
$currentCorrectResponse,$currentGoStim,0,0,0,0,0,2,2,0,,,,,,,,,,,,,,,,,554.3429719358683,stop,circleblack.png,left,0.3,554.360208503902,554.360208503902,554.8603495210409,554.8603495210409,554.8603495210409,555.1605124846101,555.6610398069024,555.8613675683737,556.8623372912407,556.8623372912407,None,0,,556.8623372912407,556.8623372912407,,,0.001339644193649292,0.49131858348846436,0.7915906608104706,557.3473450541496,practice,1,,,,,,,,,,,,,,,,,,,,,,,,,,,,,s040,001,2024-09-26_14h02.25.505,simplestop_skeleton,2022.2.2,59.599264317176115,
None,None,0,0,0,0,0,3,3,3,,,,,,,,,,,,,,,,,557.3477652221918,go,circleblack.png,left,0.35,557.3668951317668,557.3668951317668,557.863527521491,557.863527521491,557.8801298588514,558.2138199210167,558.7144607156515,558.8631083369255,559.8658223897219,559.8824932426214,left,1,0.6351096630096436,559.8824932426214,559.8824932426214,560.3869962096214,560.3869962096214,0.0012845247983932495,0.49018874764442444,0.8404901921749115,560.3670553043485,practice,1,,,,,,,,,,,,,,,,,,,,,,,,,,,,,s040,001,2024-09-26_14h02.25.505,simplestop_skeleton,2022.2.2,59.599264317176115,
None,None,0,0,0,0,1,0,4,2,,,,,,,,,,,,,,,,,560.3674914464355,go,squareblack.png,right,0.35,560.3869962096214,560.3869962096214,560.8836623057723,560.8836623057723,560.8999867960811,561.2336779683828,561.734691940248,561.8831424638629,562.8855375349522,562.9024345055223,right,1,0.6954055950045586,562.9024345055223,562.9024345055223,563.4065565168858,563.4065565168858,0.0018427297472953796,0.49021967500448227,0.8406708836555481,563.3871940970421,practice,1,,,,,,,,,,,,,,,,,,,,,,,,,,,,,s040,001,2024-09-26_14h02.25.505,simplestop_skeleton,2022.2.2,59.599264317176115,
None,None,0,0,0,0,1,1,5,2,,,,,,,,,,,,,,,,,563.3876074925065,stop,squareblack.png,right,0.35,563.4065565168858,563.4065565168858,563.9036437645555,563.9036437645555,563.9200398027897,564.2525443136692,564.7539644911885,564.9037639275193,565.9056518375874,565.9222921356559,None,0,,565.9222921356559,565.9222921356559,,,0.0011954382061958313,0.48990241438150406,0.8394912853837013,566.4073474556208,practice,1,,,,,,,,,,,,,,,,,,,,,,,,,,,,,s040,001,2024-09-26_14h02.25.505,simplestop_skeleton,2022.2.2,59.599264317176115,
None,None,0,0,0,0,1,2,6,3,,,,,,,,,,,,,,,,,566.4077678620815,go,circleblack.png,left,0.4,566.4272822961211,566.4272822961211,566.9236768037081,566.9236768037081,566.940236903727,567.3241648003459,567.824648052454,567.9246214404702,568.9248831346631,568.9421496838331,left,1,0.8472578823566437,568.9421496838331,568.9421496838331,,,0.0018363818526268005,0.4899832382798195,0.8903880640864372,569.42702062428,practice,1,,,,,,,,,,,,,,,,,,,,,,,,,,,,,s040,001,2024-09-26_14h02.25.505,simplestop_skeleton,2022.2.2,59.599264317176115,
$currentCorrectResponse,$currentGoStim,0,0,0,0,1,3,7,0,,,,,,,,,,,,,,,,,569.4274524077773,go,circleblack.png,left,0.4,569.4466229379177,569.4466229379177,569.9435565620661,569.9435565620661,569.960474267602,570.344021320343,570.8445262908936,570.9445788562298,571.9456226974726,571.9627419039607,left,1,0.7575511410832405,571.9627419039607,571.9627419039607,572.4670301526785,572.4670301526785,0.0012540295720100403,0.4901058226823807,0.8908342868089676,572.4471768587828,practice,1,,,,,,,,,,,,,,,,,,,,,,,,,,,,,s040,001,2024-09-26_14h02.25.505,simplestop_skeleton,2022.2.2,59.599264317176115,
None,None,0,0,0,0,2,0,8,3,,,,,,,,,,,,,,,,,572.4476036056876,go,squareblack.png,right,0.4,572.4670301526785,572.4670301526785,572.9636078774929,572.9636078774929,572.9806574583054,573.3641337230802,573.8647924661636,573.9645514637232,574.9655903577805,574.9816666468978,right,1,0.8238187953829765,574.9816666468978,574.9816666468978,,,0.0016912668943405151,0.49045664072036743,0.8908518850803375,575.4670801088214,practice,1,,,,,,,,,,,,,,,,,,,,,,,,,,,,,s040,001,2024-09-26_14h02.25.505,simplestop_skeleton,2022.2.2,59.599264317176115,
None,None,0,0,0,0,2,1,9,1,,,,,,,,,,,,,,,,,575.4675015434623,go,squareblack.png,right,0.4,575.4866174757481,575.4866174757481,575.9834615662694,575.9834615662694,576.0001668259501,576.3840345442295,576.8846209719777,576.9831711500883,577.9856135323644,577.9856135323644,right,1,0.6180992797017097,577.9856135323644,577.9856135323644,578.489769294858,578.489769294858,0.0011793076992034912,0.49017927795648575,0.8906318247318268,578.4704852327704,practice,1,,,,,,,,,,,,,,,,,,,,,,,,,,,,,s040,001,2024-09-26_14h02.25.505,simplestop_skeleton,2022.2.2,59.599264317176115,
None,None,0,0,0,0,2,2,10,1,,,,,,,,,,,,,,,,,578.4709062799811,stop,squareblack.png,right,0.4,578.489769294858,578.489769294858,578.9868701696396,578.9868701696396,579.0035846754909,579.3872411996126,579.8877637162805,579.9878372848034,580.9891366511583,580.9891366511583,None,0,,580.9891366511583,580.9891366511583,581.493763640523,581.493763640523,0.0012466087937355042,0.4902619943022728,0.8906876221299171,581.4737913310528,practice,1,,,,,,,,,,,,,,,,,,,,,,,,,,,,,s040,001,2024-09-26_14h02.25.505,simplestop_skeleton,2022.2.2,59.599264317176115,
None,None,0,0,0,0,2,3,11,2,,,,,,,,,,,,,,,,,581.4742105528712,go,circleblack.png,left,0.45,581.493763640523,581.493763640523,581.9903914555907,581.9903914555907,582.0067822486162,582.4408137574792,582.9563991352916,582.9897779896855,583.9923207908869,584.0092039704323,left,1,0.6418756917119026,584.0092039704323,584.0092039704323,,,0.0019109025597572327,0.4904279261827469,0.9406056776642799,584.4937630742788,practice,1,,,,,,,,,,,,,,,,,,,,,,,,,,,,,s040,001,2024-09-26_14h02.25.505,simplestop_skeleton,2022.2.2,59.599264317176115,
None,None,0,0,0,0,3,0,12,1,,,,,,,,,,,,,,,,,584.4941963925958,go,circleblack.png,left,0.45,584.5133846849203,584.5133846849203,585.0100699812174,585.0100699812174,585.0267809927464,585.46052608639,585.9614530429244,586.0115372762084,587.0119200050831,587.0284735038877,left,1,0.8681058213114738,587.0284735038877,587.0284735038877,,,0.001237131655216217,0.4898657649755478,0.9404075667262077,587.513696692884,practice,1,,,,,,,,,,,,,,,,,,,,,,,,,,,,,s040,001,2024-09-26_14h02.25.505,simplestop_skeleton,2022.2.2,59.599264317176115,
None,None,0,0,0,0,3,1,13,2,,,,,,,,,,,,,,,,,587.5141141861677,stop,squareblack.png,right,0.45,587.5337200239301,587.5337200239301,588.0304909422994,588.0304909422994,588.047061920166,588.4808274805546,588.9811943992972,589.031284801662,590.0326545760036,590.0490687936544,None,0,,590.0490687936544,590.0490687936544,590.5535427257419,590.5535427257419,0.0016906335949897766,0.490213081240654,0.9408428743481636,590.5339833647013,practice,1,,,,,,,,,,,,,,,,,,,,,,,,,,,,,s040,001,2024-09-26_14h02.25.505,simplestop_skeleton,2022.2.2,59.599264317176115,
None,None,0,0,0,0,3,2,14,1,,,,,,,,,,,,,,,,,590.534404091537,go,squareblack.png,right,0.5,590.5535427257419,590.5535427257419,591.0502628684044,591.0502628684044,591.0669331848621,591.5508022755384,592.051152318716,592.051152318716,593.0524918735027,593.0688909068704,right,1,0.7349781543016434,593.0688909068704,593.0688909068704,593.5738662406802,593.5738662406802,0.0011914744973182678,0.49001698940992355,0.9903616160154343,593.5537746250629,practice,1,,,,,,,,,,,,,,,,,,,,,,,,,,,,,s040,001,2024-09-26_14h02.25.505,simplestop_skeleton,2022.2.2,59.599264317176115,
$currentCorrectResponse,$currentGoStim,0,0,0,0,3,3,15,0,,,,,,,,,,,,,,,,,593.5541936606169,go,circleblack.png,left,0.5,593.5738662406802,593.5738662406802,594.068791501224,594.068791501224,594.0854723602533,594.5693062394857,595.0710199251771,595.0710199251771,596.0721510127187,596.0887318700552,left,1,0.7593505457043648,596.0887318700552,596.0887318700552,,,0.001930244266986847,0.4887540265917778,0.989166796207428,596.5737109184265,practice,1,,,,,,,,,,,,,,,,,,,,,,,,,,,,,s040,001,2024-09-26_14h02.25.505,simplestop_skeleton,2022.2.2,59.599264317176115,
None,None,0,0,0,0,4,0,16,3,,,,,,,,,,,,,,,,,596.5741238743067,stop,circleblack.png,left,0.5,596.5933977812529,596.5933977812529,597.0902914181352,597.0902914181352,597.1067358776927,597.590577609837,598.091167807579,598.091167807579,599.0923960506916,599.1088015809655,None,0,,599.1088015809655,599.1088015809655,599.6138866767287,599.6138866767287,0.0012537911534309387,0.4898536279797554,0.9903476536273956,599.5936812609434,practice,1,,,,,,,,,,,,,,,,,,,,,,,,,,,,,s040,001,2024-09-26_14h02.25.505,simplestop_skeleton,2022.2.2,59.599264317176115,
None,None,0,0,0,0,4,1,17,2,,,,,,,,,,,,,,,,,599.5940970629454,go,squareblack.png,right,0.55,599.6138866767287,599.6138866767287,600.1101482585073,600.1101482585073,600.1267415061593,600.6606675758958,601.1599489673972,601.1097357198596,602.1123832836747,602.1292770802975,right,1,0.5836905762553215,602.1292770802975,602.1292770802975,,,0.0017507374286651611,0.49035124480724335,1.0410114154219627,602.6138652637601,practice,1,,,,,,,,,,,,,,,,,,,,,,,,,,,,,s040,001,2024-09-26_14h02.25.505,simplestop_skeleton,2022.2.2,59.599264317176115,
$currentCorrectResponse,$currentGoStim,0,0,0,0,4,2,18,0,,,,,,,,,,,,,,,,,602.6142874136567,stop,circleblack.png,left,0.55,602.6336936578155,602.6336936578155,603.1287144869566,603.1287144869566,603.1453559100628,603.6795697584748,604.1816435605288,604.131240516901,605.1323352083564,605.1494385376573,left,1,0.6508897393941879,605.1494385376573,605.1494385376573,,,0.0017737746238708496,0.48861538618803024,1.0392230525612831,605.6339313685894,practice,1,,,,,,,,,,,,,,,,,,,,,,,,,,,,,s040,001,2024-09-26_14h02.25.505,simplestop_skeleton,2022.2.2,59.599264317176115,
None,None,0,0,0,0,4,3,19,1,,,,,,,,,,,,,,,,,605.6343687549233,stop,squareblack.png,right,0.5,605.6537936404347,605.6537936404347,606.1502218618989,606.1502218618989,606.1666423305869,606.6507491990924,607.151139177382,607.151139177382,608.1525996923447,608.1691137254238,None,0,,608.1691137254238,608.1691137254238,608.6733611822128,608.6733611822128,0.0016683116555213928,0.49038470536470413,0.9904142767190933,608.6539919003844,practice,1,,,,,,,,,,,,,,,,,,,,,,,,,,,,,s040,001,2024-09-26_14h02.25.505,simplestop_skeleton,2022.2.2,59.599264317176115,
None,None,0,0,0,0,5,0,20,1,,,,,,,,,,,,,,,,,608.6544068828225,go,squareblack.png,right,0.55,608.6733611822128,608.6733611822128,609.1701700165868,609.1701700165868,609.1868521720171,609.72073931247,610.2202024534345,610.1697688996792,611.1721637994051,611.1888926252723,right,1,0.5352310314774513,611.1888926252723,611.1888926252723,,,0.0011744797229766846,0.49009402096271515,1.040780246257782,611.6737587749958,practice,1,,,,,,,,,,,,,,,,,,,,,,,,,,,,,s040,001,2024-09-26_14h02.25.505,simplestop_skeleton,2022.2.2,59.599264317176115,
$currentCorrectResponse,$currentGoStim,0,0,0,0,5,1,21,0,,,,,,,,,,,,,,,,,611.6741778627038,go,circleblack.png,left,0.55,611.6936016827822,611.6936016827822,612.1899963766336,612.1899963766336,612.2068599164486,612.7406287267804,613.241554915905,613.1915980279446,614.1915329098701,614.2084834575653,left,1,0.8518238887190819,614.2084834575653,614.2084834575653,,,0.0017880424857139587,0.48981665074825287,1.0406214371323586,614.6933574676514,practice,1,,,,,,,,,,,,,,,,,,,,,,,,,,,,,s040,001,2024-09-26_14h02.25.505,simplestop_skeleton,2022.2.2,59.599264317176115,
None,None,0,0,0,0,5,2,22,2,,,,,,,,,,,,,,,,,614.693795055151,go,circleblack.png,left,0.55,614.7132942453027,614.7132942453027,615.2103177309036,615.2103177309036,615.2266895920038,615.7607194110751,616.2764720767736,616.2098295390606,617.2124735116959,617.2289727777243,left,1,0.6313751116394997,617.2289727777243,617.2289727777243,617.733922213316,617.733922213316,0.001261793076992035,0.49057842046022415,1.0410142168402672,617.7139921188354,practice,1,,,,,,,,,,,,,,,,,,,,,,,,,,,,,s040,001,2024-09-26_14h02.25.505,simplestop_skeleton,2022.2.2,59.599264317176115,
None,None,0,0,0,0,5,3,23,3,,,,,,,,,,,,,,,,,617.7144056260586,go,squareblack.png,right,0.55,617.733922213316,617.733922213316,618.2301037758589,618.2301037758589,618.2466363832355,618.7806591540575,619.2814536765218,619.2312154322863,620.2314566224813,620.2486572340131,right,1,0.8202287331223488,620.2486572340131,620.2486572340131,,,0.0016846507787704468,0.4899009168148041,1.0404416546225548,620.7335529699922,practice,1,,,,,,,,,,,,,,,,,,,,,,,,,,,,,s040,001,2024-09-26_14h02.25.505,simplestop_skeleton,2022.2.2,59.599264317176115,
,,0,0,0,0,,,,,,,,,,,,,"[{'fileName': 'squareblack.png', 'correct_response': 'right', 'condition': 'stop'}, {'fileName': 'circleblack.png', 'correct_response': 'left', 'condition': 'go'}, {'fileName': 'squareblack.png', 'correct_response': 'right', 'condition': 'stop'}, {'fileName': 'squareblack.png', 'correct_response': 'right', 'condition': 'go'}, {'fileName': 'circleblack.png', 'correct_response': 'left', 'condition': 'stop'}, {'fileName': 'circleblack.png', 'correct_response': 'left', 'condition': 'go'}, {'fileName': 'circleblack.png', 'correct_response': 'left', 'condition': 'go'}, {'fileName': 'squareblack.png', 'correct_response': 'right', 'condition': 'go'}, {'fileName': 'circleblack.png', 'correct_response': 'left', 'condition': 'go'}, {'fileName': 'squareblack.png', 'correct_response': 'right', 'condition': 'go'}, {'fileName': 'circleblack.png', 'correct_response': 'left', 'condition': 'stop'}, {'fileName': 'squareblack.png', 'correct_response': 'right', 'condition': 'go'}, {'fileName': 'circleblack.png', 'correct_response': 'left', 'condition': 'go'}, {'fileName': 'squareblack.png', 'correct_response': 'right', 'condition': 'go'}, {'fileName': 'circleblack.png', 'correct_response': 'left', 'condition': 'go'}, {'fileName': 'squareblack.png', 'correct_response': 'right', 'condition': 'go'}, {'fileName': 'circleblack.png', 'correct_response': 'left', 'condition': 'go'}, {'fileName': 'squareblack.png', 'correct_response': 'right', 'condition': 'go'}, {'fileName': 'circleblack.png', 'correct_response': 'left', 'condition': 'go'}, {'fileName': 'squareblack.png', 'correct_response': 'right', 'condition': 'stop'}, {'fileName': 'circleblack.png', 'correct_response': 'left', 'condition': 'stop'}, {'fileName': 'squareblack.png', 'correct_response': 'right', 'condition': 'go'}, {'fileName': 'squareblack.png', 'correct_response': 'right', 'condition': 'stop'}, {'fileName': 'circleblack.png', 'correct_response': 'left', 'condition': 'stop'}]",,,,,,,,,,,,,,,,,,,,,,,,,,,,,,,,,,,,620.7520586848259,620.7520586848259,return,1.8625881299376488,,,,,,,,,,,,,,,,,,,,,,,,,s040,001,2024-09-26_14h02.25.505,simplestop_skeleton,2022.2.2,59.599264317176115,
None,None,,,,,,,,,0,0,0,0,0,0,0,3,,,,,,,,,631.578699529171,stop,squareblack.png,right,0.55,,,,,,,,,,,,,,,,,,0.00209026038646698,0.4903454929590225,1.0410369485616684,634.0823457688093,test,1,,,,,622.633585549891,622.633585549891,631.5971832126379,632.0952512547374,632.0952512547374,632.1122201532125,632.6459931507707,633.0965130999684,633.1463977172971,634.1010341569781,right,1,0.6148072630167007,0.5,,,,,,,,,,,s040,001,2024-09-26_14h02.25.505,simplestop_skeleton,2022.2.2,59.599264317176115,
$currentCorrectResponse,$currentGoStim,,,,,,,,,0,0,0,0,0,1,1,0,,,,,,,,,634.0828793048859,go,squareblack.png,right,0.5,,,,,,,,,,,,,,,,,,0.0012764036655426025,0.4893038347363472,,636.5851304084063,test,1,,,,,,,634.1010341569781,634.5980367437005,634.5980367437005,634.6148083433509,635.0987999364734,635.5977389216423,635.6144559234381,636.6096301525831,right,1,0.6397713720798492,0.5,,,,,,,,,,,s040,001,2024-09-26_14h02.25.505,simplestop_skeleton,2022.2.2,59.599264317176115,
None,None,,,,,,,,,0,0,0,0,0,2,2,1,,,,,,,,,636.5855802744627,stop,circleblack.png,left,0.5,,,,,,,,,,,,,,,,,,0.007790528237819672,0.4894942194223404,0.9899963214993477,639.0871962532401,test,1,,,,,,,636.6096301525831,637.1008583456278,637.1008583456278,637.1174565553665,637.6016020178795,638.1008468791842,638.1008468791842,639.1051824390888,left,1,0.7014805749058723,0.45,,,,,,,,,,,s040,001,2024-09-26_14h02.25.505,simplestop_skeleton,2022.2.2,59.599264317176115,
None,None,,,,,,,,,0,0,0,0,0,3,3,1,,,,,,,,,639.0876320451498,go,circleblack.png,left,0.45,,,,,,,,,,,,,,,,,,0.001297682523727417,0.4901522248983383,,641.5905868709087,test,1,,,,,,,639.1051824390888,639.6041004881263,639.6041004881263,639.6207271888852,640.0543969646096,640.6033180654049,640.5700283423066,641.6097027510405,left,1,0.60598224401474,0.45,,,,,,,,,,,s040,001,2024-09-26_14h02.25.505,simplestop_skeleton,2022.2.2,59.599264317176115,
None,None,,,,,,,,,0,0,0,0,1,0,4,2,,,,,,,,,641.5910194739699,go,squareblack.png,right,0.45,,,,,,,,,,,,,,,,,,0.0017020851373672485,0.4895704314112663,,644.0930568873882,test,1,,,,,,,641.6097027510405,642.1068320944905,642.1068320944905,642.1234954968095,642.5572564676404,643.1061267778277,643.0728221461177,644.1115933433175,right,1,0.6290500611066818,0.45,,,,,,,,,,,s040,001,2024-09-26_14h02.25.505,simplestop_skeleton,2022.2.2,59.599264317176115,
None,None,,,,,,,,,0,0,0,0,1,1,5,1,,,,,,,,,644.0934881642461,go,squareblack.png,right,0.45,,,,,,,,,,,,,,,,,,0.0012449249625205994,0.49003854393959045,,646.5959524139762,test,1,,,,,,,644.1115933433175,644.6090739816427,644.6090739816427,644.6256737411022,645.0596367791295,645.6088544428349,645.5602075606585,646.6155599579215,right,1,0.6762474775314331,0.45,,,,,,,,,,,s040,001,2024-09-26_14h02.25.505,simplestop_skeleton,2022.2.2,59.599264317176115,
None,None,,,,,,,,,0,0,0,0,1,2,6,3,,,,,,,,,646.5963901057839,go,circleblack.png,left,0.45,,,,,,,,,,,,,,,,,,0.0018747374415397644,0.48980069160461426,,649.0987595617771,test,1,,,,,,,646.6155599579215,647.1119373068213,647.1119373068213,647.1287602484226,647.5610394477844,648.1132196262479,648.0625365972519,649.1182767003775,left,1,0.4069937393069267,0.45,,,,,,,,,,,s040,001,2024-09-26_14h02.25.505,simplestop_skeleton,2022.2.2,59.599264317176115,
None,None,,,,,,,,,0,0,0,0,1,3,7,2,,,,,,,,,649.0992042720318,go,squareblack.png,right,0.45,,,,,,,,,,,,,,,,,,0.001812957227230072,0.4892355278134346,,651.6009185388684,test,1,,,,,,,649.1182767003775,649.6151227131486,649.6151227131486,649.6316897422075,650.0653200671077,650.6158997640014,650.5657870173454,651.6198984533548,right,1,0.7509345859289169,0.45,,,,,,,,,,,s040,001,2024-09-26_14h02.25.505,simplestop_skeleton,2022.2.2,59.599264317176115,
None,None,,,,,,,,,0,0,0,0,2,0,8,1,,,,,,,,,651.6013723984361,stop,squareblack.png,right,0.45,,,,,,,,,,,,,,,,,,0.0012817978858947754,0.4903837665915489,0.9410402774810791,654.104385189712,test,1,,,,,,,651.6198984533548,652.1176368072629,652.1176368072629,652.1342886537313,652.5679661333561,653.1170966625214,653.0837434977293,654.1239287257195,right,1,0.5477704480290413,0.4,,,,,,,,,,,s040,001,2024-09-26_14h02.25.505,simplestop_skeleton,2022.2.2,59.599264317176115,
None,None,,,,,,,,,0,0,0,0,2,1,9,2,,,,,,,,,654.1048104539514,stop,circleblack.png,left,0.4,,,,,,,,,,,,,,,,,,0.0019092336297035217,0.48945847153663635,0.8899616301059723,656.6068544909358,test,1,,,,,,,654.1239287257195,654.6200568675995,654.6200568675995,654.6370640322566,655.0206963941455,655.6197581663728,655.5364434868097,656.6259678378701,None,0,,0.45,,,,,,,,,,,s040,001,2024-09-26_14h02.25.505,simplestop_skeleton,2022.2.2,59.599264317176115,
None,None,,,,,,,,,0,0,0,0,2,2,10,1,,,,,,,,,656.607303224504,go,circleblack.png,left,0.45,,,,,,,,,,,,,,,,,,0.0013555511832237244,0.4894466996192932,,659.1096848249435,test,1,,,,,,,656.6259678378701,657.122910015285,657.122910015285,657.1396363526583,657.5735004544258,658.1225911900401,658.0726006403565,659.1290248930454,left,1,0.6423593312501907,0.45,,,,,,,,,,,s040,001,2024-09-26_14h02.25.505,simplestop_skeleton,2022.2.2,59.599264317176115,
None,None,,,,,,,,,0,0,0,0,2,3,11,3,,,,,,,,,659.1101199015975,go,circleblack.png,left,0.45,,,,,,,,,,,,,,,,,,0.0015701279044151306,0.4892812520265579,,661.6125382483006,test,1,,,,,,,659.1290248930454,659.625532835722,659.625532835722,659.642497241497,660.0760867446661,660.6254934519529,660.5753223747015,661.6311485171318,left,1,0.6376359984278679,0.45,,,,,,,,,,,s040,001,2024-09-26_14h02.25.505,simplestop_skeleton,2022.2.2,59.599264317176115,
None,None,,,,,,,,,0,0,0,0,3,0,12,1,,,,,,,,,661.6129805594683,stop,circleblack.png,left,0.45,,,,,,,,,,,,,,,,,,0.0013088136911392212,0.4897789806127548,0.9406648725271225,664.1153184697032,test,1,,,,,,,661.6311485171318,662.1287195831537,662.1287195831537,662.1452911049128,662.5791097506881,663.1295861154795,663.0796974077821,664.1365451961756,None,0,,0.5,,,,,,,,,,,s040,001,2024-09-26_14h02.25.505,simplestop_skeleton,2022.2.2,59.599264317176115,
None,None,,,,,,,,,0,0,0,0,3,1,13,3,,,,,,,,,664.1157692968845,stop,squareblack.png,right,0.5,,,,,,,,,,,,,,,,,,0.004439897835254669,0.48961141705513,0.9905127286911011,666.6178011447191,test,1,,,,,,,664.1365451961756,664.6312167942524,664.6312167942524,664.6479469686747,665.1317424625158,665.6310856193304,665.6310856193304,666.6365389153361,right,1,0.5358971804380417,0.45,,,,,,,,,,,s040,001,2024-09-26_14h02.25.505,simplestop_skeleton,2022.2.2,59.599264317176115,
None,None,,,,,,,,,0,0,0,0,3,2,14,2,,,,,,,,,666.6182249635458,go,squareblack.png,right,0.45,,,,,,,,,,,,,,,,,,0.00123625248670578,0.49005868285894394,,669.1201542243361,test,1,,,,,,,666.6365389153361,667.1341038867831,667.1341038867831,667.1510142236948,667.5846024677157,668.1352619379759,668.0852021127939,669.1378961801529,right,1,0.7511004284024239,0.45,,,,,,,,,,,s040,001,2024-09-26_14h02.25.505,simplestop_skeleton,2022.2.2,59.599264317176115,
None,None,,,,,,,,,0,0,0,0,3,3,15,3,,,,,,,,,669.1205964162946,go,circleblack.png,left,0.45,,,,,,,,,,,,,,,,,,0.0019052103161811829,0.49018847942352295,,671.6228784248233,test,1,,,,,,,669.1378961801529,669.6367890611291,669.6367890611291,669.6534705534577,670.0872525349259,670.6380235478282,670.5882855057716,671.6395342350006,left,1,0.7993547171354294,0.45,,,,,,,,,,,s040,001,2024-09-26_14h02.25.505,simplestop_skeleton,2022.2.2,59.599264317176115,
None,None,,,,,,,,,0,0,0,0,4,0,16,3,,,,,,,,,671.6233196109533,stop,squareblack.png,right,0.45,,,,,,,,,,,,,,,,,,0.0016471371054649353,0.490349218249321,0.9410645738244057,674.1268332600594,test,1,,,,,,,671.6395342350006,672.1396448537707,672.1396448537707,672.1396448537707,672.5902355611324,673.1408126279712,673.0906918346882,674.1456708237529,None,0,,0.5,,,,,,,,,,,s040,001,2024-09-26_14h02.25.505,simplestop_skeleton,2022.2.2,59.599264317176115,
$currentCorrectResponse,$currentGoStim,,,,,,,,,0,0,0,0,4,1,17,0,,,,,,,,,674.1272600516677,go,squareblack.png,right,0.5,,,,,,,,,,,,,,,,,,0.001425914466381073,0.4890057221055031,,676.6288170218468,test,1,,,,,,,674.1456708237529,674.6422963961959,674.6422963961959,674.6592232584953,675.1428996399045,675.6434780210257,675.6434780210257,676.6462447941303,right,1,0.8407463282346725,0.5,,,,,,,,,,,s040,001,2024-09-26_14h02.25.505,simplestop_skeleton,2022.2.2,59.599264317176115,
None,None,,,,,,,,,0,0,0,0,4,2,18,3,,,,,,,,,676.6292467415333,stop,circleblack.png,left,0.5,,,,,,,,,,,,,,,,,,0.0018666833639144897,0.4897894859313965,0.9902870506048203,679.1319442763925,test,1,,,,,,,676.6462447941303,677.1453249081969,677.1453249081969,677.1617077365518,677.6454075947404,678.1447429582477,678.1447429582477,679.1506862416863,left,1,0.6163242980837822,0.45,,,,,,,,,,,s040,001,2024-09-26_14h02.25.505,simplestop_skeleton,2022.2.2,59.599264317176115,
None,None,,,,,,,,,0,0,0,0,4,3,19,2,,,,,,,,,679.132385328412,go,circleblack.png,left,0.45,,,,,,,,,,,,,,,,,,0.0013328641653060913,0.48969656974077225,,681.6348068416119,test,1,,,,,,,679.1506862416863,679.6476977914572,679.6476977914572,679.6644560918212,680.098285458982,680.6475005596876,680.5974852591753,681.6540616452694,left,1,0.6032274886965752,0.45,,,,,,,,,,,s040,001,2024-09-26_14h02.25.505,simplestop_skeleton,2022.2.2,59.599264317176115,
None,None,,,,,,,,,0,0,0,0,5,0,20,2,,,,,,,,,681.6352521553636,go,squareblack.png,right,0.45,,,,,,,,,,,,,,,,,,0.0018244609236717224,0.48943834751844406,,684.1365589126945,test,1,,,,,,,681.6540616452694,682.1504905968904,682.1504905968904,682.1675419658422,682.6010264605284,683.15186753124,683.1022184193134,684.1554826125503,right,1,0.9398202672600746,0.45,,,,,,,,,,,s040,001,2024-09-26_14h02.25.505,simplestop_skeleton,2022.2.2,59.599264317176115,
$currentCorrectResponse,$currentGoStim,,,,,,,,,0,0,0,0,5,1,21,0,,,,,,,,,684.1370242908597,go,circleblack.png,left,0.45,,,,,,,,,,,,,,,,,,0.0017384663224220276,0.4896366819739342,,686.639966160059,test,1,,,,,,,684.1554826125503,684.6534048169851,684.6534048169851,684.6701029986143,685.1037159711123,685.6543969735503,685.6045960634947,686.6568948701024,left,1,0.7522703930735588,0.45,,,,,,,,,,,s040,001,2024-09-26_14h02.25.505,simplestop_skeleton,2022.2.2,59.599264317176115,
None,None,,,,,,,,,0,0,0,0,5,2,22,2,,,,,,,,,686.6404114887118,go,circleblack.png,left,0.45,,,,,,,,,,,,,,,,,,0.0013381466269493103,0.48994823545217514,,689.1425677165389,test,1,,,,,,,686.6568948701024,687.1564996913075,687.1564996913075,687.1564996913075,687.607050999999,688.1572475582361,688.107298746705,689.16002830863,left,1,0.7395472675561905,0.45,,,,,,,,,,,s040,001,2024-09-26_14h02.25.505,simplestop_skeleton,2022.2.2,59.599264317176115,
None,None,,,,,,,,,0,0,0,0,5,3,23,2,,,,,,,,,689.1430031433702,go,squareblack.png,right,0.45,,,,,,,,,,,,,,,,,,0.0017718151211738586,0.49020689725875854,,691.6456919834018,test,1,,,,,,,689.16002830863,689.6588537544012,689.6588537544012,689.6757581457496,690.1093280166388,690.6585909202695,690.6084331423044,691.6644859984517,right,1,0.5058265700936317,0.45,,,,,,,,,,,s040,001,2024-09-26_14h02.25.505,simplestop_skeleton,2022.2.2,59.599264317176115,
None,None,,,,,,,,,0,0,0,0,6,0,24,2,,,,,,,,,691.6461344659328,go,squareblack.png,right,0.45,,,,,,,,,,,,,,,,,,0.0012458935379981995,0.48970887064933777,,694.1485131829977,test,1,,,,,,,691.6644859984517,692.1617965176702,692.1617965176702,692.178323276341,692.612013541162,693.161287792027,693.111247882247,694.1675048172474,right,1,0.471957765519619,0.45,,,,,,,,,,,s040,001,2024-09-26_14h02.25.505,simplestop_skeleton,2022.2.2,59.599264317176115,
$currentCorrectResponse,$currentGoStim,,,,,,,,,0,0,0,0,6,1,25,0,,,,,,,,,694.1489410325885,go,squareblack.png,right,0.45,,,,,,,,,,,,,,,,,,0.0013801157474517822,0.48949623852968216,,696.6508715078235,test,1,,,,,,,694.1675048172474,694.6644966751337,694.6644966751337,694.6812416017056,695.1153829991817,695.6638769134879,695.6308407559991,696.6693015918136,right,1,0.3210879787802696,0.45,,,,,,,,,,,s040,001,2024-09-26_14h02.25.505,simplestop_skeleton,2022.2.2,59.599264317176115,
$currentCorrectResponse,$currentGoStim,,,,,,,,,0,0,0,0,6,2,26,0,,,,,,,,,696.6513101011515,stop,squareblack.png,right,0.45,,,,,,,,,,,,,,,,,,0.001192726194858551,0.49015241861343384,0.940411202609539,699.1570581793785,test,1,,,,,,,696.6693015918136,697.1674795225263,697.1674795225263,697.1838519498706,697.6181245669723,698.1684691533446,698.1183716505766,699.1765325590968,None,0,,0.5,,,,,,,,,,,s040,001,2024-09-26_14h02.25.505,simplestop_skeleton,2022.2.2,59.599264317176115,
None,None,,,,,,,,,0,0,0,0,6,3,27,3,,,,,,,,,699.1574970260262,go,circleblack.png,left,0.5,,,,,,,,,,,,,,,,,,0.0019051805138587952,0.4856362044811249,,701.656576089561,test,1,,,,,,,699.1765325590968,699.6699723899364,699.6699723899364,699.6866517588496,700.170381128788,700.6695778816938,700.686186119914,701.6760219410062,left,1,0.6722790002822876,0.5,,,,,,,,,,,s040,001,2024-09-26_14h02.25.505,simplestop_skeleton,2022.2.2,59.599264317176115,
None,None,,,,,,,,,0,0,0,0,7,0,28,3,,,,,,,,,701.6570244655013,stop,circleblack.png,left,0.5,,,,,,,,,,,,,,,,,,0.0014820843935012817,0.4894607737660408,0.9900669679045677,704.1592495590448,test,1,,,,,,,701.6760219410062,702.172418281436,702.172418281436,702.1894673481584,702.6730014979839,703.1738875284791,703.1738875284791,704.1780980452895,None,0,,0.55,,,,,,,,,,,s040,001,2024-09-26_14h02.25.505,simplestop_skeleton,2022.2.2,59.599264317176115,
$currentCorrectResponse,$currentGoStim,,,,,,,,,0,0,0,0,7,1,29,0,,,,,,,,,704.1596790477633,stop,circleblack.png,left,0.55,,,,,,,,,,,,,,,,,,0.001255728304386139,0.4897150993347168,1.0408232659101486,706.6620802357793,test,1,,,,,,,704.1780980452895,704.6755191534758,704.6755191534758,704.6920069307089,705.2265006303787,705.6750943735242,705.7419291287661,706.6865836903453,left,1,0.3838694840669632,0.5,,,,,,,,,,,s040,001,2024-09-26_14h02.25.505,simplestop_skeleton,2022.2.2,59.599264317176115,
None,None,,,,,,,,,0,0,0,0,7,2,30,1,,,,,,,,,706.6625130996108,go,squareblack.png,right,0.5,,,,,,,,,,,,,,,,,,0.007546193897724152,0.4896460771560669,,709.1640504077077,test,1,,,,,,,706.6865836903453,707.1780847012997,707.1780847012997,707.1946997642517,707.6785708665848,708.1792841032147,708.1792841032147,709.181544393301,right,1,0.8017141073942184,0.5,,,,,,,,,,,s040,001,2024-09-26_14h02.25.505,simplestop_skeleton,2022.2.2,59.599264317176115,
$currentCorrectResponse,$currentGoStim,,,,,,,,,0,0,0,0,7,3,31,0,,,,,,,,,709.1645582541823,stop,squareblack.png,right,0.5,,,,,,,,,,,,,,,,,,0.0012045204639434814,0.49023300409317017,0.9910002499818802,711.6674943268299,test,1,,,,,,,709.181544393301,709.6809068843722,709.6809068843722,709.6809068843722,710.1814220100641,710.6807168200612,710.6807168200612,711.6849719583988,right,1,0.6796032041311264,0.45,,,,,,,,,,,s040,001,2024-09-26_14h02.25.505,simplestop_skeleton,2022.2.2,59.599264317176115,
None,None,,,,,,,,,0,0,0,0,8,0,32,3,,,,,,,,,711.667923502624,go,circleblack.png,left,0.45,,,,,,,,,,,,,,,,,,0.0018740519881248474,0.48973458260297775,,714.1704116389155,test,1,,,,,,,711.6849719583988,712.1836021468043,712.1836021468043,712.2003426626325,712.6341600492597,713.1833085492253,713.1334183216095,714.1894492581487,left,1,0.4947381615638733,0.45,,,,,,,,,,,s040,001,2024-09-26_14h02.25.505,simplestop_skeleton,2022.2.2,59.599264317176115,
None,None,,,,,,,,,0,0,0,0,8,1,33,3,,,,,,,,,714.1708505451679,go,circleblack.png,left,0.45,,,,,,,,,,,,,,,,,,0.0013499334454536438,0.4884120523929596,,716.6729929223657,test,1,,,,,,,714.1894492581487,714.6851948797703,714.6851948797703,714.7016789615154,715.1356222704053,715.6875188350677,715.6375014781952,716.6917703002691,left,1,0.8220892176032066,0.45,,,,,,,,,,,s040,001,2024-09-26_14h02.25.505,simplestop_skeleton,2022.2.2,59.599264317176115,
$currentCorrectResponse,$currentGoStim,,,,,,,,,0,0,0,0,8,2,34,0,,,,,,,,,716.6734301522374,go,circleblack.png,left,0.45,,,,,,,,,,,,,,,,,,0.0012429207563400269,0.48999687284231186,,719.1755086630583,test,1,,,,,,,716.6917703002691,717.1892394497991,717.1892394497991,717.2059341222048,717.6395992413163,718.190728046,718.1405477300286,719.1937906816602,left,1,0.9447612315416336,0.45,,,,,,,,,,,s040,001,2024-09-26_14h02.25.505,simplestop_skeleton,2022.2.2,59.599264317176115,
None,None,,,,,,,,,0,0,0,0,8,3,35,3,,,,,,,,,719.1759627386928,go,squareblack.png,right,0.45,,,,,,,,,,,,,,,,,,0.002232186496257782,0.49003592133522034,,721.6786492690444,test,1,,,,,,,719.1937906816602,719.692197419703,719.692197419703,719.7086089923978,720.1423423960805,720.6918236464262,720.6415473297238,721.6979898363352,right,1,0.6217013671994209,0.45,,,,,,,,,,,s040,001,2024-09-26_14h02.25.505,simplestop_skeleton,2022.2.2,59.599264317176115,
$currentCorrectResponse,$currentGoStim,,,,,,,,,0,0,0,0,9,0,36,0,,,,,,,,,721.6790995374322,go,squareblack.png,right,0.45,,,,,,,,,,,,,,,,,,0.0013982802629470825,0.4895867705345154,,724.181118875742,test,1,,,,,,,721.6979898363352,722.1947726234794,722.1947726234794,722.2117036357522,722.6452266946435,723.1961928457022,723.1458610072732,724.1984828934073,right,1,0.9095579534769058,0.45,,,,,,,,,,,s040,001,2024-09-26_14h02.25.505,simplestop_skeleton,2022.2.2,59.599264317176115,
None,None,,,,,,,,,0,0,0,0,9,1,37,1,,,,,,,,,724.181553825736,go,circleblack.png,left,0.45,,,,,,,,,,,,,,,,,,0.001835644245147705,0.49020741879940033,,726.6837811693549,test,1,,,,,,,724.1984828934073,724.6974910721183,724.6974910721183,724.6974910721183,725.148091815412,725.6985528096557,725.6488582193851,726.7008848041296,left,1,0.7984113246202469,0.45,,,,,,,,,,,s040,001,2024-09-26_14h02.25.505,simplestop_skeleton,2022.2.2,59.599264317176115,
None,None,,,,,,,,,0,0,0,0,9,2,38,1,,,,,,,,,726.6842279061675,stop,circleblack.png,left,0.45,,,,,,,,,,,,,,,,,,0.0012406036257743835,0.4904229864478111,0.9410890266299248,729.1871781796217,test,1,,,,,,,726.7008848041296,727.2002820894122,727.2002820894122,727.2002820894122,727.6511216685176,728.2015586048365,728.1513453796506,729.2062775567174,None,0,,0.5,,,,,,,,,,,s040,001,2024-09-26_14h02.25.505,simplestop_skeleton,2022.2.2,59.599264317176115,
None,None,,,,,,,,,0,0,0,0,9,3,39,2,,,,,,,,,729.1876151114702,go,squareblack.png,right,0.5,,,,,,,,,,,,,,,,,,0.0016361325979232788,0.48961297422647476,,731.6893606483936,test,1,,,,,,,729.2062775567174,729.7029724419117,729.7029724419117,729.7197545617819,730.20359954983,730.704199962318,730.704199962318,731.7068803757429,right,1,0.749416321516037,0.5,,,,,,,,,,,s040,001,2024-09-26_14h02.25.505,simplestop_skeleton,2022.2.2,59.599264317176115,
$currentCorrectResponse,$currentGoStim,,,,,,,,,0,0,0,0,10,0,40,0,,,,,,,,,731.689802646637,go,circleblack.png,left,0.5,,,,,,,,,,,,,,,,,,0.0018208399415016174,0.4897606298327446,,734.1919708698988,test,1,,,,,,,731.7068803757429,732.2059975191951,732.2059975191951,732.222572915256,732.7064271643758,733.2069246470928,733.2069246470928,734.2091038152575,left,1,0.7673498094081879,0.5,,,,,,,,,,,s040,001,2024-09-26_14h02.25.505,simplestop_skeleton,2022.2.2,59.599264317176115,
None,None,,,,,,,,,0,0,0,0,10,1,41,1,,,,,,,,,734.1924114897847,go,circleblack.png,left,0.5,,,,,,,,,,,,,,,,,,0.0012401491403579712,0.4905032142996788,,736.6946928873658,test,1,,,,,,,734.2091038152575,734.7088373303413,734.7088373303413,734.7088373303413,735.209293410182,735.7101900503039,735.7101900503039,736.7113394662738,left,1,0.8593000322580338,0.5,,,,,,,,,,,s040,001,2024-09-26_14h02.25.505,simplestop_skeleton,2022.2.2,59.599264317176115,
None,None,,,,,,,,,0,0,0,0,10,2,42,1,,,,,,,,,736.6951261684299,stop,squareblack.png,right,0.5,,,,,,,,,,,,,,,,,,0.001659877598285675,0.4905700832605362,0.9912962093949318,739.1985897049308,test,1,,,,,,,736.7113394662738,737.2111852392554,737.2111852392554,737.2111852392554,737.7117805480957,738.2109552919865,738.2109552919865,739.2180901616812,right,1,0.604503832757473,0.45,,,,,,,,,,,s040,001,2024-09-26_14h02.25.505,simplestop_skeleton,2022.2.2,59.599264317176115,
None,None,,,,,,,,,0,0,0,0,10,3,43,1,,,,,,,,,739.1990295425057,stop,circleblack.png,left,0.45,,,,,,,,,,,,,,,,,,0.0018674209713935852,0.48927220702171326,0.9395898655056953,741.7006791979074,test,1,,,,,,,739.2180901616812,739.7143722176552,739.7143722176552,739.7310039624572,740.1644535586238,740.7155474275351,740.665107101202,741.7197481766343,None,0,,0.5,,,,,,,,,,,s040,001,2024-09-26_14h02.25.505,simplestop_skeleton,2022.2.2,59.599264317176115,
$currentCorrectResponse,$currentGoStim,,,,,,,,,0,0,0,0,11,0,44,0,,,,,,,,,741.7011159360409,go,squareblack.png,right,0.5,,,,,,,,,,,,,,,,,,0.0016079246997833252,0.4897453486919403,,744.2036471739411,test,1,,,,,,,741.7197481766343,742.2167665734887,742.2167665734887,742.2335640266538,742.7174968868494,743.2165440022945,743.2332238182425,744.2223839983344,left,0,0.20511935651302338,0.5,,,,,,,,,,,s040,001,2024-09-26_14h02.25.505,simplestop_skeleton,2022.2.2,59.599264317176115,
$currentCorrectResponse,$currentGoStim,,,,,,,,,0,0,0,0,11,1,45,0,,,,,,,,,744.2040884122252,stop,squareblack.png,right,0.5,,,,,,,,,,,,,,,,,,0.0013849586248397827,0.48958930373191833,0.9905229434370995,746.70670825243,test,1,,,,,,,744.2223839983344,744.7196085378528,744.7196085378528,744.7362676039338,745.2201135158539,745.7208667770028,745.7208667770028,746.7258032262325,None,0,,0.55,,,,,,,,,,,s040,001,2024-09-26_14h02.25.505,simplestop_skeleton,2022.2.2,59.599264317176115,
None,None,,,,,,,,,0,0,0,0,11,2,46,2,,,,,,,,,746.7071418017149,go,squareblack.png,right,0.55,,,,,,,,,,,,,,,,,,0.001426003873348236,0.4878157526254654,,749.209091797471,test,1,,,,,,,746.7258032262325,747.2210819721222,747.2210819721222,747.2377059832215,747.7718227803707,748.2219984307885,748.2725405320525,749.2284710630774,right,1,0.7931304350495338,0.55,,,,,,,,,,,s040,001,2024-09-26_14h02.25.505,simplestop_skeleton,2022.2.2,59.599264317176115,
None,None,,,,,,,,,0,0,0,0,11,3,47,2,,,,,,,,,749.209528952837,go,circleblack.png,left,0.55,,,,,,,,,,,,,,,,,,0.0018922984600067139,0.48982931673526764,,751.7112535685301,test,1,,,,,,,749.2284710630774,749.7251453697681,749.7251453697681,749.741941601038,750.2757357135415,750.7249784246087,750.791609108448,751.7313622012734,left,1,0.6963373422622681,0.55,,,,,,,,,,,s040,001,2024-09-26_14h02.25.505,simplestop_skeleton,2022.2.2,59.599264317176115,
,,,,,,,,,,0,0,0,0,,,,,,"[{'fileName': 'squareblack.png', 'correct_response': 'right', 'condition': 'stop'}, {'fileName': 'circleblack.png', 'correct_response': 'left', 'condition': 'go'}, {'fileName': 'circleblack.png', 'correct_response': 'left', 'condition': 'stop'}, {'fileName': 'circleblack.png', 'correct_response': 'left', 'condition': 'go'}, {'fileName': 'circleblack.png', 'correct_response': 'left', 'condition': 'go'}, {'fileName': 'squareblack.png', 'correct_response': 'right', 'condition': 'go'}, {'fileName': 'squareblack.png', 'correct_response': 'right', 'condition': 'stop'}, {'fileName': 'squareblack.png', 'correct_response': 'right', 'condition': 'go'}, {'fileName': 'circleblack.png', 'correct_response': 'left', 'condition': 'go'}, {'fileName': 'squareblack.png', 'correct_response': 'right', 'condition': 'go'}, {'fileName': 'circleblack.png', 'correct_response': 'left', 'condition': 'stop'}, {'fileName': 'squareblack.png', 'correct_response': 'right', 'condition': 'go'}, {'fileName': 'circleblack.png', 'correct_response': 'left', 'condition': 'stop'}, {'fileName': 'circleblack.png', 'correct_response': 'left', 'condition': 'go'}, {'fileName': 'squareblack.png', 'correct_response': 'right', 'condition': 'stop'}, {'fileName': 'circleblack.png', 'correct_response': 'left', 'condition': 'go'}, {'fileName': 'squareblack.png', 'correct_response': 'right', 'condition': 'go'}, {'fileName': 'squareblack.png', 'correct_response': 'right', 'condition': 'stop'}, {'fileName': 'circleblack.png', 'correct_response': 'left', 'condition': 'stop'}, {'fileName': 'circleblack.png', 'correct_response': 'left', 'condition': 'go'}, {'fileName': 'squareblack.png', 'correct_response': 'right', 'condition': 'go'}, {'fileName': 'squareblack.png', 'correct_response': 'right', 'condition': 'go'}, {'fileName': 'circleblack.png', 'correct_response': 'left', 'condition': 'go'}, {'fileName': 'squareblack.png', 'correct_response': 'right', 'condition': 'go'}, {'fileName': 'squareblack.png', 'correct_response': 'right', 'condition': 'go'}, {'fileName': 'squareblack.png', 'correct_response': 'right', 'condition': 'stop'}, {'fileName': 'squareblack.png', 'correct_response': 'right', 'condition': 'go'}, {'fileName': 'squareblack.png', 'correct_response': 'right', 'condition': 'stop'}, {'fileName': 'circleblack.png', 'correct_response': 'left', 'condition': 'go'}, {'fileName': 'circleblack.png', 'correct_response': 'left', 'condition': 'go'}, {'fileName': 'circleblack.png', 'correct_response': 'left', 'condition': 'go'}, {'fileName': 'squareblack.png', 'correct_response': 'right', 'condition': 'go'}, {'fileName': 'squareblack.png', 'correct_response': 'right', 'condition': 'go'}, {'fileName': 'circleblack.png', 'correct_response': 'left', 'condition': 'stop'}, {'fileName': 'circleblack.png', 'correct_response': 'left', 'condition': 'go'}, {'fileName': 'circleblack.png', 'correct_response': 'left', 'condition': 'stop'}, {'fileName': 'circleblack.png', 'correct_response': 'left', 'condition': 'go'}, {'fileName': 'squareblack.png', 'correct_response': 'right', 'condition': 'stop'}, {'fileName': 'circleblack.png', 'correct_response': 'left', 'condition': 'stop'}, {'fileName': 'squareblack.png', 'correct_response': 'right', 'condition': 'go'}, {'fileName': 'squareblack.png', 'correct_response': 'right', 'condition': 'stop'}, {'fileName': 'circleblack.png', 'correct_response': 'left', 'condition': 'go'}, {'fileName': 'squareblack.png', 'correct_response': 'right', 'condition': 'go'}, {'fileName': 'circleblack.png', 'correct_response': 'left', 'condition': 'go'}, {'fileName': 'squareblack.png', 'correct_response': 'right', 'condition': 'go'}, {'fileName': 'circleblack.png', 'correct_response': 'left', 'condition': 'stop'}, {'fileName': 'circleblack.png', 'correct_response': 'left', 'condition': 'go'}, {'fileName': 'squareblack.png', 'correct_response': 'right', 'condition': 'go'}]",,,,,,,,,,,,,,,,,,,,,,,,,,,,,,,,,,,,,,,,,,,,,,,,,,,,,751.7313622012734,751.7313622012734,return,4.396469302475452,,,,,,,s040,001,2024-09-26_14h02.25.505,simplestop_skeleton,2022.2.2,59.599264317176115,
None,None,,,,,,,,,1,0,1,0,0,0,0,1,,,,,,,,,756.1493536233902,stop,squareblack.png,right,0.55,,,,,,,,,,,,,,,,,,0.0019460693001747131,0.4887753203511238,1.040730319917202,758.6531152799726,test,2,,,,,,,756.1701020672917,756.6651191338897,756.6651191338897,756.6815150082111,757.2162485942245,757.66766294837,757.7175545617938,758.6728580966592,None,0,,0.6,,,,,,,,,,,s040,001,2024-09-26_14h02.25.505,simplestop_skeleton,2022.2.2,59.599264317176115,
None,None,,,,,,,,,1,0,1,0,0,1,1,1,,,,,,,,,758.6536444276571,go,circleblack.png,left,0.6,,,,,,,,,,,,,,,,,,0.0019075199961662292,0.49271737039089203,,761.155628927052,test,2,,,,,,,758.6728580966592,759.1690059527755,759.1690059527755,759.1690059527755,759.7695884853601,760.1685810014606,760.2852992266417,761.1756815910339,left,1,0.5377809256315231,0.6,,,,,,,,,,,s040,001,2024-09-26_14h02.25.505,simplestop_skeleton,2022.2.2,59.599264317176115,
None,None,,,,,,,,,1,0,1,0,0,2,2,3,,,,,,,,,761.1560505852103,stop,circleblack.png,left,0.6,,,,,,,,,,,,,,,,,,0.002444833517074585,0.4888472631573677,1.0895470082759857,763.6585402414203,test,2,,,,,,,761.1756815910339,761.6715186983347,761.6715186983347,761.6886524707079,762.2727121785283,762.6712167710066,762.7881219014525,763.6787543967366,left,1,0.5930225998163223,0.55,,,,,,,,,,,s040,001,2024-09-26_14h02.25.505,simplestop_skeleton,2022.2.2,59.599264317176115,
None,None,,,,,,,,,1,0,1,0,0,3,3,1,,,,,,,,,763.6589660048485,go,circleblack.png,left,0.55,,,,,,,,,,,,,,,,,,0.0023346692323684692,0.4886248707771301,,766.1609083414078,test,2,,,,,,,763.6787543967366,764.1742027327418,764.1742027327418,764.1909043937922,764.7248699888587,765.1740261539817,765.223988302052,766.1794685944915,left,1,0.5786202922463417,0.55,,,,,,,,,,,s040,001,2024-09-26_14h02.25.505,simplestop_skeleton,2022.2.2,59.599264317176115,
$currentCorrectResponse,$currentGoStim,,,,,,,,,1,0,1,0,1,0,4,0,,,,,,,,,766.1613397374749,go,circleblack.png,left,0.55,,,,,,,,,,,,,,,,,,0.0012465417385101318,0.49000634998083115,,768.6623236387968,test,2,,,,,,,766.1794685944915,766.677090793848,766.677090793848,766.693895034492,767.2278659269214,767.678911447525,767.7285712137818,768.6842381134629,left,1,0.9355272427201271,0.55,,,,,,,,,,,s040,001,2024-09-26_14h02.25.505,simplestop_skeleton,2022.2.2,59.599264317176115,
None,None,,,,,,,,,1,0,1,0,1,1,5,2,,,,,,,,,768.6627520173788,go,squareblack.png,right,0.55,,,,,,,,,,,,,,,,,,0.007012419402599335,0.49133357405662537,,771.1667176634073,test,2,,,,,,,768.6842381134629,769.1798292174935,769.1798292174935,769.1965766474605,769.7290472686291,770.1809027120471,770.2310890704393,771.18560372293,right,1,0.6667958945035934,0.55,,,,,,,,,,,s040,001,2024-09-26_14h02.25.505,simplestop_skeleton,2022.2.2,59.599264317176115,
None,None,,,,,,,,,1,0,1,0,1,2,6,3,,,,,,,,,771.1671519055963,stop,squareblack.png,right,0.55,,,,,,,,,,,,,,,,,,0.0012676715850830078,0.48956048488616943,1.0402401462197304,773.668890312314,test,2,,,,,,,771.18560372293,771.6824769005179,771.6824769005179,771.6992614492774,772.2331851124763,772.6823500171304,772.7490059435368,773.6873695328832,right,1,0.6163112074136734,0.5,,,,,,,,,,,s040,001,2024-09-26_14h02.25.505,simplestop_skeleton,2022.2.2,59.599264317176115,
None,None,,,,,,,,,1,0,1,0,1,3,7,2,,,,,,,,,773.6693188771605,go,squareblack.png,right,0.5,,,,,,,,,,,,,,,,,,0.0012053772807121277,0.48865003138780594,,776.1723008528352,test,2,,,,,,,773.6873695328832,774.1838683560491,774.1838683560491,774.2006185948849,774.6844822689891,775.1864106059074,775.1864106059074,776.1915111318231,right,1,0.619404099881649,0.5,,,,,,,,,,,s040,001,2024-09-26_14h02.25.505,simplestop_skeleton,2022.2.2,59.599264317176115,
None,None,,,,,,,,,1,0,1,0,2,0,8,2,,,,,,,,,776.1727405786514,go,circleblack.png,left,0.5,,,,,,,,,,,,,,,,,,0.0019228681921958923,0.49004704505205154,,778.6742669418454,test,2,,,,,,,776.1915111318231,776.6882754191756,776.6882754191756,776.7049039304256,777.1889238357544,777.6893592551351,777.6893592551351,778.6909976154566,left,1,0.7183014675974846,0.5,,,,,,,,,,,s040,001,2024-09-26_14h02.25.505,simplestop_skeleton,2022.2.2,59.599264317176115,
$currentCorrectResponse,$currentGoStim,,,,,,,,,1,0,1,0,2,1,9,0,,,,,,,,,778.6747044548392,go,squareblack.png,right,0.5,,,,,,,,,,,,,,,,,,0.001658029854297638,0.49029333144426346,,781.1771401762962,test,2,,,,,,,778.6909976154566,779.191324442625,779.191324442625,779.191324442625,779.691588960588,780.1919634565711,780.1919634565711,781.1945084184408,right,1,0.7631869986653328,0.5,,,,,,,,,,,s040,001,2024-09-26_14h02.25.505,simplestop_skeleton,2022.2.2,59.599264317176115,
None,None,,,,,,,,,1,0,1,0,2,2,10,3,,,,,,,,,781.177588313818,stop,circleblack.png,left,0.5,,,,,,,,,,,,,,,,,,0.0018438473343849182,0.4900783598423004,0.9907420575618744,783.6803116351366,test,2,,,,,,,781.1945084184408,781.6935164704919,781.6935164704919,781.7104569971561,782.1944317668676,782.6933074519038,782.7099928036332,783.699517890811,left,1,0.5097979754209518,0.45,,,,,,,,,,,s040,001,2024-09-26_14h02.25.505,simplestop_skeleton,2022.2.2,59.599264317176115,
$currentCorrectResponse,$currentGoStim,,,,,,,,,1,0,1,0,2,3,11,0,,,,,,,,,783.6807398274541,go,squareblack.png,right,0.45,,,,,,,,,,,,,,,,,,0.0016278699040412903,0.4899275228381157,,786.1829904913902,test,2,,,,,,,783.699517890811,784.1965436711907,784.1965436711907,784.2130700051785,784.6468915939331,785.1967777013779,785.1474421769381,786.2007629796863,right,1,0.6853339821100235,0.45,,,,,,,,,,,s040,001,2024-09-26_14h02.25.505,simplestop_skeleton,2022.2.2,59.599264317176115,
None,None,,,,,,,,,1,0,1,0,3,0,12,2,,,,,,,,,786.1834201514721,stop,circleblack.png,left,0.45,,,,,,,,,,,,,,,,,,0.001725122332572937,0.48991213738918304,0.9404595568776131,788.6858127713203,test,2,,,,,,,786.2007629796863,786.6991373226047,786.6991373226047,786.715764336288,787.1496918722987,787.7002263367176,787.6503131464124,788.7048209309578,None,0,,0.5,,,,,,,,,,,s040,001,2024-09-26_14h02.25.505,simplestop_skeleton,2022.2.2,59.599264317176115,
None,None,,,,,,,,,1,0,1,0,3,1,13,2,,,,,,,,,788.686254568398,go,circleblack.png,left,0.5,,,,,,,,,,,,,,,,,,0.0012812167406082153,0.4898817166686058,,791.1883212849498,test,2,,,,,,,788.7048209309578,789.2018764689565,789.2018764689565,789.2186525315046,789.7026240676641,790.2034372165799,790.2034372165799,791.2058603167534,left,1,0.8184958547353745,0.5,,,,,,,,,,,s040,001,2024-09-26_14h02.25.505,simplestop_skeleton,2022.2.2,59.599264317176115,
$currentCorrectResponse,$currentGoStim,,,,,,,,,1,0,1,0,3,2,14,0,,,,,,,,,791.1887540072203,stop,squareblack.png,right,0.5,,,,,,,,,,,,,,,,,,0.001761890947818756,0.490104615688324,0.9904219210147858,793.6915636584163,test,2,,,,,,,791.2058603167534,791.7047837525606,791.7047837525606,791.7212353944778,792.2053565308452,792.7059099599719,792.7059099599719,793.7105198353529,None,0,,0.55,,,,,,,,,,,s040,001,2024-09-26_14h02.25.505,simplestop_skeleton,2022.2.2,59.599264317176115,
None,None,,,,,,,,,1,0,1,0,3,3,15,2,,,,,,,,,793.6919926777482,go,circleblack.png,left,0.55,,,,,,,,,,,,,,,,,,0.0016981884837150574,0.48979125171899796,,796.1944442540407,test,2,,,,,,,793.7105198353529,794.2061514258385,794.2061514258385,794.2226999476552,794.7567593976855,795.2084343507886,795.2583197131753,796.2138810381293,left,1,0.6712903752923012,0.55,,,,,,,,,,,s040,001,2024-09-26_14h02.25.505,simplestop_skeleton,2022.2.2,59.599264317176115,
$currentCorrectResponse,$currentGoStim,,,,,,,,,1,0,1,0,4,0,16,0,,,,,,,,,796.1948728635907,go,squareblack.png,right,0.55,,,,,,,,,,,,,,,,,,0.0017376765608787537,0.4895677864551544,,798.6965529173613,test,2,,,,,,,796.2138810381293,796.7101836502552,796.7101836502552,796.7269770279527,797.2613758146763,797.7099937200546,797.7768225371838,798.7131027579308,right,1,0.6348195746541023,0.55,,,,,,,,,,,s040,001,2024-09-26_14h02.25.505,simplestop_skeleton,2022.2.2,59.599264317176115,
$currentCorrectResponse,$currentGoStim,,,,,,,,,1,0,1,0,4,1,17,0,,,,,,,,,798.6969836652279,stop,squareblack.png,right,0.55,,,,,,,,,,,,,,,,,,0.0011885762214660645,0.49011697620153427,1.0408153533935547,801.1996109858155,test,2,,,,,,,798.7131027579308,799.2133229225874,799.2133229225874,799.2133229225874,799.7636473998427,800.2141675427556,800.2644844055176,801.2189362943172,None,0,,0.6,,,,,,,,,,,s040,001,2024-09-26_14h02.25.505,simplestop_skeleton,2022.2.2,59.599264317176115,
None,None,,,,,,,,,1,0,1,0,4,2,18,3,,,,,,,,,801.2000438794494,stop,circleblack.png,left,0.6,,,,,,,,,,,,,,,,,,0.0017698034644126892,0.4901108294725418,1.0909638851881027,803.702573724091,test,2,,,,,,,801.2189362943172,801.7157691642642,801.7157691642642,801.7325770035386,802.3167999684811,802.7155259400606,802.8325452879071,803.7238273471594,left,1,0.5086179152131081,0.55,,,,,,,,,,,s040,001,2024-09-26_14h02.25.505,simplestop_skeleton,2022.2.2,59.599264317176115,
$currentCorrectResponse,$currentGoStim,,,,,,,,,1,0,1,0,4,3,19,0,,,,,,,,,803.7030207142234,go,circleblack.png,left,0.55,,,,,,,,,,,,,,,,,,0.002205386757850647,0.4867611899971962,,806.2056940868497,test,2,,,,,,,803.7238273471594,804.2172032147646,804.2172032147646,804.2338536381721,804.7678949162364,805.2196401208639,805.2698757201433,806.2247769385576,left,1,0.7310708910226822,0.55,,,,,,,,,,,s040,001,2024-09-26_14h02.25.505,simplestop_skeleton,2022.2.2,59.599264317176115,
None,None,,,,,,,,,1,0,1,0,5,0,20,3,,,,,,,,,806.2061277404428,go,squareblack.png,right,0.55,,,,,,,,,,,,,,,,,,0.0017828568816184998,0.4895968362689018,,808.7067499905825,test,2,,,,,,,806.2247769385576,806.721335850656,806.721335850656,806.7380620017648,807.2719347327948,807.722583219409,807.7729302197695,808.7234145104885,right,1,0.9209256619215012,0.55,,,,,,,,,,,s040,001,2024-09-26_14h02.25.505,simplestop_skeleton,2022.2.2,59.599264317176115,
$currentCorrectResponse,$currentGoStim,,,,,,,,,1,0,1,0,5,1,21,0,,,,,,,,,808.7071941494942,go,squareblack.png,right,0.55,,,,,,,,,,,,,,,,,,0.0012244433164596558,0.48961322009563446,,811.21091055125,test,2,,,,,,,808.7234145104885,809.2226814031601,809.2226814031601,809.2226814031601,809.7735609486699,810.2251304909587,810.2753061130643,811.2304523959756,right,1,0.8644619584083557,0.55,,,,,,,,,,,s040,001,2024-09-26_14h02.25.505,simplestop_skeleton,2022.2.2,59.599264317176115,
$currentCorrectResponse,$currentGoStim,,,,,,,,,1,0,1,0,5,2,22,0,,,,,,,,,811.2113553360105,go,circleblack.png,left,0.55,,,,,,,,,,,,,,,,,,0.001897968351840973,0.4894639030098915,,813.7123490422964,test,2,,,,,,,811.2304523959756,811.7269873917103,811.7269873917103,811.7438138052821,812.2777104750276,812.7283391878009,812.7783705592155,813.7300358265638,left,1,0.8891377151012421,0.55,,,,,,,,,,,s040,001,2024-09-26_14h02.25.505,simplestop_skeleton,2022.2.2,59.599264317176115,
None,None,,,,,,,,,1,0,1,0,5,3,23,3,,,,,,,,,813.7128298655152,go,squareblack.png,right,0.55,,,,,,,,,,,,,,,,,,0.0015575513243675232,0.48920368403196335,,816.2163653969765,test,2,,,,,,,813.7300358265638,814.2286266237497,814.2286266237497,814.2449150830507,814.7804195657372,815.2306670546532,815.2807709649205,816.2351790592074,right,1,0.7077419608831406,0.55,,,,,,,,,,,s040,001,2024-09-26_14h02.25.505,simplestop_skeleton,2022.2.2,59.599264317176115,
None,None,,,,,,,,,1,0,1,0,6,0,24,1,,,,,,,,,816.2167915329337,go,squareblack.png,right,0.55,,,,,,,,,,,,,,,,,,0.0013000443577766418,0.4897744357585907,,818.7177577614784,test,2,,,,,,,816.2351790592074,816.7325607910752,816.7325607910752,816.7490667328238,817.2834793999791,817.7339877560735,817.7838462665677,818.7350375801325,right,1,0.9054848179221153,0.55,,,,,,,,,,,s040,001,2024-09-26_14h02.25.505,simplestop_skeleton,2022.2.2,59.599264317176115,
None,None,,,,,,,,,1,0,1,0,6,1,25,1,,,,,,,,,818.7181930243969,stop,squareblack.png,right,0.55,,,,,,,,,,,,,,,,,,0.001141563057899475,0.4893835559487343,1.0404477193951607,821.2220424264669,test,2,,,,,,,818.7350375801325,819.2336673811078,819.2336673811078,819.2504668012261,819.7846816778183,820.2362466976047,820.2864096388221,821.2407811582088,None,0,,0.6,,,,,,,,,,,s040,001,2024-09-26_14h02.25.505,simplestop_skeleton,2022.2.2,59.599264317176115,
$currentCorrectResponse,$currentGoStim,,,,,,,,,1,0,1,0,6,2,26,0,,,,,,,,,821.2224749773741,go,squareblack.png,right,0.6,,,,,,,,,,,,,,,,,,0.00131157785654068,0.4896218404173851,,823.7244304195046,test,2,,,,,,,821.2407811582088,821.7380841225386,821.7380841225386,821.754554413259,822.3390454128385,822.7375101521611,822.8380021005869,823.7433899790049,right,1,0.4553241729736328,0.6,,,,,,,,,,,s040,001,2024-09-26_14h02.25.505,simplestop_skeleton,2022.2.2,59.599264317176115,
$currentCorrectResponse,$currentGoStim,,,,,,,,,1,0,1,0,6,3,27,0,,,,,,,,,823.7248536646366,stop,squareblack.png,right,0.6,,,,,,,,,,,,,,,,,,0.0011839792132377625,0.48987893015146255,1.0906229317188263,826.2276313826442,test,2,,,,,,,823.7433899790049,824.2405895367265,824.2405895367265,824.2572878301144,824.8415472730994,825.2419078424573,825.3422400057316,826.2528229355812,None,0,,0.65,,,,,,,,,,,s040,001,2024-09-26_14h02.25.505,simplestop_skeleton,2022.2.2,59.599264317176115,
None,None,,,,,,,,,1,0,1,0,7,0,28,3,,,,,,,,,826.228061966598,go,circleblack.png,left,0.65,,,,,,,,,,,,,,,,,,0.00861801952123642,0.4898117780685425,,828.729909658432,test,2,,,,,,,826.2528229355812,826.7434851303697,826.7434851303697,826.7601398229599,827.3941784650087,827.7444547042251,827.9099367186427,828.7464860975742,left,1,0.7177325636148453,0.65,,,,,,,,,,,s040,001,2024-09-26_14h02.25.505,simplestop_skeleton,2022.2.2,59.599264317176115,
None,None,,,,,,,,,1,0,1,0,7,1,29,3,,,,,,,,,828.7303441241384,go,circleblack.png,left,0.65,,,,,,,,,,,,,,,,,,0.0012444853782653809,0.49002138525247574,,831.2316247224808,test,2,,,,,,,828.7464860975742,829.2465391978621,829.2465391978621,829.2465391978621,829.8969104364514,830.2475655972958,830.3958561867476,831.2501010596752,left,1,0.8554610460996628,0.65,,,,,,,,,,,s040,001,2024-09-26_14h02.25.505,simplestop_skeleton,2022.2.2,59.599264317176115,
None,None,,,,,,,,,1,0,1,0,7,2,30,1,,,,,,,,,831.2320846095681,go,circleblack.png,left,0.65,,,,,,,,,,,,,,,,,,0.0017052069306373596,0.4885405972599983,,833.7357863858342,test,2,,,,,,,831.2501010596752,831.7474274709821,831.7474274709821,831.764188170433,832.3986104950309,832.7500668466091,832.9000840261579,833.7548707053065,left,1,0.8230742439627647,0.65,,,,,,,,,,,s040,001,2024-09-26_14h02.25.505,simplestop_skeleton,2022.2.2,59.599264317176115,
None,None,,,,,,,,,1,0,1,0,7,3,31,2,,,,,,,,,833.7362292259932,go,squareblack.png,right,0.65,,,,,,,,,,,,,,,,,,0.0016216039657592773,0.48950087279081345,,836.2373287752271,test,2,,,,,,,833.7548707053065,834.2515189871192,834.2515189871192,834.2682284712791,834.9022007584572,835.2530072778463,835.4027777463198,836.2548581212759,right,1,0.8673982620239258,0.65,,,,,,,,,,,s040,001,2024-09-26_14h02.25.505,simplestop_skeleton,2022.2.2,59.599264317176115,
None,None,,,,,,,,,1,0,1,0,8,0,32,1,,,,,,,,,836.2378768250346,go,squareblack.png,right,0.65,,,,,,,,,,,,,,,,,,0.0012426599860191345,0.4888485074043274,,838.741385743022,test,2,,,,,,,836.2548581212759,836.753285638988,836.753285638988,836.7697310447693,837.4043153226376,837.755539149046,837.905698493123,838.7629510760307,right,1,0.8241283819079399,0.65,,,,,,,,,,,s040,001,2024-09-26_14h02.25.505,simplestop_skeleton,2022.2.2,59.599264317176115,
None,None,,,,,,,,,1,0,1,0,8,1,33,3,,,,,,,,,838.7420241832733,stop,circleblack.png,left,0.65,,,,,,,,,,,,,,,,,,0.0024293437600135803,0.48648229986429214,1.1372695937752724,841.2435665503144,test,2,,,,,,,838.7629510760307,839.2561448067427,839.2561448067427,839.2726951614022,839.9066796898842,840.2572255954146,840.4073964804411,841.2602427825332,left,1,0.7058639898896217,0.6,,,,,,,,,,,s040,001,2024-09-26_14h02.25.505,simplestop_skeleton,2022.2.2,59.599264317176115,
None,None,,,,,,,,,1,0,1,0,8,2,34,2,,,,,,,,,841.2440118566155,go,circleblack.png,left,0.6,,,,,,,,,,,,,,,,,,0.0012526214122772217,0.4901464506983757,,843.746132619679,test,2,,,,,,,841.2602427825332,841.7599280327559,841.7599280327559,841.7599280327559,842.360772550106,842.7596029415727,842.8764804527164,843.7632302045822,left,1,0.6013275012373924,0.6,,,,,,,,,,,s040,001,2024-09-26_14h02.25.505,simplestop_skeleton,2022.2.2,59.599264317176115,
None,None,,,,,,,,,1,0,1,0,8,3,35,1,,,,,,,,,843.7465885207057,stop,circleblack.png,left,0.6,,,,,,,,,,,,,,,,,,0.0012572109699249268,0.49022920429706573,1.089599147439003,846.2494051679969,test,2,,,,,,,843.7632302045822,844.2626268416643,844.2626268416643,844.2626268416643,844.8619048893452,845.2632595300674,845.3635295331478,846.2685950547457,left,1,0.6785204336047173,0.55,,,,,,,,,,,s040,001,2024-09-26_14h02.25.505,simplestop_skeleton,2022.2.2,59.599264317176115,
None,None,,,,,,,,,1,0,1,0,9,0,36,3,,,,,,,,,846.2498290762305,go,circleblack.png,left,0.55,,,,,,,,,,,,,,,,,,0.001318998634815216,0.48978231102228165,,848.7508308514953,test,2,,,,,,,846.2685950547457,846.7657746896148,846.7657746896148,846.782136157155,847.3161940127611,847.7672063186765,847.8168975487351,848.7726713046432,left,1,0.9371815323829651,0.55,,,,,,,,,,,s040,001,2024-09-26_14h02.25.505,simplestop_skeleton,2022.2.2,59.599264317176115,
None,None,,,,,,,,,1,0,1,0,9,1,37,2,,,,,,,,,848.7512821853161,stop,squareblack.png,right,0.55,,,,,,,,,,,,,,,,,,0.007150016725063324,0.4912688806653023,1.0404748916625977,851.2550688534975,test,2,,,,,,,848.7726713046432,849.2684695273638,849.2684695273638,849.285068385303,849.8175024837255,850.2690207138658,850.3190505206585,851.2740363329649,None,0,,0.6,,,,,,,,,,,s040,001,2024-09-26_14h02.25.505,simplestop_skeleton,2022.2.2,59.599264317176115,
None,None,,,,,,,,,1,0,1,0,9,2,38,1,,,,,,,,,851.2554935887456,stop,circleblack.png,left,0.6,,,,,,,,,,,,,,,,,,0.001819409430027008,0.48988085985183716,1.0907347276806831,853.7576612457633,test,2,,,,,,,851.2740363329649,851.7708306387067,851.7708306387067,851.7876607850194,852.3718351051211,852.7706823647022,852.8875995948911,853.7765505537391,left,1,0.5261621102690697,0.55,,,,,,,,,,,s040,001,2024-09-26_14h02.25.505,simplestop_skeleton,2022.2.2,59.599264317176115,
None,None,,,,,,,,,1,0,1,0,9,3,39,3,,,,,,,,,853.7581007108092,go,squareblack.png,right,0.55,,,,,,,,,,,,,,,,,,0.001607559621334076,0.4898845702409744,,856.2597062662244,test,2,,,,,,,853.7765505537391,854.2737062722445,854.2737062722445,854.2903243526816,854.8245382457972,855.27481970191,855.34015532583,856.2768533751369,right,1,0.7237450331449509,0.55,,,,,,,,,,,s040,001,2024-09-26_14h02.25.505,simplestop_skeleton,2022.2.2,59.599264317176115,
None,None,,,,,,,,,1,0,1,0,10,0,40,1,,,,,,,,,856.2601314336061,stop,squareblack.png,right,0.55,,,,,,,,,,,,,,,,,,0.0012025758624076843,0.4903416484594345,1.0410591810941696,858.7628185078502,test,2,,,,,,,856.2768533751369,856.7766164913774,856.7766164913774,856.7766164913774,857.3270866796374,857.7762452289462,857.843104802072,858.780016541481,right,1,0.7199317440390587,0.5,,,,,,,,,,,s040,001,2024-09-26_14h02.25.505,simplestop_skeleton,2022.2.2,59.599264317176115,
None,None,,,,,,,,,1,0,1,0,10,1,41,1,,,,,,,,,858.7632629051805,go,circleblack.png,left,0.5,,,,,,,,,,,,,,,,,,0.0019794702529907227,0.49017974734306335,,861.2644773796201,test,2,,,,,,,858.780016541481,859.2790814638138,859.2790814638138,859.2790814638138,859.7796652019024,860.2803578004241,860.2803578004241,861.2818123400211,left,1,1.0689074397087097,0.5,,,,,,,,,,,s040,001,2024-09-26_14h02.25.505,simplestop_skeleton,2022.2.2,59.599264317176115,
None,None,,,,,,,,,1,0,1,0,10,2,42,2,,,,,,,,,861.264907412231,go,squareblack.png,right,0.5,,,,,,,,,,,,,,,,,,0.001587897539138794,0.4898062124848366,,863.7686246931553,test,2,,,,,,,861.2818123400211,861.7805626317859,861.7805626317859,861.7971238642931,862.2810156792402,862.7825593724847,862.7825593724847,863.7883271425962,right,1,0.6567169353365898,0.5,,,,,,,,,,,s040,001,2024-09-26_14h02.25.505,simplestop_skeleton,2022.2.2,59.599264317176115,
None,None,,,,,,,,,1,0,1,0,10,3,43,2,,,,,,,,,863.7690673172474,go,circleblack.png,left,0.5,,,,,,,,,,,,,,,,,,0.0019184276461601257,0.48947833478450775,,866.2713707983494,test,2,,,,,,,863.7883271425962,864.284865885973,864.284865885973,864.3016282692552,864.7855420187116,865.2844746410847,865.3012004196644,866.2904413193464,right,0,0.1579582467675209,0.5,,,,,,,,,,,s040,001,2024-09-26_14h02.25.505,simplestop_skeleton,2022.2.2,59.599264317176115,
None,None,,,,,,,,,1,0,1,0,11,0,44,3,,,,,,,,,866.2718214020133,go,squareblack.png,right,0.5,,,,,,,,,,,,,,,,,,0.0016551092267036438,0.49003442376852036,,868.7740853652358,test,2,,,,,,,866.2904413193464,866.787741959095,866.787741959095,866.8046016320586,867.2867349684238,867.787134423852,867.787134423852,868.7934281006455,right,1,1.560498483479023,0.5,,,,,,,,,,,s040,001,2024-09-26_14h02.25.505,simplestop_skeleton,2022.2.2,59.599264317176115,
$currentCorrectResponse,$currentGoStim,,,,,,,,,1,0,1,0,11,1,45,0,,,,,,,,,868.7745115980506,stop,circleblack.png,left,0.5,,,,,,,,,,,,,,,,,,0.0017547607421875,0.48977380245923996,0.9903795048594475,871.2769371792674,test,2,,,,,,,868.7934281006455,869.290226764977,869.290226764977,869.3068190515041,869.7907608225942,870.2915306761861,870.2915306761861,871.2958385944366,None,0,,0.55,,,,,,,,,,,s040,001,2024-09-26_14h02.25.505,simplestop_skeleton,2022.2.2,59.599264317176115,
None,None,,,,,,,,,1,0,1,0,11,2,46,2,,,,,,,,,871.2773705348372,go,circleblack.png,left,0.55,,,,,,,,,,,,,,,,,,0.001300707459449768,0.48995907604694366,,873.7783515453339,test,2,,,,,,,871.2958385944366,871.7930897697806,871.7930897697806,871.8095689639449,872.3437080606818,872.794454947114,872.8450391888618,873.795493863523,left,1,1.0418948456645012,0.55,,,,,,,,,,,s040,001,2024-09-26_14h02.25.505,simplestop_skeleton,2022.2.2,59.599264317176115,
None,None,,,,,,,,,1,0,1,0,11,3,47,1,,,,,,,,,873.7787832319736,go,squareblack.png,right,0.55,,,,,,,,,,,,,,,,,,0.001651674509048462,0.4897044971585274,,876.2829686105251,test,2,,,,,,,873.795493863523,874.2944466471672,874.2944466471672,874.3112381473184,874.8449805825949,875.2965854555368,875.346461944282,876.3021944537759,right,1,0.3733954653143883,0.55,,,,,,,,,,,s040,001,2024-09-26_14h02.25.505,simplestop_skeleton,2022.2.2,59.599264317176115,
,,,,,,,,,,1,0,1,0,,,,,,,,,,,,,,,,,,,,,,,,,,,,,,,,,,,,,,,,,,,,,,,,,,,,,,,,,,,876.3021944537759,876.3021944537759,return,3.5252829119563103,"[{'fileName': 'squareblack.png', 'correct_response': 'right', 'condition': 'go'}, {'fileName': 'circleblack.png', 'correct_response': 'left', 'condition': 'go'}, {'fileName': 'squareblack.png', 'correct_response': 'right', 'condition': 'go'}, {'fileName': 'circleblack.png', 'correct_response': 'left', 'condition': 'go'}, {'fileName': 'circleblack.png', 'correct_response': 'left', 'condition': 'stop'}, {'fileName': 'circleblack.png', 'correct_response': 'left', 'condition': 'go'}, {'fileName': 'squareblack.png', 'correct_response': 'right', 'condition': 'stop'}, {'fileName': 'squareblack.png', 'correct_response': 'right', 'condition': 'stop'}, {'fileName': 'squareblack.png', 'correct_response': 'right', 'condition': 'go'}, {'fileName': 'circleblack.png', 'correct_response': 'left', 'condition': 'stop'}, {'fileName': 'squareblack.png', 'correct_response': 'right', 'condition': 'go'}, {'fileName': 'circleblack.png', 'correct_response': 'left', 'condition': 'go'}, {'fileName': 'circleblack.png', 'correct_response': 'left', 'condition': 'go'}, {'fileName': 'squareblack.png', 'correct_response': 'right', 'condition': 'stop'}, {'fileName': 'circleblack.png', 'correct_response': 'left', 'condition': 'stop'}, {'fileName': 'circleblack.png', 'correct_response': 'left', 'condition': 'go'}, {'fileName': 'squareblack.png', 'correct_response': 'right', 'condition': 'go'}, {'fileName': 'squareblack.png', 'correct_response': 'right', 'condition': 'go'}, {'fileName': 'squareblack.png', 'correct_response': 'right', 'condition': 'stop'}, {'fileName': 'squareblack.png', 'correct_response': 'right', 'condition': 'go'}, {'fileName': 'circleblack.png', 'correct_response': 'left', 'condition': 'stop'}, {'fileName': 'squareblack.png', 'correct_response': 'right', 'condition': 'go'}, {'fileName': 'circleblack.png', 'correct_response': 'left', 'condition': 'go'}, {'fileName': 'circleblack.png', 'correct_response': 'left', 'condition': 'go'}, {'fileName': 'circleblack.png', 'correct_response': 'left', 'condition': 'go'}, {'fileName': 'squareblack.png', 'correct_response': 'right', 'condition': 'go'}, {'fileName': 'squareblack.png', 'correct_response': 'right', 'condition': 'stop'}, {'fileName': 'circleblack.png', 'correct_response': 'left', 'condition': 'go'}, {'fileName': 'circleblack.png', 'correct_response': 'left', 'condition': 'go'}, {'fileName': 'circleblack.png', 'correct_response': 'left', 'condition': 'go'}, {'fileName': 'squareblack.png', 'correct_response': 'right', 'condition': 'go'}, {'fileName': 'circleblack.png', 'correct_response': 'left', 'condition': 'stop'}, {'fileName': 'circleblack.png', 'correct_response': 'left', 'condition': 'stop'}, {'fileName': 'squareblack.png', 'correct_response': 'right', 'condition': 'go'}, {'fileName': 'squareblack.png', 'correct_response': 'right', 'condition': 'stop'}, {'fileName': 'squareblack.png', 'correct_response': 'right', 'condition': 'go'}, {'fileName': 'squareblack.png', 'correct_response': 'right', 'condition': 'go'}, {'fileName': 'circleblack.png', 'correct_response': 'left', 'condition': 'go'}, {'fileName': 'squareblack.png', 'correct_response': 'right', 'condition': 'stop'}, {'fileName': 'circleblack.png', 'correct_response': 'left', 'condition': 'stop'}, {'fileName': 'circleblack.png', 'correct_response': 'left', 'condition': 'go'}, {'fileName': 'circleblack.png', 'correct_response': 'left', 'condition': 'go'}, {'fileName': 'squareblack.png', 'correct_response': 'right', 'condition': 'go'}, {'fileName': 'squareblack.png', 'correct_response': 'right', 'condition': 'stop'}, {'fileName': 'circleblack.png', 'correct_response': 'left', 'condition': 'go'}, {'fileName': 'squareblack.png', 'correct_response': 'right', 'condition': 'go'}, {'fileName': 'squareblack.png', 'correct_response': 'right', 'condition': 'go'}, {'fileName': 'circleblack.png', 'correct_response': 'left', 'condition': 'stop'}]",,,,,,s040,001,2024-09-26_14h02.25.505,simplestop_skeleton,2022.2.2,59.599264317176115,
None,None,,,,,,,,,2,0,2,0,0,0,0,2,,,,,,,,,879.8615494817495,go,squareblack.png,right,0.55,,,,,,,,,,,,,,,,,,0.0024306848645210266,0.49465956538915634,,882.3727135211229,test,3,,,,,,,879.8860191106796,880.3846536502242,880.3846536502242,880.401082970202,880.9349941089749,881.3870345130563,881.4370257183909,882.392232209444,right,1,0.9796225056052208,0.55,,,,,,,,,,,s040,001,2024-09-26_14h02.25.505,simplestop_skeleton,2022.2.2,59.599264317176115,
None,None,,,,,,,,,2,0,2,0,0,1,1,1,,,,,,,,,882.3732434362173,go,circleblack.png,left,0.55,,,,,,,,,,,,,,,,,,0.0019874274730682373,0.4894126281142235,,884.873813919723,test,3,,,,,,,882.392232209444,882.8887819498777,882.8887819498777,882.9052159115672,883.439848922193,883.8882443606853,883.9548996165395,884.8918411359191,left,1,0.45114436745643616,0.55,,,,,,,,,,,s040,001,2024-09-26_14h02.25.505,simplestop_skeleton,2022.2.2,59.599264317176115,
None,None,,,,,,,,,2,0,2,0,0,2,2,1,,,,,,,,,884.8742494657636,go,squareblack.png,right,0.55,,,,,,,,,,,,,,,,,,0.0015665814280509949,0.4901258498430252,,887.3781027495861,test,3,,,,,,,884.8918411359191,885.391182616353,885.391182616353,885.4074676036835,885.9425082057714,886.3911441415548,886.4582803472877,887.3983867838979,right,1,0.4453109949827194,0.55,,,,,,,,,,,s040,001,2024-09-26_14h02.25.505,simplestop_skeleton,2022.2.2,59.599264317176115,
$currentCorrectResponse,$currentGoStim,,,,,,,,,2,0,2,0,0,3,3,0,,,,,,,,,887.3785475641489,go,circleblack.png,left,0.55,,,,,,,,,,,,,,,,,,0.002135239541530609,0.4891831800341606,,889.8804463893175,test,3,,,,,,,887.3983867838979,887.8943333998322,887.8943333998322,887.910882204771,888.4447111859918,888.893982052803,888.9439379125834,889.8974059596658,left,1,0.5745040103793144,0.55,,,,,,,,,,,s040,001,2024-09-26_14h02.25.505,simplestop_skeleton,2022.2.2,59.599264317176115,
$currentCorrectResponse,$currentGoStim,,,,,,,,,2,0,2,0,1,0,4,0,,,,,,,,,889.8808764219284,stop,circleblack.png,left,0.55,,,,,,,,,,,,,,,,,,0.0012880414724349976,0.4901620000600815,1.0408338531851768,892.3832551762462,test,3,,,,,,,889.8974059596658,890.3967377692461,890.3967377692461,890.3967377692461,890.9475030303001,891.3981682434678,891.4479855448008,892.4004490450025,left,1,0.722266398370266,0.5,,,,,,,,,,,s040,001,2024-09-26_14h02.25.505,simplestop_skeleton,2022.2.2,59.599264317176115,
None,None,,,,,,,,,2,0,2,0,1,1,5,1,,,,,,,,,892.3836791738868,go,circleblack.png,left,0.5,,,,,,,,,,,,,,,,,,0.001263149082660675,0.4900408089160919,,894.8857742771506,test,3,,,,,,,892.4004490450025,892.8995768278837,892.8995768278837,892.8995768278837,893.4001309275627,893.8992236554623,893.8992236554623,894.9048657938838,left,1,0.5268572866916656,0.5,,,,,,,,,,,s040,001,2024-09-26_14h02.25.505,simplestop_skeleton,2022.2.2,59.599264317176115,
$currentCorrectResponse,$currentGoStim,,,,,,,,,2,0,2,0,1,2,6,0,,,,,,,,,894.8862035945058,stop,squareblack.png,right,0.5,,,,,,,,,,,,,,,,,,0.0016689077019691467,0.4906756430864334,0.9910311177372932,897.388479411602,test,3,,,,,,,894.9048657938838,895.4026142954826,895.4026142954826,895.419209100306,895.9030367657542,896.4023564979434,896.4023564979434,897.4058286175132,right,1,0.5346744358539581,0.45,,,,,,,,,,,s040,001,2024-09-26_14h02.25.505,simplestop_skeleton,2022.2.2,59.599264317176115,
None,None,,,,,,,,,2,0,2,0,1,3,7,2,,,,,,,,,897.3889177814126,stop,squareblack.png,right,0.45,,,,,,,,,,,,,,,,,,0.0011866241693496704,0.490142859518528,0.9405794143676758,899.8918485864997,test,3,,,,,,,897.4058286175132,897.9053044766188,897.9053044766188,897.9053044766188,898.3557210713625,898.9051506742835,898.854932911694,899.908179461956,right,1,0.6365636512637138,0.4,,,,,,,,,,,s040,001,2024-09-26_14h02.25.505,simplestop_skeleton,2022.2.2,59.599264317176115,
None,None,,,,,,,,,2,0,2,0,2,0,8,1,,,,,,,,,899.8922741115093,go,squareblack.png,right,0.4,,,,,,,,,,,,,,,,,,0.0011766478419303894,0.48980996012687683,,902.3941151127219,test,3,,,,,,,899.908179461956,900.4077869877219,900.4077869877219,900.4077869877219,900.8086889609694,901.4075407534838,901.3241526037455,902.4117639958858,right,1,0.534258283674717,0.4,,,,,,,,,,,s040,001,2024-09-26_14h02.25.505,simplestop_skeleton,2022.2.2,59.599264317176115,
None,None,,,,,,,,,2,0,2,0,2,1,9,1,,,,,,,,,902.3945640102029,stop,circleblack.png,left,0.4,,,,,,,,,,,,,,,,,,0.0019288808107376099,0.4899948239326477,0.8905325159430504,904.8972416445613,test,3,,,,,,,902.4117639958858,902.9107461571693,902.9107461571693,902.9274224713445,903.3112063482404,903.9117700606585,903.8117535486817,904.9163730740547,None,0,,0.45,,,,,,,,,,,s040,001,2024-09-26_14h02.25.505,simplestop_skeleton,2022.2.2,59.599264317176115,
$currentCorrectResponse,$currentGoStim,,,,,,,,,2,0,2,0,2,2,10,0,,,,,,,,,904.8976876586676,go,squareblack.png,right,0.45,,,,,,,,,,,,,,,,,,0.0017916038632392883,0.490376777946949,,907.4001719802618,test,3,,,,,,,904.9163730740547,905.4135638177395,905.4135638177395,905.4304347783327,905.8645776957273,906.4136916697025,906.3797954842448,907.4193736761808,right,1,0.4363573491573334,0.45,,,,,,,,,,,s040,001,2024-09-26_14h02.25.505,simplestop_skeleton,2022.2.2,59.599264317176115,
None,None,,,,,,,,,2,0,2,0,2,3,11,3,,,,,,,,,907.4006883874536,go,circleblack.png,left,0.45,,,,,,,,,,,,,,,,,,0.001770302653312683,0.48982642590999603,,909.9015965238214,test,3,,,,,,,907.4193736761808,907.9163661748171,907.9163661748171,907.933186262846,908.3667815625668,908.9177173748612,908.8676439374685,909.9182612895966,left,1,0.8021733313798904,0.45,,,,,,,,,,,s040,001,2024-09-26_14h02.25.505,simplestop_skeleton,2022.2.2,59.599264317176115,
$currentCorrectResponse,$currentGoStim,,,,,,,,,2,0,2,0,3,0,12,0,,,,,,,,,909.902047790587,go,circleblack.png,left,0.45,,,,,,,,,,,,,,,,,,0.0012250766158103943,0.48976948857307434,,912.4056742861867,test,3,,,,,,,909.9182612895966,910.4174224436283,910.4174224436283,910.4174224436283,910.8680280670524,911.4204108342528,911.3698986321688,912.425178155303,left,1,0.8510324060916901,0.45,,,,,,,,,,,s040,001,2024-09-26_14h02.25.505,simplestop_skeleton,2022.2.2,59.599264317176115,
None,None,,,,,,,,,2,0,2,0,3,1,13,3,,,,,,,,,912.4060999676585,stop,squareblack.png,right,0.45,,,,,,,,,,,,,,,,,,0.0016179084777832031,0.4896298721432686,0.9402822777628899,914.9087513908744,test,3,,,,,,,912.425178155303,912.9217613190413,912.9217613190413,912.9384548142552,913.3721756339073,913.9227630496025,913.8727820664644,914.9280300885439,None,0,,0.5,,,,,,,,,,,s040,001,2024-09-26_14h02.25.505,simplestop_skeleton,2022.2.2,59.599264317176115,
$currentCorrectResponse,$currentGoStim,,,,,,,,,2,0,2,0,3,2,14,0,,,,,,,,,914.9092002436519,stop,circleblack.png,left,0.5,,,,,,,,,,,,,,,,,,0.0018806681036949158,0.4893784746527672,0.9899891763925552,917.410544373095,test,3,,,,,,,914.9280300885439,915.4245987907052,915.4245987907052,915.441186517477,915.9250359088182,916.4240795448422,916.4409587904811,917.4278576374054,left,1,0.648310050368309,0.45,,,,,,,,,,,s040,001,2024-09-26_14h02.25.505,simplestop_skeleton,2022.2.2,59.599264317176115,
None,None,,,,,,,,,2,0,2,0,3,3,15,1,,,,,,,,,917.4110055267811,go,circleblack.png,left,0.45,,,,,,,,,,,,,,,,,,0.001268044114112854,0.4903371334075928,,919.9124037325382,test,3,,,,,,,917.4278576374054,917.9272090643644,917.9272090643644,917.9272090643644,918.3776459693909,918.9288087487221,918.8784983754158,919.9291418194771,left,1,0.8090946078300476,0.45,,,,,,,,,,,s040,001,2024-09-26_14h02.25.505,simplestop_skeleton,2022.2.2,59.599264317176115,
None,None,,,,,,,,,2,0,2,0,4,0,16,3,,,,,,,,,919.9128373712301,go,squareblack.png,right,0.45,,,,,,,,,,,,,,,,,,0.001559630036354065,0.4899083152413368,,922.4165885746479,test,3,,,,,,,919.9291418194771,920.4284941777587,920.4284941777587,920.4284941777587,920.87923848629,921.4312079250813,921.3802992627025,922.4354097992182,right,1,0.7822233214974403,0.45,,,,,,,,,,,s040,001,2024-09-26_14h02.25.505,simplestop_skeleton,2022.2.2,59.599264317176115,
None,None,,,,,,,,,2,0,2,0,4,1,17,1,,,,,,,,,922.4170188829303,go,squareblack.png,right,0.45,,,,,,,,,,,,,,,,,,0.0012384727597236633,0.4898514598608017,,924.9196863994002,test,3,,,,,,,922.4354097992182,922.9328046888113,922.9328046888113,922.94948618114,923.3817785233259,923.9325390681624,923.8824458345771,924.9382404014468,right,1,0.03396887332201004,0.45,,,,,,,,,,,s040,001,2024-09-26_14h02.25.505,simplestop_skeleton,2022.2.2,59.599264317176115,
None,None,,,,,,,,,2,0,2,0,4,2,18,3,,,,,,,,,924.920116469264,stop,squareblack.png,right,0.45,,,,,,,,,,,,,,,,,,0.001253671944141388,0.4899858236312866,0.9402170404791832,927.4238816872239,test,3,,,,,,,924.9382404014468,925.4355499967933,925.4355499967933,925.4524234160781,925.88608931005,926.4367989897728,926.3867965340614,927.4426496475935,None,0,,0.5,,,,,,,,,,,s040,001,2024-09-26_14h02.25.505,simplestop_skeleton,2022.2.2,59.599264317176115,
$currentCorrectResponse,$currentGoStim,,,,,,,,,2,0,2,0,4,3,19,0,,,,,,,,,927.4243308678269,go,squareblack.png,right,0.5,,,,,,,,,,,,,,,,,,0.001972287893295288,0.4881244823336601,,929.9249203130603,test,3,,,,,,,927.4426496475935,927.9387522861362,927.9387522861362,927.9551975131035,928.4392343237996,928.9379780441523,928.9546904936433,929.9484582096338,right,1,0.6721252650022507,0.5,,,,,,,,,,,s040,001,2024-09-26_14h02.25.505,simplestop_skeleton,2022.2.2,59.599264317176115,
None,None,,,,,,,,,2,0,2,0,5,0,20,3,,,,,,,,,929.9253684282303,stop,circleblack.png,left,0.5,,,,,,,,,,,,,,,,,,0.00849294662475586,0.49006447196006775,0.9909659996628761,932.4273294508457,test,3,,,,,,,929.9484582096338,930.441096894443,930.441096894443,930.4580430015922,930.9419280961156,931.4407610446215,931.4574319794774,932.4449716582894,None,0,,0.55,,,,,,,,,,,s040,001,2024-09-26_14h02.25.505,simplestop_skeleton,2022.2.2,59.599264317176115,
None,None,,,,,,,,,2,0,2,0,5,1,21,2,,,,,,,,,932.4277566075325,go,squareblack.png,right,0.55,,,,,,,,,,,,,,,,,,0.001766309142112732,0.49038150906562805,,934.9309080317616,test,3,,,,,,,932.4449716582894,932.9439978823066,932.9439978823066,932.9605669230223,933.4948090463877,933.9442305341363,934.0103677585721,934.9500907212496,right,1,0.7483432665467262,0.55,,,,,,,,,,,s040,001,2024-09-26_14h02.25.505,simplestop_skeleton,2022.2.2,59.599264317176115,
None,None,,,,,,,,,2,0,2,0,5,2,22,3,,,,,,,,,934.9313458129764,go,circleblack.png,left,0.55,,,,,,,,,,,,,,,,,,0.0018352344632148743,0.489870548248291,,937.432748451829,test,3,,,,,,,934.9500907212496,935.4469314962626,935.4469314962626,935.463378213346,935.997267626226,936.4463127553463,936.5131826102734,937.4501055851579,left,1,0.6894176676869392,0.55,,,,,,,,,,,s040,001,2024-09-26_14h02.25.505,simplestop_skeleton,2022.2.2,59.599264317176115,
None,None,,,,,,,,,2,0,2,0,5,3,23,1,,,,,,,,,937.433177061379,go,circleblack.png,left,0.55,,,,,,,,,,,,,,,,,,0.00132780522108078,0.49059440195560455,,939.9346614778042,test,3,,,,,,,937.4501055851579,937.9494004845619,937.9494004845619,937.9494004845619,938.5001089796424,938.9507369548082,939.0006572604179,939.9514940530062,left,1,0.9631451144814491,0.55,,,,,,,,,,,s040,001,2024-09-26_14h02.25.505,simplestop_skeleton,2022.2.2,59.599264317176115,
None,None,,,,,,,,,2,0,2,0,6,0,24,1,,,,,,,,,939.9351067021489,go,circleblack.png,left,0.55,,,,,,,,,,,,,,,,,,0.001230776309967041,0.4896419048309326,,942.4385993108153,test,3,,,,,,,939.9514940530062,940.4506809189916,940.4506809189916,940.4673566147685,941.0013456121087,941.452635794878,941.5029936060309,942.4579093307257,left,1,0.7703658640384674,0.55,,,,,,,,,,,s040,001,2024-09-26_14h02.25.505,simplestop_skeleton,2022.2.2,59.599264317176115,
None,None,,,,,,,,,2,0,2,0,6,1,25,1,,,,,,,,,942.4390259087086,go,squareblack.png,right,0.55,,,,,,,,,,,,,,,,,,0.0017115920782089233,0.4898953139781952,,944.9402220994234,test,3,,,,,,,942.4579093307257,942.9550670012832,942.9550670012832,942.9715073257685,943.5055383592844,943.9563539177179,944.0060956329107,944.957044608891,right,1,0.8014545813202858,0.55,,,,,,,,,,,s040,001,2024-09-26_14h02.25.505,simplestop_skeleton,2022.2.2,59.599264317176115,
None,None,,,,,,,,,2,0,2,0,6,2,26,2,,,,,,,,,944.9406696408987,stop,squareblack.png,right,0.55,,,,,,,,,,,,,,,,,,0.001154288649559021,0.4895932748913765,1.0403995588421822,947.4443260803819,test,3,,,,,,,944.957044608891,945.456122405827,945.456122405827,945.4727525115013,946.0067536979914,946.4587300270796,946.50882345438,947.4637106359005,right,1,0.7686361744999886,0.5,,,,,,,,,,,s040,001,2024-09-26_14h02.25.505,simplestop_skeleton,2022.2.2,59.599264317176115,
None,None,,,,,,,,,2,0,2,0,6,3,27,3,,,,,,,,,947.4447755515575,go,circleblack.png,left,0.5,,,,,,,,,,,,,,,,,,0.0019303709268569946,0.4898146316409111,,949.9469700828195,test,3,,,,,,,947.4637106359005,947.9605047777295,947.9605047777295,947.9770389795303,948.4608608186245,948.9600461795926,948.9767333418131,949.963856652379,left,1,0.5343615785241127,0.5,,,,,,,,,,,s040,001,2024-09-26_14h02.25.505,simplestop_skeleton,2022.2.2,59.599264317176115,
None,None,,,,,,,,,2,0,2,0,7,0,28,2,,,,,,,,,949.9474217668176,go,circleblack.png,left,0.5,,,,,,,,,,,,,,,,,,0.0012484341859817505,0.4897848144173622,,952.4491978809237,test,3,,,,,,,949.963856652379,950.46308452636,950.46308452636,950.46308452636,950.9636537432671,951.4627879858017,951.4795530512929,952.4659927859902,left,1,0.5284271836280823,0.5,,,,,,,,,,,s040,001,2024-09-26_14h02.25.505,simplestop_skeleton,2022.2.2,59.599264317176115,
None,None,,,,,,,,,2,0,2,0,7,1,29,3,,,,,,,,,952.4497001543641,go,circleblack.png,left,0.5,,,,,,,,,,,,,,,,,,0.001241445541381836,0.49035438895225525,,954.9535452276468,test,3,,,,,,,952.4659927859902,952.9657612517476,952.9657612517476,952.9657612517476,953.466521538794,953.9670631363988,953.9670631363988,954.9714540019631,left,1,0.7572764158248901,0.5,,,,,,,,,,,s040,001,2024-09-26_14h02.25.505,simplestop_skeleton,2022.2.2,59.599264317176115,
None,None,,,,,,,,,2,0,2,0,7,2,30,2,,,,,,,,,954.9539713039994,go,squareblack.png,right,0.5,,,,,,,,,,,,,,,,,,0.0022978782653808594,0.48901665955781937,,957.455369643867,test,3,,,,,,,954.9714540019631,955.4686709046364,955.4686709046364,955.4854209348559,955.9695061221719,956.4699207916856,956.4699207916856,957.4725523591042,right,1,0.7222268581390381,0.5,,,,,,,,,,,s040,001,2024-09-26_14h02.25.505,simplestop_skeleton,2022.2.2,59.599264317176115,
None,None,,,,,,,,,2,0,2,0,7,3,31,2,,,,,,,,,957.4558096006513,stop,circleblack.png,left,0.5,,,,,,,,,,,,,,,,,,0.001735888421535492,0.4901711046695709,0.9907770678400993,959.9584643170238,test,3,,,,,,,957.4725523591042,957.9716837629676,957.9716837629676,957.9716837629676,958.4725197851658,958.9712807387114,958.9880507141352,959.9776538163424,None,0,,0.55,,,,,,,,,,,s040,001,2024-09-26_14h02.25.505,simplestop_skeleton,2022.2.2,59.599264317176115,
None,None,,,,,,,,,2,0,2,0,8,0,32,1,,,,,,,,,959.9589807093143,stop,circleblack.png,left,0.55,,,,,,,,,,,,,,,,,,0.0014758780598640442,0.48917513340711594,1.040026381611824,962.4606007486582,test,3,,,,,,,959.9776538163424,960.4741603583097,960.4741603583097,960.4908336251974,961.0247668772936,961.4752883762121,961.5254616960883,962.4792209789157,right,0,1.301082082092762,0.5,,,,,,,,,,,s040,001,2024-09-26_14h02.25.505,simplestop_skeleton,2022.2.2,59.599264317176115,
$currentCorrectResponse,$currentGoStim,,,,,,,,,2,0,2,0,8,1,33,0,,,,,,,,,962.4610402137041,go,squareblack.png,right,0.5,,,,,,,,,,,,,,,,,,0.0016205310821533203,0.48858972638845444,,964.9636930525303,test,3,,,,,,,962.4792209789157,962.9755111187696,962.9755111187696,962.9927311614156,963.4761262461543,963.9766158238053,963.9766158238053,964.9823016151786,None,0,,0.5,,,,,,,,,,,s040,001,2024-09-26_14h02.25.505,simplestop_skeleton,2022.2.2,59.599264317176115,
None,None,,,,,,,,,2,0,2,0,8,2,34,2,,,,,,,,,964.9641343280673,stop,squareblack.png,right,0.5,,,,,,,,,,,,,,,,,,0.0012076124548912048,0.48990393429994583,0.9904806613922119,967.4651475027204,test,3,,,,,,,964.9823016151786,965.4799601510167,965.4799601510167,965.496728785336,965.9804442748427,966.481271661818,966.481271661818,967.4818763807416,right,1,0.9273296743631363,0.45,,,,,,,,,,,s040,001,2024-09-26_14h02.25.505,simplestop_skeleton,2022.2.2,59.599264317176115,
None,None,,,,,,,,,2,0,2,0,8,3,35,2,,,,,,,,,967.4655792042613,go,squareblack.png,right,0.45,,,,,,,,,,,,,,,,,,0.0012058541178703308,0.4896816089749336,,969.9691895768046,test,3,,,,,,,967.4818763807416,967.9811996594071,967.9811996594071,967.9811996594071,968.4318892359734,968.9833248332143,968.9329068139195,969.9880551248789,None,0,,0.45,,,,,,,,,,,s040,001,2024-09-26_14h02.25.505,simplestop_skeleton,2022.2.2,59.599264317176115,
None,None,,,,,,,,,2,0,2,0,9,0,36,3,,,,,,,,,969.9696377441287,go,squareblack.png,right,0.45,,,,,,,,,,,,,,,,,,0.0012753605842590332,0.48991287499666214,,972.4706181660295,test,3,,,,,,,969.9880551248789,970.4857035204768,970.4857035204768,970.5020171031356,970.9361159354448,971.4864297732711,971.4365559667349,972.4934260323644,right,1,1.0520715415477753,0.45,,,,,,,,,,,s040,001,2024-09-26_14h02.25.505,simplestop_skeleton,2022.2.2,59.599264317176115,
$currentCorrectResponse,$currentGoStim,,,,,,,,,2,0,2,0,9,1,37,0,,,,,,,,,972.4710478484631,go,circleblack.png,left,0.45,,,,,,,,,,,,,,,,,,0.008233584463596344,0.49100950360298157,,974.9752352461219,test,3,,,,,,,972.4934260323644,972.9878879338503,972.9878879338503,973.0047238618135,973.4372542947531,973.9877540618181,973.9378104582429,974.9944308027625,left,1,0.8275376111268997,0.45,,,,,,,,,,,s040,001,2024-09-26_14h02.25.505,simplestop_skeleton,2022.2.2,59.599264317176115,
$currentCorrectResponse,$currentGoStim,,,,,,,,,2,0,2,0,9,2,38,0,,,,,,,,,974.9756629243493,stop,squareblack.png,right,0.45,,,,,,,,,,,,,,,,,,0.0017595067620277405,0.4892520383000374,0.9398908764123917,977.4780733585358,test,3,,,,,,,974.9944308027625,975.4909207895398,975.4909207895398,975.5079653039575,975.9414719715714,976.4921162575483,976.4421622157097,977.4969688281417,None,0,,0.5,,,,,,,,,,,s040,001,2024-09-26_14h02.25.505,simplestop_skeleton,2022.2.2,59.599264317176115,
None,None,,,,,,,,,2,0,2,0,9,3,39,1,,,,,,,,,977.4785102084279,stop,circleblack.png,left,0.5,,,,,,,,,,,,,,,,,,0.0017627254128456116,0.4894527345895767,0.990067794919014,979.9798539057374,test,3,,,,,,,977.4969688281417,977.9935965016484,977.9935965016484,978.0104939341545,978.494358561933,978.994751572609,978.994751572609,979.9970341026783,left,1,0.6349192559719086,0.45,,,,,,,,,,,s040,001,2024-09-26_14h02.25.505,simplestop_skeleton,2022.2.2,59.599264317176115,
None,None,,,,,,,,,2,0,2,0,10,0,40,2,,,,,,,,,979.9802875295281,go,circleblack.png,left,0.45,,,,,,,,,,,,,,,,,,0.0012661665678024292,0.4900447651743889,,982.4816378727555,test,3,,,,,,,979.9970341026783,980.4962373748422,980.4962373748422,980.4962373748422,980.9468449726701,981.4978614151478,981.4477368667722,982.4986168146133,left,1,0.7354495599865913,0.45,,,,,,,,,,,s040,001,2024-09-26_14h02.25.505,simplestop_skeleton,2022.2.2,59.599264317176115,
None,None,,,,,,,,,2,0,2,0,10,1,41,2,,,,,,,,,982.4820726141334,go,circleblack.png,left,0.45,,,,,,,,,,,,,,,,,,0.001280851662158966,0.48974449187517166,,984.985776424408,test,3,,,,,,,982.4986168146133,982.9975570216775,982.9975570216775,983.0143132209778,983.4481576606631,984.0001502558589,983.9497893303633,985.0051593706012,left,1,1.0265593230724335,0.45,,,,,,,,,,,s040,001,2024-09-26_14h02.25.505,simplestop_skeleton,2022.2.2,59.599264317176115,
$currentCorrectResponse,$currentGoStim,,,,,,,,,2,0,2,0,10,2,42,0,,,,,,,,,984.9862136244774,go,squareblack.png,right,0.45,,,,,,,,,,,,,,,,,,0.0017374083399772644,0.4900151267647743,,987.4881266206503,test,3,,,,,,,985.0051593706012,985.5018064975739,985.5018064975739,985.5188574492931,985.9527404904366,986.5015567913651,986.4681850597262,987.5056700706482,right,1,0.6021720468997955,0.45,,,,,,,,,,,s040,001,2024-09-26_14h02.25.505,simplestop_skeleton,2022.2.2,59.599264317176115,
None,None,,,,,,,,,2,0,2,0,10,3,43,3,,,,,,,,,987.4885655343533,stop,squareblack.png,right,0.45,,,,,,,,,,,,,,,,,,0.0012025535106658936,0.4904913529753685,0.9407650977373123,989.9912796765566,test,3,,,,,,,987.5056700706482,988.0048751011491,988.0048751011491,988.0048751011491,988.4552905708551,989.0057957097888,988.9558808356524,990.0104753449559,None,0,,0.5,,,,,,,,,,,s040,001,2024-09-26_14h02.25.505,simplestop_skeleton,2022.2.2,59.599264317176115,
None,None,,,,,,,,,2,0,2,0,11,0,44,2,,,,,,,,,989.9917228519917,go,circleblack.png,left,0.5,,,,,,,,,,,,,,,,,,0.001891903579235077,0.4899788796901703,,992.4934156164527,test,3,,,,,,,990.0104753449559,990.5077463760972,990.5077463760972,990.5241843312979,991.0081817135215,991.5086268261075,991.5086268261075,992.5121937096119,left,1,0.6430899053812027,0.5,,,,,,,,,,,s040,001,2024-09-26_14h02.25.505,simplestop_skeleton,2022.2.2,59.599264317176115,
None,None,,,,,,,,,2,0,2,0,11,1,45,3,,,,,,,,,992.4938742592931,go,squareblack.png,right,0.5,,,,,,,,,,,,,,,,,,0.002433277666568756,0.48908793181180954,,994.9955030605197,test,3,,,,,,,992.5121937096119,993.0101017802954,993.0101017802954,993.0268046781421,993.5109232887626,994.0116970911622,994.0116970911622,995.0123757794499,right,1,0.8356591165065765,0.5,,,,,,,,,,,s040,001,2024-09-26_14h02.25.505,simplestop_skeleton,2022.2.2,59.599264317176115,
None,None,,,,,,,,,2,0,2,0,11,2,46,3,,,,,,,,,994.9959696829319,go,squareblack.png,right,0.5,,,,,,,,,,,,,,,,,,0.0011730268597602844,0.48967554420232773,,997.4994071796536,test,3,,,,,,,995.0123757794499,995.5114406868815,995.5114406868815,995.5280838832259,996.0121435672045,996.513546295464,996.513546295464,997.5191394612193,right,1,0.6661483123898506,0.5,,,,,,,,,,,s040,001,2024-09-26_14h02.25.505,simplestop_skeleton,2022.2.2,59.599264317176115,
$currentCorrectResponse,$currentGoStim,,,,,,,,,2,0,2,0,11,3,47,0,,,,,,,,,997.499855235219,stop,circleblack.png,left,0.5,,,,,,,,,,,,,,,,,,0.0018821656703948975,0.4895223453640938,0.990505263209343,1000.002424262464,test,3,,,,,,,997.5191394612193,998.0158032923937,998.0158032923937,998.0323107168078,998.516607798636,999.0152009278536,999.0319041460752,1000.0179920420051,None,0,,0.55,,,,,,,,,,,s040,001,2024-09-26_14h02.25.505,simplestop_skeleton,2022.2.2,59.599264317176115,
