corrGoResp,shape,practiceBlocks.thisRepN,practiceBlocks.thisTrialN,practiceBlocks.thisN,practiceBlocks.thisIndex,practiceTrials.thisRepN,practiceTrials.thisTrialN,practiceTrials.thisN,practiceTrials.thisIndex,stopBlocks.thisRepN,stopBlocks.thisTrialN,stopBlocks.thisN,stopBlocks.thisIndex,testTrials.thisRepN,testTrials.thisTrialN,testTrials.thisN,testTrials.thisIndex,stopPracTrialList,Test Block: 1,welcome.started,start_exp.started,start_exp.keys,start_exp.rt,instrStopText.started,start_prac.started,StartTrialTimeStamp,trialType,goStim,correctResponse,ssd,fixation.started,rules.started,goStim.started,goResp.started,fixation.stopped,stopSignal.started,stopSignal.stopped,goStim.stopped,goResp.stopped,rules.stopped,goResp.keys,goResp.corr,goResp.rt,text.started,rules_2.started,text.stopped,rules_2.stopped,fixationOnset,goStimOnset,stopSignalOnset,EndTrialTimeStamp,Phase,Block,text_5.started,key_resp_3.started,key_resp_3.keys,key_resp.started,testText.started,test_fixation.started,test_fixation.stopped,goStim_test.started,goResp_test.started,stopSignal_test.started,stopSignal_test.stopped,goStim_test.stopped,goResp_test.stopped,goResp_test.keys,goResp_test.corr,EndingSSD,goResp_test.rt,text_6.started,key_resp_4.started,key_resp_4.keys,key_resp_4.rt,Test Block: 2,Test Block: 3,ending_text.started,end_resp.started,end_resp.keys,end_resp.rt,participant,session,date,expName,psychopyVersion,frameRate,
,,,,,,,,,,,,,,,,,,"[{'fileName': 'squareblack.png', 'correct_response': 'right', 'condition': 'go'}, {'fileName': 'circleblack.png', 'correct_response': 'left', 'condition': 'go'}, {'fileName': 'squareblack.png', 'correct_response': 'right', 'condition': 'go'}, {'fileName': 'squareblack.png', 'correct_response': 'right', 'condition': 'go'}, {'fileName': 'squareblack.png', 'correct_response': 'right', 'condition': 'stop'}, {'fileName': 'squareblack.png', 'correct_response': 'right', 'condition': 'go'}, {'fileName': 'circleblack.png', 'correct_response': 'left', 'condition': 'go'}, {'fileName': 'circleblack.png', 'correct_response': 'left', 'condition': 'stop'}, {'fileName': 'squareblack.png', 'correct_response': 'right', 'condition': 'stop'}, {'fileName': 'circleblack.png', 'correct_response': 'left', 'condition': 'go'}, {'fileName': 'circleblack.png', 'correct_response': 'left', 'condition': 'stop'}, {'fileName': 'circleblack.png', 'correct_response': 'left', 'condition': 'go'}, {'fileName': 'circleblack.png', 'correct_response': 'left', 'condition': 'go'}, {'fileName': 'squareblack.png', 'correct_response': 'right', 'condition': 'go'}, {'fileName': 'squareblack.png', 'correct_response': 'right', 'condition': 'stop'}, {'fileName': 'circleblack.png', 'correct_response': 'left', 'condition': 'stop'}, {'fileName': 'squareblack.png', 'correct_response': 'right', 'condition': 'go'}, {'fileName': 'squareblack.png', 'correct_response': 'right', 'condition': 'go'}, {'fileName': 'circleblack.png', 'correct_response': 'left', 'condition': 'stop'}, {'fileName': 'circleblack.png', 'correct_response': 'left', 'condition': 'go'}, {'fileName': 'circleblack.png', 'correct_response': 'left', 'condition': 'go'}, {'fileName': 'squareblack.png', 'correct_response': 'right', 'condition': 'go'}, {'fileName': 'squareblack.png', 'correct_response': 'right', 'condition': 'stop'}, {'fileName': 'circleblack.png', 'correct_response': 'left', 'condition': 'go'}]","[{'fileName': 'circleblack.png', 'correct_response': 'left', 'condition': 'stop'}, {'fileName': 'squareblack.png', 'correct_response': 'right', 'condition': 'go'}, {'fileName': 'circleblack.png', 'correct_response': 'left', 'condition': 'stop'}, {'fileName': 'circleblack.png', 'correct_response': 'left', 'condition': 'go'}, {'fileName': 'circleblack.png', 'correct_response': 'left', 'condition': 'go'}, {'fileName': 'squareblack.png', 'correct_response': 'right', 'condition': 'stop'}, {'fileName': 'circleblack.png', 'correct_response': 'left', 'condition': 'go'}, {'fileName': 'squareblack.png', 'correct_response': 'right', 'condition': 'go'}, {'fileName': 'squareblack.png', 'correct_response': 'right', 'condition': 'go'}, {'fileName': 'squareblack.png', 'correct_response': 'right', 'condition': 'stop'}, {'fileName': 'circleblack.png', 'correct_response': 'left', 'condition': 'go'}, {'fileName': 'squareblack.png', 'correct_response': 'right', 'condition': 'go'}, {'fileName': 'circleblack.png', 'correct_response': 'left', 'condition': 'go'}, {'fileName': 'squareblack.png', 'correct_response': 'right', 'condition': 'go'}, {'fileName': 'circleblack.png', 'correct_response': 'left', 'condition': 'go'}, {'fileName': 'squareblack.png', 'correct_response': 'right', 'condition': 'go'}, {'fileName': 'squareblack.png', 'correct_response': 'right', 'condition': 'stop'}, {'fileName': 'circleblack.png', 'correct_response': 'left', 'condition': 'stop'}, {'fileName': 'circleblack.png', 'correct_response': 'left', 'condition': 'go'}, {'fileName': 'squareblack.png', 'correct_response': 'right', 'condition': 'stop'}, {'fileName': 'circleblack.png', 'correct_response': 'left', 'condition': 'go'}, {'fileName': 'squareblack.png', 'correct_response': 'right', 'condition': 'go'}, {'fileName': 'circleblack.png', 'correct_response': 'left', 'condition': 'stop'}, {'fileName': 'squareblack.png', 'correct_response': 'right', 'condition': 'go'}, {'fileName': 'squareblack.png', 'correct_response': 'right', 'condition': 'go'}, {'fileName': 'circleblack.png', 'correct_response': 'left', 'condition': 'go'}, {'fileName': 'circleblack.png', 'correct_response': 'left', 'condition': 'go'}, {'fileName': 'circleblack.png', 'correct_response': 'left', 'condition': 'stop'}, {'fileName': 'squareblack.png', 'correct_response': 'right', 'condition': 'go'}, {'fileName': 'squareblack.png', 'correct_response': 'right', 'condition': 'go'}, {'fileName': 'circleblack.png', 'correct_response': 'left', 'condition': 'go'}, {'fileName': 'circleblack.png', 'correct_response': 'left', 'condition': 'stop'}, {'fileName': 'circleblack.png', 'correct_response': 'left', 'condition': 'go'}, {'fileName': 'squareblack.png', 'correct_response': 'right', 'condition': 'stop'}, {'fileName': 'squareblack.png', 'correct_response': 'right', 'condition': 'go'}, {'fileName': 'squareblack.png', 'correct_response': 'right', 'condition': 'stop'}, {'fileName': 'squareblack.png', 'correct_response': 'right', 'condition': 'go'}, {'fileName': 'squareblack.png', 'correct_response': 'right', 'condition': 'go'}, {'fileName': 'squareblack.png', 'correct_response': 'right', 'condition': 'go'}, {'fileName': 'squareblack.png', 'correct_response': 'right', 'condition': 'stop'}, {'fileName': 'squareblack.png', 'correct_response': 'right', 'condition': 'go'}, {'fileName': 'circleblack.png', 'correct_response': 'left', 'condition': 'go'}, {'fileName': 'circleblack.png', 'correct_response': 'left', 'condition': 'go'}, {'fileName': 'circleblack.png', 'correct_response': 'left', 'condition': 'stop'}, {'fileName': 'squareblack.png', 'correct_response': 'right', 'condition': 'stop'}, {'fileName': 'circleblack.png', 'correct_response': 'left', 'condition': 'go'}, {'fileName': 'circleblack.png', 'correct_response': 'left', 'condition': 'go'}, {'fileName': 'circleblack.png', 'correct_response': 'left', 'condition': 'stop'}]",551.790081102401,551.790081102401,return,17.984788093715906,,,,,,,,,,,,,,,,,,,,,,,,,,,,,,,,,,,,,,,,,,,,,,,,,,,,,,,,,,s10,001,2024-07-18_15h53.03.879,simplestop_skeleton,2022.2.2,60.00763811535808,
None,None,0,0,0,0,0,0,0,3,,,,,,,,,,,,,,,569.8231529630721,569.8231529630721,623.8420179374516,go,squareblack.png,right,0.35,623.8648862950504,623.8648862950504,624.3578637950122,624.3578637950122,624.3744833692908,624.7083151750267,625.2088834270835,625.358961109072,626.360249556601,626.3768419101834,right,1,0.6777668744325638,626.3768419101834,626.3768419101834,626.8873217888176,626.8873217888176,0.0027160756289958954,0.4895786680281162,0.8400293551385403,626.8618469871581,practice,1,,,,,,,,,,,,,,,,,,,,,,,,,,,,s10,001,2024-07-18_15h53.03.879,simplestop_skeleton,2022.2.2,60.00763811535808,
None,None,0,0,0,0,0,1,1,2,,,,,,,,,,,,,,,,,626.8623831644654,go,circleblack.png,left,0.35,626.8873217888176,626.8873217888176,627.3779713772237,627.3779713772237,627.3948117047548,627.7286390066147,628.229039978236,628.3791409432888,629.380658429116,629.3967481255531,left,1,0.5719687230885029,629.3967481255531,629.3967481255531,629.9020301960409,629.9020301960409,0.007875360548496246,0.489550169557333,0.8397220820188522,629.8814855106175,practice,1,,,,,,,,,,,,,,,,,,,,,,,,,,,,s10,001,2024-07-18_15h53.03.879,simplestop_skeleton,2022.2.2,60.00763811535808,
$currentCorrectResponse,$currentGoStim,0,0,0,0,0,2,2,0,,,,,,,,,,,,,,,,,629.8819033540785,go,squareblack.png,right,0.35,629.9020301960409,629.9020301960409,630.3980764187872,630.3980764187872,630.4145448021591,630.748407561332,631.248993460089,631.3993206843734,632.4002584293485,632.4167013689876,right,1,0.3348638787865639,632.4167013689876,632.4167013689876,632.9214649535716,632.9214649535716,0.0017782486975193024,0.4896636791527271,0.8404135778546333,632.9016328752041,practice,1,,,,,,,,,,,,,,,,,,,,,,,,,,,,s10,001,2024-07-18_15h53.03.879,simplestop_skeleton,2022.2.2,60.00763811535808,
None,None,0,0,0,0,0,3,3,3,,,,,,,,,,,,,,,,,632.9020778723061,go,squareblack.png,right,0.35,632.9214649535716,632.9214649535716,633.4181017391384,633.4181017391384,633.4344714581966,633.768265876919,634.2687361091375,634.4189280606806,635.4200569950044,635.4369592219591,right,1,0.4609313942492008,635.4369592219591,635.4369592219591,635.9410116150975,635.9410116150975,0.0014062747359275818,0.48989809677004814,0.840204581618309,635.9215710349381,practice,1,,,,,,,,,,,,,,,,,,,,,,,,,,,,s10,001,2024-07-18_15h53.03.879,simplestop_skeleton,2022.2.2,60.00763811535808,
$currentCorrectResponse,$currentGoStim,0,0,0,0,1,0,4,0,,,,,,,,,,,,,,,,,635.9219963662326,stop,squareblack.png,right,0.35,635.9410116150975,635.9410116150975,636.4380233436823,636.4380233436823,636.4546913467348,636.7881862558424,637.2887152694166,637.4389112256467,638.4398757219315,638.4568470269442,right,1,0.4745323322713375,638.4568470269442,638.4568470269442,638.9607460200787,638.9607460200787,0.0012263357639312744,0.48994044959545135,0.8403805457055569,638.941506922245,practice,1,,,,,,,,,,,,,,,,,,,,,,,,,,,,s10,001,2024-07-18_15h53.03.879,simplestop_skeleton,2022.2.2,60.00763811535808,
None,None,0,0,0,0,1,1,5,3,,,,,,,,,,,,,,,,,638.9419296979904,go,squareblack.png,right,0.3,638.9607460200787,638.9607460200787,639.4578039832413,639.4578039832413,639.4744808152318,639.7580627948046,640.2587495930493,640.4584930948913,641.460167221725,641.460167221725,right,1,0.5180616341531277,641.460167221725,641.460167221725,641.9652176424861,641.9652176424861,0.0011466778814792633,0.4900019243359566,0.7902319766581059,641.9448573254049,practice,1,,,,,,,,,,,,,,,,,,,,,,,,,,,,s10,001,2024-07-18_15h53.03.879,simplestop_skeleton,2022.2.2,60.00763811535808,
$currentCorrectResponse,$currentGoStim,0,0,0,0,1,2,6,0,,,,,,,,,,,,,,,,,641.9452792741358,go,circleblack.png,left,0.3,641.9652176424861,641.9652176424861,642.4612563252449,642.4612563252449,642.4779799431562,642.7616096176207,643.2619002684951,643.4621674008667,644.4634174667299,644.4799848943949,left,1,0.5568850226700306,644.4799848943949,644.4799848943949,644.9845701791346,644.9845701791346,0.0018381252884864807,0.4898195303976536,0.7903288342058659,644.9648191481829,practice,1,,,,,,,,,,,,,,,,,,,,,,,,,,,,s10,001,2024-07-18_15h53.03.879,simplestop_skeleton,2022.2.2,60.00763811535808,
None,None,0,0,0,0,1,3,7,1,,,,,,,,,,,,,,,,,644.9652405902743,stop,circleblack.png,left,0.3,644.9845701791346,644.9845701791346,645.4811834990978,645.4811834990978,645.497740034014,645.7814090251923,646.2820162549615,646.4824343174696,647.4835629612207,647.5001263059676,None,0,,647.5001263059676,647.5001263059676,648.0049596913159,648.0049596913159,0.0012681595981121063,0.49006031826138496,0.7904544398188591,647.9851240366697,practice,1,,,,,,,,,,,,,,,,,,,,,,,,,,,,s10,001,2024-07-18_15h53.03.879,simplestop_skeleton,2022.2.2,60.00763811535808,
None,None,0,0,0,0,2,0,8,2,,,,,,,,,,,,,,,,,647.9855511449277,stop,squareblack.png,right,0.35,648.0049596913159,648.0049596913159,648.5012621581554,648.5012621581554,648.5178779661655,648.8517694585025,649.3526934571564,649.5017074644566,650.5034275352955,650.5204490199685,right,1,0.3850574493408203,650.5204490199685,650.5204490199685,,,0.001648690551519394,0.49002422764897346,0.8403357602655888,651.0049316138029,practice,1,,,,,,,,,,,,,,,,,,,,,,,,,,,,s10,001,2024-07-18_15h53.03.879,simplestop_skeleton,2022.2.2,60.00763811535808,
None,None,0,0,0,0,2,1,9,3,,,,,,,,,,,,,,,,,651.0053681582212,go,circleblack.png,left,0.3,651.0247521847486,651.0247521847486,651.5211775042117,651.5211775042117,651.5379109196365,651.8218011073768,652.3222424276173,652.5223170444369,653.5234278403223,653.540047544986,left,1,0.5038093216717243,653.540047544986,653.540047544986,,,0.0017154887318611145,0.48996587470173836,0.7902550101280212,654.0250201784074,practice,1,,,,,,,,,,,,,,,,,,,,,,,,,,,,s10,001,2024-07-18_15h53.03.879,simplestop_skeleton,2022.2.2,60.00763811535808,
None,None,0,0,0,0,2,2,10,1,,,,,,,,,,,,,,,,,654.0254408121109,stop,circleblack.png,left,0.3,654.0446250028908,654.0446250028908,654.5413073152304,654.5413073152304,654.5579988323152,654.8414838351309,655.341919913888,655.5425545871258,656.5433874242008,656.5599846914411,None,0,,656.5599846914411,656.5599846914411,,,0.0013401992619037628,0.4898413196206093,0.7901855707168579,657.0447393357754,practice,1,,,,,,,,,,,,,,,,,,,,,,,,,,,,s10,001,2024-07-18_15h53.03.879,simplestop_skeleton,2022.2.2,60.00763811535808,
None,None,0,0,0,0,2,3,11,2,,,,,,,,,,,,,,,,,657.0451615899801,go,circleblack.png,left,0.35,657.0645781010389,657.0645781010389,657.5610733926296,657.5610733926296,657.5781468153,657.9115022793412,658.4119917824864,658.562308371067,659.563387658447,659.5799692422152,left,1,0.5315041914582253,659.5799692422152,659.5799692422152,660.0845582894981,660.0845582894981,0.0013278163969516754,0.48994825780391693,0.8409856408834457,660.0649122819304,practice,1,,,,,,,,,,,,,,,,,,,,,,,,,,,,s10,001,2024-07-18_15h53.03.879,simplestop_skeleton,2022.2.2,60.00763811535808,
None,None,0,0,0,0,3,0,12,1,,,,,,,,,,,,,,,,,660.0653303712606,go,circleblack.png,left,0.35,660.0845582894981,660.0845582894981,660.581424549222,660.581424549222,660.5981026552618,660.9318012930453,661.4321176446974,661.5822758376598,662.5835300423205,662.6000007018447,left,1,0.46930568665266037,662.6000007018447,662.6000007018447,663.1048919260502,663.1048919260502,0.0012436695396900177,0.48981792852282524,0.8402157984673977,663.085039164871,practice,1,,,,,,,,,,,,,,,,,,,,,,,,,,,,s10,001,2024-07-18_15h53.03.879,simplestop_skeleton,2022.2.2,60.00763811535808,
None,None,0,0,0,0,3,1,13,1,,,,,,,,,,,,,,,,,663.0854619853199,go,squareblack.png,right,0.35,663.1048919260502,663.1048919260502,663.6015701591969,663.6015701591969,663.6179258041084,663.9518356248736,664.452138826251,664.6022752299905,665.6035975813866,665.6199912726879,right,1,0.5514435283839703,665.6199912726879,665.6199912726879,666.1245975494385,666.1245975494385,0.0016857050359249115,0.4900036007165909,0.8402682468295097,666.1048938483,practice,1,,,,,,,,,,,,,,,,,,,,,,,,,,,,s10,001,2024-07-18_15h53.03.879,simplestop_skeleton,2022.2.2,60.00763811535808,
$currentCorrectResponse,$currentGoStim,0,0,0,0,3,2,14,0,,,,,,,,,,,,,,,,,666.105340976268,stop,squareblack.png,right,0.35,666.1245975494385,666.1245975494385,666.6213227920234,666.6213227920234,666.6377889290452,666.9714583344758,667.472131498158,667.6221020370722,668.6234346851707,668.6400242298841,right,1,0.49603237584233284,668.6400242298841,668.6400242298841,669.1451947540045,669.1451947540045,0.0011792667210102081,0.4900621920824051,0.8404289707541466,669.1249413564801,practice,1,,,,,,,,,,,,,,,,,,,,,,,,,,,,s10,001,2024-07-18_15h53.03.879,simplestop_skeleton,2022.2.2,60.00763811535808,
$currentCorrectResponse,$currentGoStim,0,0,0,0,3,3,15,0,,,,,,,,,,,,,,,,,669.1253596246243,stop,circleblack.png,left,0.3,669.1451947540045,669.1451947540045,669.6410355567932,669.6410355567932,669.6577431447804,669.9413924068213,670.441859934479,670.642181057483,671.6432474255562,671.659960705787,left,1,0.39688021317124367,671.659960705787,671.659960705787,,,0.001825045794248581,0.4898938126862049,0.7903733104467392,672.1447023265064,practice,1,,,,,,,,,,,,,,,,,,,,,,,,,,,,s10,001,2024-07-18_15h53.03.879,simplestop_skeleton,2022.2.2,60.00763811535808,
None,None,0,0,0,0,4,0,16,2,,,,,,,,,,,,,,,,,672.1451255269349,go,squareblack.png,right,0.25,672.1646554619074,672.1646554619074,672.6677204072475,672.6677204072475,672.6677204072475,672.9113644436002,673.4121437557042,673.6790551021695,674.6799623593688,674.6799623593688,right,1,0.562642227858305,674.6799623593688,674.6799623593688,675.1848726682365,675.1848726682365,0.0017895884811878204,0.5061800740659237,0.7398409433662891,675.165023162961,practice,1,,,,,,,,,,,,,,,,,,,,,,,,,,,,s10,001,2024-07-18_15h53.03.879,simplestop_skeleton,2022.2.2,60.00763811535808,
None,None,0,0,0,0,4,1,17,2,,,,,,,,,,,,,,,,,675.1654723025858,go,squareblack.png,right,0.25,675.1848726682365,675.1848726682365,675.6811522655189,675.6811522655189,675.6979615613818,675.9314001724124,676.4308635294437,676.6817177571356,677.6834164373577,677.7000350356102,right,1,0.37785664945840836,677.7000350356102,677.7000350356102,678.204943574965,678.204943574965,0.0012844651937484741,0.4897412993013859,0.7399949058890343,678.1850413158536,practice,1,,,,,,,,,,,,,,,,,,,,,,,,,,,,s10,001,2024-07-18_15h53.03.879,simplestop_skeleton,2022.2.2,60.00763811535808,
None,None,0,0,0,0,4,2,18,2,,,,,,,,,,,,,,,,,678.1854632645845,stop,circleblack.png,left,0.25,678.204943574965,678.204943574965,678.7007423192263,678.7007423192263,678.7178762592375,678.9515012875199,679.4514774009585,679.7022762075067,680.7035317756236,680.7202555574477,None,0,,680.7202555574477,680.7202555574477,681.2241146340966,681.2241146340966,0.0017858371138572693,0.48928411304950714,0.7403938509523869,681.2049785405397,practice,1,,,,,,,,,,,,,,,,,,,,,,,,,,,,s10,001,2024-07-18_15h53.03.879,simplestop_skeleton,2022.2.2,60.00763811535808,
$currentCorrectResponse,$currentGoStim,0,0,0,0,4,3,19,0,,,,,,,,,,,,,,,,,681.2053994759917,go,circleblack.png,left,0.3,681.2241146340966,681.2241146340966,681.7214098162949,681.7214098162949,681.7378923110664,682.0214778110385,682.5225193686783,682.7213879562914,683.7236628644168,683.7236628644168,left,1,0.5937439166009426,683.7236628644168,683.7236628644168,684.2277254424989,684.2277254424989,0.0012586601078510284,0.49004239216446877,0.7905658148229122,684.2081133276224,practice,1,,,,,,,,,,,,,,,,,,,,,,,,,,,,s10,001,2024-07-18_15h53.03.879,simplestop_skeleton,2022.2.2,60.00763811535808,
None,None,0,0,0,0,5,0,20,1,,,,,,,,,,,,,,,,,684.2086317576468,go,circleblack.png,left,0.3,684.2277254424989,684.2277254424989,684.7244581729174,684.7244581729174,684.741531137377,685.0253165736794,685.5248417928815,685.7254524491727,686.7267791181803,686.7267791181803,left,1,0.7004605866968632,686.7267791181803,686.7267791181803,687.2324871048331,687.2324871048331,0.0012479238212108612,0.4898967258632183,0.7902987375855446,687.2116276919842,practice,1,,,,,,,,,,,,,,,,,,,,,,,,,,,,s10,001,2024-07-18_15h53.03.879,simplestop_skeleton,2022.2.2,60.00763811535808,
None,None,0,0,0,0,5,1,21,3,,,,,,,,,,,,,,,,,687.2121547833085,go,squareblack.png,right,0.3,687.2324871048331,687.2324871048331,687.7279893271625,687.7279893271625,687.7444902434945,688.0279653817415,688.5285485908389,688.7288121469319,689.7299819253385,689.746752846986,right,1,0.585492629557848,689.746752846986,689.746752846986,690.2511291503906,690.2511291503906,0.0023027919232845306,0.4892987608909607,0.7897004336118698,690.2315447889268,practice,1,,,,,,,,,,,,,,,,,,,,,,,,,,,,s10,001,2024-07-18_15h53.03.879,simplestop_skeleton,2022.2.2,60.00763811535808,
None,None,0,0,0,0,5,2,22,3,,,,,,,,,,,,,,,,,690.2319861911237,stop,squareblack.png,right,0.3,690.2511291503906,690.2511291503906,690.748074516654,690.748074516654,690.7643232643604,691.0479499660432,691.5485770516098,691.7489041462541,692.7499910630286,692.76681445539,None,0,,692.76681445539,692.76681445539,,,0.0011710263788700104,0.4898986853659153,0.790594320744276,693.251522090286,practice,1,,,,,,,,,,,,,,,,,,,,,,,,,,,,s10,001,2024-07-18_15h53.03.879,simplestop_skeleton,2022.2.2,60.00763811535808,
None,None,0,0,0,0,5,3,23,1,,,,,,,,,,,,,,,,,693.2519392855465,go,circleblack.png,left,0.35,693.271725486964,693.271725486964,693.7676060795784,693.7676060795784,693.7845660746098,694.1182915046811,694.6175336129963,694.7681332044303,695.7701016105711,695.7868665680289,left,1,0.5449345409870148,695.7868665680289,695.7868665680289,696.2897228561342,696.2897228561342,0.0018758438527584076,0.4907006025314331,0.8408025912940502,696.2716438621283,practice,1,,,,,,,,,,,,,,,,,,,,,,,,,,,,s10,001,2024-07-18_15h53.03.879,simplestop_skeleton,2022.2.2,60.00763811535808,
,,0,0,0,0,,,,,,,,,,,,,"[{'fileName': 'squareblack.png', 'correct_response': 'right', 'condition': 'go'}, {'fileName': 'circleblack.png', 'correct_response': 'left', 'condition': 'go'}, {'fileName': 'squareblack.png', 'correct_response': 'right', 'condition': 'go'}, {'fileName': 'squareblack.png', 'correct_response': 'right', 'condition': 'stop'}, {'fileName': 'squareblack.png', 'correct_response': 'right', 'condition': 'stop'}, {'fileName': 'squareblack.png', 'correct_response': 'right', 'condition': 'go'}, {'fileName': 'circleblack.png', 'correct_response': 'left', 'condition': 'go'}, {'fileName': 'circleblack.png', 'correct_response': 'left', 'condition': 'stop'}, {'fileName': 'circleblack.png', 'correct_response': 'left', 'condition': 'go'}, {'fileName': 'circleblack.png', 'correct_response': 'left', 'condition': 'stop'}, {'fileName': 'squareblack.png', 'correct_response': 'right', 'condition': 'go'}, {'fileName': 'circleblack.png', 'correct_response': 'left', 'condition': 'go'}, {'fileName': 'circleblack.png', 'correct_response': 'left', 'condition': 'go'}, {'fileName': 'squareblack.png', 'correct_response': 'right', 'condition': 'go'}, {'fileName': 'circleblack.png', 'correct_response': 'left', 'condition': 'go'}, {'fileName': 'squareblack.png', 'correct_response': 'right', 'condition': 'go'}, {'fileName': 'squareblack.png', 'correct_response': 'right', 'condition': 'stop'}, {'fileName': 'squareblack.png', 'correct_response': 'right', 'condition': 'go'}, {'fileName': 'circleblack.png', 'correct_response': 'left', 'condition': 'stop'}, {'fileName': 'squareblack.png', 'correct_response': 'right', 'condition': 'go'}, {'fileName': 'circleblack.png', 'correct_response': 'left', 'condition': 'go'}, {'fileName': 'circleblack.png', 'correct_response': 'left', 'condition': 'go'}, {'fileName': 'circleblack.png', 'correct_response': 'left', 'condition': 'stop'}, {'fileName': 'squareblack.png', 'correct_response': 'right', 'condition': 'stop'}]",,,,,,,,,,,,,,,,,,,,,,,,,,,,,,,,,,,,696.2897228561342,696.2897228561342,None,,,,,,,,,,,,,,,,,,,,,,,,,s10,001,2024-07-18_15h53.03.879,simplestop_skeleton,2022.2.2,60.00763811535808,
$currentCorrectResponse,$currentGoStim,,,,,,,,,0,0,0,0,0,0,0,0,,,,,,,,,763.0537429377437,stop,circleblack.png,left,0.35,,,,,,,,,,,,,,,,,,0.002185758203268051,0.49774540588259697,0.8482606932520866,765.5649206005037,test,1,,,,756.3034276776016,756.3034276776016,763.0742997601628,763.5782673694193,763.5782673694193,763.5782673694193,763.9285854771733,764.4290273040533,764.5796551182866,765.5844546481967,None,0,0.4,,,,,,,,,,,,s10,001,2024-07-18_15h53.03.879,simplestop_skeleton,2022.2.2,60.00763811535808,
None,None,,,,,,,,,0,0,0,0,0,1,1,2,,,,,,,,,765.5654570385814,go,squareblack.png,right,0.4,,,,,,,,,,,,,,,,,,0.001800544559955597,0.4896294102072716,,768.0679324306548,test,1,,,,,,765.5844546481967,766.0975038930774,766.0809425488114,766.0809425488114,766.4814674183726,766.9817545972764,767.0820000059903,768.0873336270452,right,1,0.4,0.4416556917130947,,,,,,,,,,,s10,001,2024-07-18_15h53.03.879,simplestop_skeleton,2022.2.2,60.00763811535808,
None,None,,,,,,,,,0,0,0,0,0,2,2,3,,,,,,,,,768.068362697959,stop,circleblack.png,left,0.4,,,,,,,,,,,,,,,,,,0.0018994733691215515,0.489648062735796,0.8900416344404221,770.5704557560384,test,1,,,,,,768.0873336270452,768.6005899421871,768.583695102483,768.583695102483,768.9840707592666,769.4841627031565,769.5840598642826,770.5891661122441,left,1,0.35,0.47907866165041924,,,,,,,,,,,s10,001,2024-07-18_15h53.03.879,simplestop_skeleton,2022.2.2,60.00763811535808,
None,None,,,,,,,,,0,0,0,0,0,3,3,2,,,,,,,,,770.5708907991648,go,circleblack.png,left,0.35,,,,,,,,,,,,,,,,,,0.0012992620468139648,0.48973968252539635,,773.073440246284,test,1,,,,,,770.5891661122441,771.1032873764634,771.0864594504237,771.0864594504237,771.4369838051498,771.9372734427452,772.0875021442771,773.0922524295747,left,1,0.35,0.4050549529492855,,,,,,,,,,,s10,001,2024-07-18_15h53.03.879,simplestop_skeleton,2022.2.2,60.00763811535808,
None,None,,,,,,,,,0,0,0,0,1,0,4,3,,,,,,,,,773.0738746151328,go,circleblack.png,left,0.35,,,,,,,,,,,,,,,,,,0.0014044903218746185,0.48981505259871483,,775.575949318707,test,1,,,,,,773.0922524295747,773.6058923825622,773.5892543829978,773.5892543829978,773.9397707693279,774.4565283767879,774.5897585749626,775.5951856859028,left,1,0.35,0.4680304378271103,,,,,,,,,,,s10,001,2024-07-18_15h53.03.879,simplestop_skeleton,2022.2.2,60.00763811535808,
None,None,,,,,,,,,0,0,0,0,1,1,5,2,,,,,,,,,775.5764055624604,stop,squareblack.png,right,0.35,,,,,,,,,,,,,,,,,,0.0017159916460514069,0.48994823545217514,0.8401827849447727,778.0787383057177,test,1,,,,,,775.5951856859028,776.1086178980768,776.0922495126724,776.0922495126724,776.4422372616827,776.9428971447051,777.0930268280208,778.0981126017869,right,1,0.3,0.44413357228040695,,,,,,,,,,,s10,001,2024-07-18_15h53.03.879,simplestop_skeleton,2022.2.2,60.00763811535808,
None,None,,,,,,,,,0,0,0,0,1,2,6,2,,,,,,,,,778.0791742652655,go,circleblack.png,left,0.3,,,,,,,,,,,,,,,,,,0.001779012382030487,0.4896746538579464,,780.5817587301135,test,1,,,,,,778.0981126017869,778.6114890091121,778.5948429591954,778.5948429591954,778.8951418362558,779.395550403744,779.5957724153996,780.601092107594,left,1,0.3,0.44789308309555054,,,,,,,,,,,s10,001,2024-07-18_15h53.03.879,simplestop_skeleton,2022.2.2,60.00763811535808,
$currentCorrectResponse,$currentGoStim,,,,,,,,,0,0,0,0,1,3,7,0,,,,,,,,,780.582207635045,go,squareblack.png,right,0.3,,,,,,,,,,,,,,,,,,0.0017654374241828918,0.48935093358159065,,783.0843580365181,test,1,,,,,,780.601092107594,781.1140830293298,781.0974359028041,781.0974359028041,781.3978519663215,781.8971792086959,782.0980113111436,783.1030747555196,right,1,0.3,0.4647258557379246,,,,,,,,,,,s10,001,2024-07-18_15h53.03.879,simplestop_skeleton,2022.2.2,60.00763811535808,
None,None,,,,,,,,,0,0,0,0,2,0,8,2,,,,,,,,,783.0847955271602,go,squareblack.png,right,0.3,,,,,,,,,,,,,,,,,,0.001261141151189804,0.48986514657735825,,785.5871773660183,test,1,,,,,,783.1030747555196,783.6169969625771,783.600265506655,783.600265506655,783.900872733444,784.4010368846357,784.600997492671,785.6059427857399,right,1,0.3,0.42192434147000313,,,,,,,,,,,s10,001,2024-07-18_15h53.03.879,simplestop_skeleton,2022.2.2,60.00763811535808,
None,None,,,,,,,,,0,0,0,0,2,1,9,2,,,,,,,,,785.5876223370433,stop,squareblack.png,right,0.3,,,,,,,,,,,,,,,,,,0.0013196133077144623,0.48980995640158653,0.7900715246796608,788.0896218307316,test,1,,,,,,785.6059427857399,786.119545776397,786.1030026227236,786.1030026227236,786.4033258035779,786.9037779159844,787.1039834730327,788.1088354103267,right,1,0.25,0.3848755434155464,,,,,,,,,,,s10,001,2024-07-18_15h53.03.879,simplestop_skeleton,2022.2.2,60.00763811535808,
None,None,,,,,,,,,0,0,0,0,2,2,10,3,,,,,,,,,788.0900552496314,go,circleblack.png,left,0.25,,,,,,,,,,,,,,,,,,0.001809537410736084,0.4899391829967499,,790.5925110392272,test,1,,,,,,788.1088354103267,788.6223996542394,788.6060124412179,788.6060124412179,788.8562331199646,789.3566466122866,789.6069631054997,790.6114260442555,left,1,0.25,0.34026722609996796,,,,,,,,,,,s10,001,2024-07-18_15h53.03.879,simplestop_skeleton,2022.2.2,60.00763811535808,
None,None,,,,,,,,,0,0,0,0,2,3,11,1,,,,,,,,,790.5929555892944,go,squareblack.png,right,0.25,,,,,,,,,,,,,,,,,,0.0016339682042598724,0.4898475483059883,,793.0953963026404,test,1,,,,,,790.6114260442555,791.1252612099051,791.1084231510758,791.1084231510758,791.3590412475169,791.8596460148692,792.1096547432244,793.1147378124297,right,1,0.25,0.5082250572741032,,,,,,,,,,,s10,001,2024-07-18_15h53.03.879,simplestop_skeleton,2022.2.2,60.00763811535808,
$currentCorrectResponse,$currentGoStim,,,,,,,,,0,0,0,0,3,0,12,0,,,,,,,,,793.0958398878574,go,circleblack.png,left,0.25,,,,,,,,,,,,,,,,,,0.001809101551771164,0.4895153231918812,,795.5982448011637,test,1,,,,,,793.1147378124297,793.628061786294,793.6115068495274,793.6115068495274,793.8616150207818,794.3622050918639,794.6123765297234,795.6175227053463,left,1,0.25,0.47249671444296837,,,,,,,,,,,s10,001,2024-07-18_15h53.03.879,simplestop_skeleton,2022.2.2,60.00763811535808,
None,None,,,,,,,,,0,0,0,0,3,1,13,3,,,,,,,,,795.5986884497106,go,squareblack.png,right,0.25,,,,,,,,,,,,,,,,,,0.0017871111631393433,0.48957251757383347,,798.1007214225829,test,1,,,,,,795.6175227053463,796.1306579262018,796.1138664186001,796.1138664186001,796.3644848689437,796.8649466745555,797.1149845719337,798.1202411726117,right,1,0.25,0.5059021003544331,,,,,,,,,,,s10,001,2024-07-18_15h53.03.879,simplestop_skeleton,2022.2.2,60.00763811535808,
None,None,,,,,,,,,0,0,0,0,3,2,14,1,,,,,,,,,798.1011758893728,go,circleblack.png,left,0.25,,,,,,,,,,,,,,,,,,0.0017994455993175507,0.4898448996245861,,800.6035146042705,test,1,,,,,,798.1202411726117,798.6334261000156,798.6170232705772,798.6170232705772,798.8672813214362,799.3663981705904,799.6171922162175,800.6227186098695,left,1,0.25,0.43966203927993774,,,,,,,,,,,s10,001,2024-07-18_15h53.03.879,simplestop_skeleton,2022.2.2,60.00763811535808,
None,None,,,,,,,,,0,0,0,0,3,3,15,1,,,,,,,,,800.6039474718273,go,squareblack.png,right,0.25,,,,,,,,,,,,,,,,,,0.0016416683793067932,0.48971398547291756,,803.1063327565789,test,1,,,,,,800.6227186098695,801.1364901140332,801.119577024132,801.119577024132,801.3697397299111,801.8704895116389,802.1207675635815,803.1248524412513,right,1,0.25,0.5844856314361095,,,,,,,,,,,s10,001,2024-07-18_15h53.03.879,simplestop_skeleton,2022.2.2,60.00763811535808,
None,None,,,,,,,,,0,0,0,0,4,0,16,3,,,,,,,,,803.1067759618163,stop,squareblack.png,right,0.25,,,,,,,,,,,,,,,,,,0.0011729225516319275,0.48969603702425957,0.7398084476590157,805.6091362163424,test,1,,,,,,803.1248524412513,803.6388375237584,803.6221547350287,803.6221547350287,803.8724465891719,804.372914031148,804.6232429333031,805.6283965073526,None,0,0.3,,,,,,,,,,,,s10,001,2024-07-18_15h53.03.879,simplestop_skeleton,2022.2.2,60.00763811535808,
None,None,,,,,,,,,0,0,0,0,4,1,17,3,,,,,,,,,805.6095815822482,stop,circleblack.png,left,0.3,,,,,,,,,,,,,,,,,,0.0019661150872707367,0.48965808376669884,0.7899043783545494,808.1117370575666,test,1,,,,,,805.6283965073526,806.1416689828038,806.1250235959888,806.1250235959888,806.4255240596831,806.925759345293,807.1258250772953,808.130834557116,left,1,0.25,0.4053158834576607,,,,,,,,,,,s10,001,2024-07-18_15h53.03.879,simplestop_skeleton,2022.2.2,60.00763811535808,
None,None,,,,,,,,,0,0,0,0,4,2,18,1,,,,,,,,,808.1121715083718,go,circleblack.png,left,0.25,,,,,,,,,,,,,,,,,,0.001333232969045639,0.4899393506348133,,810.6143802776933,test,1,,,,,,808.130834557116,808.6444614641368,808.6281256824732,808.6281256824732,808.8783432617784,809.3787522651255,809.6290351562202,810.6333151310682,left,1,0.25,0.4914169944822788,,,,,,,,,,,s10,001,2024-07-18_15h53.03.879,simplestop_skeleton,2022.2.2,60.00763811535808,
None,None,,,,,,,,,0,0,0,0,4,3,19,3,,,,,,,,,810.6148156523705,stop,squareblack.png,right,0.25,,,,,,,,,,,,,,,,,,0.0016342438757419586,0.48993024230003357,0.7401751317083836,813.1171059906483,test,1,,,,,,810.6333151310682,811.1474145539105,811.1307946741581,811.1307946741581,811.3808966241777,811.8817199207842,812.1317808963358,813.1363486535847,None,0,0.3,,,,,,,,,,,,s10,001,2024-07-18_15h53.03.879,simplestop_skeleton,2022.2.2,60.00763811535808,
None,None,,,,,,,,,0,0,0,0,5,0,20,2,,,,,,,,,813.1175384894013,go,circleblack.png,left,0.3,,,,,,,,,,,,,,,,,,0.001748114824295044,0.48997123539447784,,815.620049264282,test,1,,,,,,813.1363486535847,813.6499726101756,813.6335305757821,813.6335305757821,813.9335199482739,814.4327579066157,814.6337421685457,815.6390389986336,left,1,0.3,0.45568442717194557,,,,,,,,,,,s10,001,2024-07-18_15h53.03.879,simplestop_skeleton,2022.2.2,60.00763811535808,
None,None,,,,,,,,,0,0,0,0,5,1,21,1,,,,,,,,,815.6204941086471,go,squareblack.png,right,0.3,,,,,,,,,,,,,,,,,,0.0016328655183315277,0.48979274928569794,,818.1228600591421,test,1,,,,,,815.6390389986336,816.1525721587241,816.1360062621534,816.1360062621534,816.4363172091544,816.9368360228837,817.1369635760784,818.1420746184886,right,1,0.3,0.5505797304213047,,,,,,,,,,,s10,001,2024-07-18_15h53.03.879,simplestop_skeleton,2022.2.2,60.00763811535808,
None,None,,,,,,,,,0,0,0,0,5,2,22,1,,,,,,,,,818.1232884638011,stop,circleblack.png,left,0.3,,,,,,,,,,,,,,,,,,0.0018470585346221924,0.4897642023861408,0.7900508865714073,820.6256214939058,test,1,,,,,,818.1420746184886,818.655700456351,818.6390286833048,818.6390286833048,818.9391881972551,819.439695943147,819.6398831792176,820.6445786729455,None,0,0.35,,,,,,,,,,,,s10,001,2024-07-18_15h53.03.879,simplestop_skeleton,2022.2.2,60.00763811535808,
$currentCorrectResponse,$currentGoStim,,,,,,,,,0,0,0,0,5,3,23,0,,,,,,,,,820.6260585673153,go,squareblack.png,right,0.35,,,,,,,,,,,,,,,,,,0.0016172006726264954,0.4898403398692608,,823.1283192671835,test,1,,,,,,820.6445786729455,821.1585158966482,821.1418876387179,821.1418876387179,821.4920137822628,821.9912403002381,822.1424942277372,823.1473772637546,right,1,0.35,0.49776720255613327,,,,,,,,,,,s10,001,2024-07-18_15h53.03.879,simplestop_skeleton,2022.2.2,60.00763811535808,
None,None,,,,,,,,,0,0,0,0,6,0,24,1,,,,,,,,,823.1288588382304,go,squareblack.png,right,0.35,,,,,,,,,,,,,,,,,,0.001329757273197174,0.48980793729424477,,825.630897462368,test,1,,,,,,823.1473772637546,823.6614065803587,823.6444645375013,823.6444645375013,823.994617972523,824.4952707514167,824.6456956528127,825.6500492244959,right,1,0.35,0.5450633205473423,,,,,,,,,,,s10,001,2024-07-18_15h53.03.879,simplestop_skeleton,2022.2.2,60.00763811535808,
None,None,,,,,,,,,0,0,0,0,6,1,25,1,,,,,,,,,825.6313437446952,go,circleblack.png,left,0.35,,,,,,,,,,,,,,,,,,0.0018773823976516724,0.49016716331243515,,828.1338949911296,test,1,,,,,,825.6500492244959,826.1637573242188,826.1473558656871,826.1473558656871,826.4974972233176,826.9967103339732,827.1477776281536,828.1526043005288,left,1,0.35,0.4920257069170475,,,,,,,,,,,s10,001,2024-07-18_15h53.03.879,simplestop_skeleton,2022.2.2,60.00763811535808,
$currentCorrectResponse,$currentGoStim,,,,,,,,,0,0,0,0,6,2,26,0,,,,,,,,,828.1343333311379,go,circleblack.png,left,0.35,,,,,,,,,,,,,,,,,,0.0013632886111736298,0.4898284524679184,,830.6365649774671,test,1,,,,,,828.1526043005288,828.6666669882834,828.6500093229115,828.6500093229115,829.0001412890851,829.500404689461,829.6506159640849,830.6552541963756,left,1,0.35,0.4789545238018036,,,,,,,,,,,s10,001,2024-07-18_15h53.03.879,simplestop_skeleton,2022.2.2,60.00763811535808,
$currentCorrectResponse,$currentGoStim,,,,,,,,,0,0,0,0,6,3,27,0,,,,,,,,,830.6369980201125,stop,circleblack.png,left,0.35,,,,,,,,,,,,,,,,,,0.0013123899698257446,0.4897890128195286,0.8400288559496403,833.1394939571619,test,1,,,,,,830.6552541963756,831.1693361327052,831.1527744717896,831.1527744717896,831.5031319074333,832.0035855844617,832.1537133827806,833.1584659740329,left,1,0.3,0.5217022337019444,,,,,,,,,,,s10,001,2024-07-18_15h53.03.879,simplestop_skeleton,2022.2.2,60.00763811535808,
$currentCorrectResponse,$currentGoStim,,,,,,,,,0,0,0,0,7,0,28,0,,,,,,,,,833.1399316191673,go,squareblack.png,right,0.3,,,,,,,,,,,,,,,,,,0.0015818625688552856,0.48966384679079056,,835.6420680880547,test,1,,,,,,833.1584659740329,833.6723337285221,833.6554036289454,833.6554036289454,833.9557474516332,834.4552137665451,834.6561139561236,835.6596495695412,right,1,0.3,0.47603198513388634,,,,,,,,,,,s10,001,2024-07-18_15h53.03.879,simplestop_skeleton,2022.2.2,60.00763811535808,
None,None,,,,,,,,,0,0,0,0,7,1,29,3,,,,,,,,,835.6425043195486,go,squareblack.png,right,0.3,,,,,,,,,,,,,,,,,,0.0011759772896766663,0.4899052493274212,,838.1451582722366,test,1,,,,,,835.6596495695412,836.1750577129424,836.1580999977887,836.1580999977887,836.4584384560585,836.9589392207563,837.1588480509818,838.1649657860398,right,1,0.3,0.5016857534646988,,,,,,,,,,,s10,001,2024-07-18_15h53.03.879,simplestop_skeleton,2022.2.2,60.00763811535808,
None,None,,,,,,,,,0,0,0,0,7,2,30,3,,,,,,,,,838.1456051394343,go,circleblack.png,left,0.3,,,,,,,,,,,,,,,,,,0.0021503716707229614,0.48965010046958923,,840.647808149457,test,1,,,,,,838.1649657860398,838.6775691173971,838.6610439270735,838.6610439270735,838.9613798223436,839.4617960937321,839.6623597256839,840.6666360385716,left,1,0.3,0.532561082392931,,,,,,,,,,,s10,001,2024-07-18_15h53.03.879,simplestop_skeleton,2022.2.2,60.00763811535808,
None,None,,,,,,,,,0,0,0,0,7,3,31,1,,,,,,,,,840.6482586190104,stop,circleblack.png,left,0.3,,,,,,,,,,,,,,,,,,0.0013913065195083618,0.48973600193858147,0.7904600836336613,843.1505659967661,test,1,,,,,,840.6666360385716,841.1803189739585,841.1636650972068,841.1636650972068,841.4639906175435,841.9646125398576,842.1647814698517,843.1691710166633,None,0,0.35,,,,,,,,,,,,s10,001,2024-07-18_15h53.03.879,simplestop_skeleton,2022.2.2,60.00763811535808,
$currentCorrectResponse,$currentGoStim,,,,,,,,,0,0,0,0,8,0,32,0,,,,,,,,,843.151029445231,go,circleblack.png,left,0.35,,,,,,,,,,,,,,,,,,0.0013901107013225555,0.4896671995520592,,845.6534093283117,test,1,,,,,,843.1691710166633,843.6830537244678,843.6666020229459,843.6666020229459,844.0167415477335,844.5168699473143,844.6668041236699,845.6726542450488,left,1,0.35,0.4220186024904251,,,,,,,,,,,s10,001,2024-07-18_15h53.03.879,simplestop_skeleton,2022.2.2,60.00763811535808,
None,None,,,,,,,,,0,0,0,0,8,1,33,2,,,,,,,,,845.6538500338793,stop,squareblack.png,right,0.35,,,,,,,,,,,,,,,,,,0.0016949400305747986,0.4897233657538891,0.8400338962674141,848.1561518758535,test,1,,,,,,845.6726542450488,846.1860779635608,846.1694043278694,846.1694043278694,846.519521355629,847.0201464667916,847.1704350113869,848.1748146787286,None,0,0.4,,,,,,,,,,,,s10,001,2024-07-18_15h53.03.879,simplestop_skeleton,2022.2.2,60.00763811535808,
$currentCorrectResponse,$currentGoStim,,,,,,,,,0,0,0,0,8,2,34,0,,,,,,,,,848.156602062285,go,squareblack.png,right,0.4,,,,,,,,,,,,,,,,,,0.001324433833360672,0.48955660685896873,,850.6590534225106,test,1,,,,,,848.1748146787286,848.6887704916298,848.6721045076847,848.6721045076847,849.072407182306,849.57235173136,849.6724588572979,850.6775764040649,right,1,0.4,0.4932507388293743,,,,,,,,,,,s10,001,2024-07-18_15h53.03.879,simplestop_skeleton,2022.2.2,60.00763811535808,
$currentCorrectResponse,$currentGoStim,,,,,,,,,0,0,0,0,8,3,35,0,,,,,,,,,850.659499540925,stop,squareblack.png,right,0.4,,,,,,,,,,,,,,,,,,0.0013540685176849365,0.4894303195178509,0.8900480419397354,853.1616104319692,test,1,,,,,,850.6775764040649,851.1915045529604,851.1749506518245,851.1749506518245,851.5752182453871,852.0743693672121,852.1754423342645,853.1803442835808,right,1,0.35,0.54782360419631,,,,,,,,,,,s10,001,2024-07-18_15h53.03.879,simplestop_skeleton,2022.2.2,60.00763811535808,
None,None,,,,,,,,,0,0,0,0,9,0,36,3,,,,,,,,,853.1620538644493,go,squareblack.png,right,0.35,,,,,,,,,,,,,,,,,,0.0013103373348712921,0.4897349588572979,,855.6643735542893,test,1,,,,,,853.1803442835808,853.6941150687635,853.6776879839599,853.6776879839599,854.0280737131834,854.5284916944802,854.6784104071558,855.682989563793,right,1,0.35,0.5807262696325779,,,,,,,,,,,s10,001,2024-07-18_15h53.03.879,simplestop_skeleton,2022.2.2,60.00763811535808,
None,None,,,,,,,,,0,0,0,0,9,1,37,2,,,,,,,,,855.6648071855307,go,squareblack.png,right,0.35,,,,,,,,,,,,,,,,,,0.0013083815574645996,0.48961421474814415,,858.167304456234,test,1,,,,,,855.682989563793,856.1970468536019,856.1803705357015,856.1803705357015,856.5306873619556,857.0313537307084,857.1815317720175,858.18605292961,right,1,0.35,0.4993482679128647,,,,,,,,,,,s10,001,2024-07-18_15h53.03.879,simplestop_skeleton,2022.2.2,60.00763811535808,
$currentCorrectResponse,$currentGoStim,,,,,,,,,0,0,0,0,9,2,38,0,,,,,,,,,858.1677448302507,go,squareblack.png,right,0.35,,,,,,,,,,,,,,,,,,0.0013447552919387817,0.48943452164530754,,860.6698713377118,test,1,,,,,,858.18605292961,858.699643407017,858.682966414839,858.682966414839,859.0336094535887,859.5339551232755,859.6833008602262,860.688612960279,right,1,0.35,0.6441602632403374,,,,,,,,,,,s10,001,2024-07-18_15h53.03.879,simplestop_skeleton,2022.2.2,60.00763811535808,
None,None,,,,,,,,,0,0,0,0,9,3,39,1,,,,,,,,,860.670303273946,stop,squareblack.png,right,0.35,,,,,,,,,,,,,,,,,,0.0013091079890727997,0.4895829111337662,0.8402594402432442,863.1726055331528,test,1,,,,,,860.688612960279,861.2025787904859,861.1857250630856,861.1857250630856,861.5362570285797,862.0369627289474,862.1868325918913,863.1914193741977,None,0,0.4,,,,,,,,,,,,s10,001,2024-07-18_15h53.03.879,simplestop_skeleton,2022.2.2,60.00763811535808,
$currentCorrectResponse,$currentGoStim,,,,,,,,,0,0,0,0,10,0,40,0,,,,,,,,,863.1730483733118,go,squareblack.png,right,0.4,,,,,,,,,,,,,,,,,,0.001247946172952652,0.48974231630563736,,865.6752691157162,test,1,,,,,,863.1914193741977,863.7050948999822,863.6884888522327,863.6884888522327,864.0890551432967,864.5889991037548,864.6891407519579,865.6943264603615,right,1,0.4,0.5065704174339771,,,,,,,,,,,s10,001,2024-07-18_15h53.03.879,simplestop_skeleton,2022.2.2,60.00763811535808,
None,None,,,,,,,,,0,0,0,0,10,1,41,1,,,,,,,,,865.6757083274424,go,circleblack.png,left,0.4,,,,,,,,,,,,,,,,,,0.0018484927713871002,0.49000513553619385,,868.1780537068844,test,1,,,,,,865.6943264603615,866.2079475335777,866.1917824521661,866.1917824521661,866.5918922424316,867.0910223759711,867.1917547769845,868.1969763897359,left,1,0.4,0.5818132311105728,,,,,,,,,,,s10,001,2024-07-18_15h53.03.879,simplestop_skeleton,2022.2.2,60.00763811535808,
None,None,,,,,,,,,0,0,0,0,10,2,42,2,,,,,,,,,868.1784840300679,go,circleblack.png,left,0.4,,,,,,,,,,,,,,,,,,0.0012766197323799133,0.48962336778640747,,870.6808187924325,test,1,,,,,,868.1969763897359,868.7107031308115,868.6944906301796,868.6944906301796,869.0944783724844,869.5953031778336,869.6945923902094,870.6996082291007,left,1,0.4,0.5223526395857334,,,,,,,,,,,s10,001,2024-07-18_15h53.03.879,simplestop_skeleton,2022.2.2,60.00763811535808,
None,None,,,,,,,,,0,0,0,0,10,3,43,2,,,,,,,,,870.6812604106963,stop,circleblack.png,left,0.4,,,,,,,,,,,,,,,,,,0.0014682933688163757,0.48973092809319496,0.8902271836996078,873.1838641650975,test,1,,,,,,870.6996082291007,871.2138682976365,871.1966755315661,871.1966755315661,871.5973095968366,872.0972771309316,872.1976185552776,873.2026190534234,left,1,0.35,0.4635862857103348,,,,,,,,,,,s10,001,2024-07-18_15h53.03.879,simplestop_skeleton,2022.2.2,60.00763811535808,
None,None,,,,,,,,,0,0,0,0,11,0,44,1,,,,,,,,,873.184312786907,stop,squareblack.png,right,0.35,,,,,,,,,,,,,,,,,,0.0016342997550964355,0.48953037336468697,0.8402595929801464,875.6862185895443,test,1,,,,,,873.2026190534234,873.7163923941553,873.6996451243758,873.6996451243758,874.0499648228288,874.5501480847597,874.7000752985477,875.7056596465409,right,1,0.3,0.42775725573301315,,,,,,,,,,,s10,001,2024-07-18_15h53.03.879,simplestop_skeleton,2022.2.2,60.00763811535808,
None,None,,,,,,,,,0,0,0,0,11,1,45,3,,,,,,,,,875.6866519935429,go,circleblack.png,left,0.3,,,,,,,,,,,,,,,,,,0.0018557235598564148,0.490055937319994,,878.1891498081386,test,1,,,,,,875.7056596465409,876.2189371474087,876.2026931270957,876.2026931270957,876.5028399005532,877.0020513944328,877.2027872055769,878.2078510262072,left,1,0.3,0.4810275584459305,,,,,,,,,,,s10,001,2024-07-18_15h53.03.879,simplestop_skeleton,2022.2.2,60.00763811535808,
None,None,,,,,,,,,0,0,0,0,11,2,46,3,,,,,,,,,878.189578525722,go,circleblack.png,left,0.3,,,,,,,,,,,,,,,,,,0.0013207197189331055,0.48993176221847534,,880.691877823323,test,1,,,,,,878.2078510262072,878.7216191068292,878.705265622586,878.705265622586,879.005477014929,879.5058116689324,879.7065770216286,880.7106877118349,left,1,0.3,0.5141140818595886,,,,,,,,,,,s10,001,2024-07-18_15h53.03.879,simplestop_skeleton,2022.2.2,60.00763811535808,
None,None,,,,,,,,,0,0,0,0,11,3,47,2,,,,,,,,,880.6923064738512,stop,circleblack.png,left,0.3,,,,,,,,,,,,,,,,,,0.0014509893953800201,0.48977723345160484,0.7903065718710423,883.1944581791759,test,1,,,,,,880.7106877118349,881.2244796380401,881.208341319114,881.208341319114,881.5081706382334,882.008667819202,882.2089850232005,883.2161847427487,None,0,0.35,,,,,,,,,,,,s10,001,2024-07-18_15h53.03.879,simplestop_skeleton,2022.2.2,60.00763811535808,
,,,,,,,,,,0,0,0,0,,,,,,"[{'fileName': 'squareblack.png', 'correct_response': 'right', 'condition': 'stop'}, {'fileName': 'squareblack.png', 'correct_response': 'right', 'condition': 'stop'}, {'fileName': 'circleblack.png', 'correct_response': 'left', 'condition': 'go'}, {'fileName': 'squareblack.png', 'correct_response': 'right', 'condition': 'go'}, {'fileName': 'circleblack.png', 'correct_response': 'left', 'condition': 'go'}, {'fileName': 'squareblack.png', 'correct_response': 'right', 'condition': 'go'}, {'fileName': 'circleblack.png', 'correct_response': 'left', 'condition': 'stop'}, {'fileName': 'circleblack.png', 'correct_response': 'left', 'condition': 'stop'}, {'fileName': 'squareblack.png', 'correct_response': 'right', 'condition': 'go'}, {'fileName': 'circleblack.png', 'correct_response': 'left', 'condition': 'go'}, {'fileName': 'circleblack.png', 'correct_response': 'left', 'condition': 'go'}, {'fileName': 'squareblack.png', 'correct_response': 'right', 'condition': 'go'}, {'fileName': 'squareblack.png', 'correct_response': 'right', 'condition': 'stop'}, {'fileName': 'squareblack.png', 'correct_response': 'right', 'condition': 'go'}, {'fileName': 'circleblack.png', 'correct_response': 'left', 'condition': 'go'}, {'fileName': 'squareblack.png', 'correct_response': 'right', 'condition': 'go'}, {'fileName': 'circleblack.png', 'correct_response': 'left', 'condition': 'go'}, {'fileName': 'circleblack.png', 'correct_response': 'left', 'condition': 'stop'}, {'fileName': 'circleblack.png', 'correct_response': 'left', 'condition': 'go'}, {'fileName': 'squareblack.png', 'correct_response': 'right', 'condition': 'go'}, {'fileName': 'squareblack.png', 'correct_response': 'right', 'condition': 'stop'}, {'fileName': 'circleblack.png', 'correct_response': 'left', 'condition': 'stop'}, {'fileName': 'squareblack.png', 'correct_response': 'right', 'condition': 'go'}, {'fileName': 'circleblack.png', 'correct_response': 'left', 'condition': 'go'}, {'fileName': 'circleblack.png', 'correct_response': 'left', 'condition': 'stop'}, {'fileName': 'squareblack.png', 'correct_response': 'right', 'condition': 'go'}, {'fileName': 'circleblack.png', 'correct_response': 'left', 'condition': 'stop'}, {'fileName': 'circleblack.png', 'correct_response': 'left', 'condition': 'go'}, {'fileName': 'circleblack.png', 'correct_response': 'left', 'condition': 'go'}, {'fileName': 'circleblack.png', 'correct_response': 'left', 'condition': 'go'}, {'fileName': 'squareblack.png', 'correct_response': 'right', 'condition': 'stop'}, {'fileName': 'squareblack.png', 'correct_response': 'right', 'condition': 'stop'}, {'fileName': 'circleblack.png', 'correct_response': 'left', 'condition': 'go'}, {'fileName': 'squareblack.png', 'correct_response': 'right', 'condition': 'go'}, {'fileName': 'squareblack.png', 'correct_response': 'right', 'condition': 'go'}, {'fileName': 'squareblack.png', 'correct_response': 'right', 'condition': 'go'}, {'fileName': 'circleblack.png', 'correct_response': 'left', 'condition': 'go'}, {'fileName': 'circleblack.png', 'correct_response': 'left', 'condition': 'stop'}, {'fileName': 'squareblack.png', 'correct_response': 'right', 'condition': 'go'}, {'fileName': 'circleblack.png', 'correct_response': 'left', 'condition': 'stop'}, {'fileName': 'circleblack.png', 'correct_response': 'left', 'condition': 'go'}, {'fileName': 'squareblack.png', 'correct_response': 'right', 'condition': 'go'}, {'fileName': 'squareblack.png', 'correct_response': 'right', 'condition': 'stop'}, {'fileName': 'circleblack.png', 'correct_response': 'left', 'condition': 'go'}, {'fileName': 'circleblack.png', 'correct_response': 'left', 'condition': 'go'}, {'fileName': 'squareblack.png', 'correct_response': 'right', 'condition': 'go'}, {'fileName': 'squareblack.png', 'correct_response': 'right', 'condition': 'stop'}, {'fileName': 'squareblack.png', 'correct_response': 'right', 'condition': 'go'}]",,,,,,,,,,,,,,,,,,,,,,,,,,,,,,,,,,,,,,,,,,,,,,,,,,,,883.2161847427487,883.2161847427487,return,19.566600438207388,,,,,,,s10,001,2024-07-18_15h53.03.879,simplestop_skeleton,2022.2.2,60.00763811535808,
None,None,,,,,,,,,1,0,1,0,0,0,0,1,,,,,,,,,902.8071085773408,stop,squareblack.png,right,0.35,,,,,,,,,,,,,,,,,,0.0016658157110214233,0.4991040863096714,0.8326776549220085,905.3190282694995,test,2,,,,,,902.8265699408948,903.3321719095111,903.3321719095111,903.3321719095111,903.6660347916186,904.1665577329695,904.3336923569441,905.3378556109965,None,0,0.4,,,,,,,,,,,,s10,001,2024-07-18_15h53.03.879,simplestop_skeleton,2022.2.2,60.00763811535808,
$currentCorrectResponse,$currentGoStim,,,,,,,,,1,0,1,0,0,1,1,0,,,,,,,,,905.3195594921708,stop,squareblack.png,right,0.4,,,,,,,,,,,,,,,,,,0.001330789178609848,0.4899114817380905,0.8901660479605198,907.8219837360084,test,2,,,,,,905.3378556109965,905.8516174033284,905.8350349478424,905.8350349478424,906.2355295047164,906.735250364989,906.835394885391,907.8412937037647,right,1,0.35,0.5187374576926231,,,,,,,,,,,s10,001,2024-07-18_15h53.03.879,simplestop_skeleton,2022.2.2,60.00763811535808,
None,None,,,,,,,,,1,0,1,0,0,2,2,1,,,,,,,,,907.8224084340036,go,circleblack.png,left,0.35,,,,,,,,,,,,,,,,,,0.0018869563937187195,0.4895225763320923,,910.324194714427,test,2,,,,,,907.8412937037647,908.3544164001942,908.3377028852701,908.3377028852701,908.688039816916,909.1882811523974,909.3382273539901,910.3433675579727,left,1,0.35,0.5060617513954639,,,,,,,,,,,s10,001,2024-07-18_15h53.03.879,simplestop_skeleton,2022.2.2,60.00763811535808,
None,None,,,,,,,,,1,0,1,0,0,3,3,2,,,,,,,,,910.3246315084398,go,squareblack.png,right,0.35,,,,,,,,,,,,,,,,,,0.0017222948372364044,0.490202147513628,,912.8274338394403,test,2,,,,,,910.3433675579727,910.8570113070309,910.8406681157649,910.8406681157649,911.1908015012741,911.6901385337114,911.8411324694753,912.8472229614854,right,1,0.35,0.5014118403196335,,,,,,,,,,,s10,001,2024-07-18_15h53.03.879,simplestop_skeleton,2022.2.2,60.00763811535808,
None,None,,,,,,,,,1,0,1,0,1,0,4,2,,,,,,,,,912.8278713524342,go,circleblack.png,left,0.35,,,,,,,,,,,,,,,,,,0.0019816234707832336,0.4897046945989132,,915.3300755210221,test,2,,,,,,912.8472229614854,913.3599860593677,913.3433774262667,913.3433774262667,913.6936760805547,914.1931307166815,914.3440497964621,915.3493018299341,left,1,0.35,0.5097161456942558,,,,,,,,,,,s10,001,2024-07-18_15h53.03.879,simplestop_skeleton,2022.2.2,60.00763811535808,
None,None,,,,,,,,,1,0,1,0,1,1,5,2,,,,,,,,,915.3304959125817,go,squareblack.png,right,0.35,,,,,,,,,,,,,,,,,,0.0015945211052894592,0.48996105045080185,,917.8327695950866,test,2,,,,,,915.3493018299341,915.8628519587219,915.8463126644492,915.8463126644492,916.19659255445,916.6970438249409,916.8473119325936,917.8516206480563,right,1,0.35,0.584959089756012,,,,,,,,,,,s10,001,2024-07-18_15h53.03.879,simplestop_skeleton,2022.2.2,60.00763811535808,
None,None,,,,,,,,,1,0,1,0,1,2,6,1,,,,,,,,,917.8332024030387,stop,circleblack.png,left,0.35,,,,,,,,,,,,,,,,,,0.0017616897821426392,0.49008137360215187,0.84061623737216,920.3359537385404,test,2,,,,,,917.8516206480563,918.3656411878765,918.3490782901645,918.3490782901645,918.6992264166474,919.1984182931483,919.3492410741746,920.3549948632717,left,1,0.3,0.39031387493014336,,,,,,,,,,,s10,001,2024-07-18_15h53.03.879,simplestop_skeleton,2022.2.2,60.00763811535808,
None,None,,,,,,,,,1,0,1,0,1,3,7,1,,,,,,,,,920.336391415447,stop,circleblack.png,left,0.3,,,,,,,,,,,,,,,,,,0.001379121094942093,0.48969340324401855,0.7897160649299622,922.8383901193738,test,2,,,,,,920.3549948632717,920.8682601489127,920.851922724396,920.851922724396,921.1518971920013,921.6523769982159,921.8529330231249,922.8604550436139,None,0,0.35,,,,,,,,,,,,s10,001,2024-07-18_15h53.03.879,simplestop_skeleton,2022.2.2,60.00763811535808,
None,None,,,,,,,,,1,0,1,0,2,0,8,3,,,,,,,,,922.8389486260712,go,squareblack.png,right,0.35,,,,,,,,,,,,,,,,,,0.002705410122871399,0.48772934451699257,,925.3410424143076,test,2,,,,,,922.8604550436139,923.3705106340349,923.3540333732963,923.3540333732963,923.7046502456069,924.2053221352398,924.3555390164256,925.360335290432,right,1,0.35,0.5176737308502197,,,,,,,,,,,s10,001,2024-07-18_15h53.03.879,simplestop_skeleton,2022.2.2,60.00763811535808,
$currentCorrectResponse,$currentGoStim,,,,,,,,,1,0,1,0,2,1,9,0,,,,,,,,,925.341489687562,go,circleblack.png,left,0.35,,,,,,,,,,,,,,,,,,0.001746632158756256,0.48993754386901855,,927.8437563180923,test,2,,,,,,925.360335290432,925.873772829771,925.8571078404784,925.8571078404784,926.2078276760876,926.7079976834357,926.8583344630897,927.8626666590571,left,1,0.35,0.48620906099677086,,,,,,,,,,,s10,001,2024-07-18_15h53.03.879,simplestop_skeleton,2022.2.2,60.00763811535808,
None,None,,,,,,,,,1,0,1,0,2,2,10,1,,,,,,,,,927.8441908694804,go,circleblack.png,left,0.35,,,,,,,,,,,,,,,,,,0.0014371462166309357,0.4898805320262909,,930.346756786108,test,2,,,,,,927.8626666590571,928.3767578974366,928.3599379174411,928.3599379174411,928.7106144577265,929.2108129225671,929.3605506308377,930.365799266845,left,1,0.35,0.3292863816022873,,,,,,,,,,,s10,001,2024-07-18_15h53.03.879,simplestop_skeleton,2022.2.2,60.00763811535808,
None,None,,,,,,,,,1,0,1,0,2,3,11,3,,,,,,,,,930.3471971452236,go,squareblack.png,right,0.35,,,,,,,,,,,,,,,,,,0.0015264637768268585,0.48965344950556755,,932.8495103567839,test,2,,,,,,930.365799266845,930.879292640835,930.8628767803311,930.8628767803311,931.2130292244256,931.7130631655455,931.8636725470424,932.8685378171504,right,1,0.35,0.29156841710209846,,,,,,,,,,,s10,001,2024-07-18_15h53.03.879,simplestop_skeleton,2022.2.2,60.00763811535808,
None,None,,,,,,,,,1,0,1,0,3,0,12,1,,,,,,,,,932.850044503808,stop,squareblack.png,right,0.35,,,,,,,,,,,,,,,,,,0.0013876520097255707,0.48946429789066315,0.8399585820734501,935.3519721850753,test,2,,,,,,932.8685378171504,933.3820617608726,933.365281958133,933.365281958133,933.7156845629215,934.2158438824117,934.3657786622643,935.3708369769156,right,1,0.3,0.4085485488176346,,,,,,,,,,,s10,001,2024-07-18_15h53.03.879,simplestop_skeleton,2022.2.2,60.00763811535808,
$currentCorrectResponse,$currentGoStim,,,,,,,,,1,0,1,0,3,1,13,0,,,,,,,,,935.3524013459682,go,squareblack.png,right,0.3,,,,,,,,,,,,,,,,,,0.0011972524225711823,0.4896746128797531,,937.8548468500376,test,2,,,,,,935.3708369769156,935.8848384693265,935.8681579753757,935.8681579753757,936.1682750806212,936.6690620854497,936.8690747581422,937.8744697794318,right,1,0.3,0.5239992067217827,,,,,,,,,,,s10,001,2024-07-18_15h53.03.879,simplestop_skeleton,2022.2.2,60.00763811535808,
$currentCorrectResponse,$currentGoStim,,,,,,,,,1,0,1,0,3,2,14,0,,,,,,,,,937.8552903756499,go,circleblack.png,left,0.3,,,,,,,,,,,,,,,,,,0.0021338947117328644,0.4897526614367962,,940.3576538078487,test,2,,,,,,937.8744697794318,938.3875917494297,938.3711462505162,938.3711462505162,938.6716021485627,939.1723436377943,939.3712016604841,940.376734316349,left,1,0.3,0.5324962623417377,,,,,,,,,,,s10,001,2024-07-18_15h53.03.879,simplestop_skeleton,2022.2.2,60.00763811535808,
None,None,,,,,,,,,1,0,1,0,3,3,15,2,,,,,,,,,940.3580971769989,go,squareblack.png,right,0.3,,,,,,,,,,,,,,,,,,0.0016887076199054718,0.48972439765930176,,942.8601627424359,test,2,,,,,,940.376734316349,940.8904365748167,940.8740014135838,940.8740014135838,941.1738125756383,941.674547046423,941.8740917257965,942.8796252980828,right,1,0.3,0.5563836619257927,,,,,,,,,,,s10,001,2024-07-18_15h53.03.879,simplestop_skeleton,2022.2.2,60.00763811535808,
None,None,,,,,,,,,1,0,1,0,4,0,16,3,,,,,,,,,942.8605889901519,go,circleblack.png,left,0.3,,,,,,,,,,,,,,,,,,0.0018077865242958069,0.4898473173379898,,945.3630016893148,test,2,,,,,,942.8796252980828,943.3931420110166,943.376326430589,943.376326430589,943.6766311489046,944.1760281212628,944.3767397403717,945.3821889683604,left,1,0.3,0.4836951978504658,,,,,,,,,,,s10,001,2024-07-18_15h53.03.879,simplestop_skeleton,2022.2.2,60.00763811535808,
None,None,,,,,,,,,1,0,1,0,4,1,17,3,,,,,,,,,945.363442927599,stop,circleblack.png,left,0.3,,,,,,,,,,,,,,,,,,0.0013866722583770752,0.4897177144885063,0.7897275127470493,947.8657003566623,test,2,,,,,,945.3821889683604,945.8958385512233,945.8791990242898,945.8791990242898,946.1793535351753,946.679389860481,946.879733376205,947.8847466185689,left,1,0.25,0.3849489651620388,,,,,,,,,,,s10,001,2024-07-18_15h53.03.879,simplestop_skeleton,2022.2.2,60.00763811535808,
None,None,,,,,,,,,1,0,1,0,4,2,18,3,,,,,,,,,947.8661242425442,go,circleblack.png,left,0.25,,,,,,,,,,,,,,,,,,0.0012623518705368042,0.4897768273949623,,950.368741247803,test,2,,,,,,947.8847466185689,948.3983982056379,948.3819104395807,948.3819104395807,948.6321501322091,949.1318183764815,949.3825070634484,950.3878727629781,left,1,0.25,0.379507627338171,,,,,,,,,,,s10,001,2024-07-18_15h53.03.879,simplestop_skeleton,2022.2.2,60.00763811535808,
None,None,,,,,,,,,1,0,1,0,4,3,19,2,,,,,,,,,950.3691651932895,go,squareblack.png,right,0.25,,,,,,,,,,,,,,,,,,0.0016675405204296112,0.4896547421813011,,952.8715987131,test,2,,,,,,950.3878727629781,950.9012647606432,950.8847967796028,950.8847967796028,951.1349315345287,951.6348445899785,951.8859809152782,952.8904455043375,right,1,0.25,0.32126185670495033,,,,,,,,,,,s10,001,2024-07-18_15h53.03.879,simplestop_skeleton,2022.2.2,60.00763811535808,
$currentCorrectResponse,$currentGoStim,,,,,,,,,1,0,1,0,5,0,20,0,,,,,,,,,952.8720301873982,stop,squareblack.png,right,0.25,,,,,,,,,,,,,,,,,,0.0013605840504169464,0.4896756634116173,0.7398537136614323,955.374290753156,test,2,,,,,,952.8904455043375,953.4040131494403,953.3874021545053,953.3874021545053,953.6378155015409,954.1382862478495,954.3888081870973,955.3934487439692,None,0,0.3,,,,,,,,,,,,s10,001,2024-07-18_15h53.03.879,simplestop_skeleton,2022.2.2,60.00763811535808,
None,None,,,,,,,,,1,0,1,0,5,1,21,3,,,,,,,,,955.3747271224856,stop,circleblack.png,left,0.3,,,,,,,,,,,,,,,,,,0.0017191357910633087,0.4900333508849144,0.790345586836338,957.877157535404,test,2,,,,,,955.3934487439692,955.9067954346538,955.8902080394328,955.8902080394328,956.190733127296,956.6912759430707,956.8916155621409,957.8964403159916,left,1,0.25,0.44435882195830345,,,,,,,,,,,s10,001,2024-07-18_15h53.03.879,simplestop_skeleton,2022.2.2,60.00763811535808,
None,None,,,,,,,,,1,0,1,0,5,2,22,1,,,,,,,,,957.8775917440653,go,squareblack.png,right,0.25,,,,,,,,,,,,,,,,,,0.0016781352460384369,0.49010825529694557,,960.3797900006175,test,2,,,,,,957.8964403159916,958.4095264226198,958.3930972926319,958.3930972926319,958.6435574479401,959.1433736458421,959.3941979333758,960.3993213325739,right,1,0.25,0.605203453451395,,,,,,,,,,,s10,001,2024-07-18_15h53.03.879,simplestop_skeleton,2022.2.2,60.00763811535808,
None,None,,,,,,,,,1,0,1,0,5,3,23,2,,,,,,,,,960.3802331015468,go,circleblack.png,left,0.25,,,,,,,,,,,,,,,,,,0.0018276460468769073,0.489507470279932,,962.8825593627989,test,2,,,,,,960.3993213325739,960.9124247059226,960.8956439942122,960.8956439942122,961.1463607661426,961.6467755697668,961.896967407316,962.9015012681484,left,1,0.25,0.5602768659591675,,,,,,,,,,,s10,001,2024-07-18_15h53.03.879,simplestop_skeleton,2022.2.2,60.00763811535808,
$currentCorrectResponse,$currentGoStim,,,,,,,,,1,0,1,0,6,0,24,0,,,,,,,,,962.8829869292676,stop,circleblack.png,left,0.25,,,,,,,,,,,,,,,,,,0.0013410896062850952,0.48967234790325165,0.7400200068950653,965.3855603709817,test,2,,,,,,962.9015012681484,963.4150848090649,963.398454144597,963.398454144597,963.6488467752934,964.1495002545416,964.3997173011303,965.4051599577069,None,0,0.3,,,,,,,,,,,,s10,001,2024-07-18_15h53.03.879,simplestop_skeleton,2022.2.2,60.00763811535808,
None,None,,,,,,,,,1,0,1,0,6,1,25,2,,,,,,,,,965.385984223336,go,squareblack.png,right,0.3,,,,,,,,,,,,,,,,,,0.0017578750848770142,0.48963748291134834,,967.8880487605929,test,2,,,,,,965.4051599577069,965.9180363677442,965.9014158844948,965.9014158844948,966.2015859670937,966.701860204339,966.9020447693765,967.9074546322227,right,1,0.3,0.38926194980740547,,,,,,,,,,,s10,001,2024-07-18_15h53.03.879,simplestop_skeleton,2022.2.2,60.00763811535808,
None,None,,,,,,,,,1,0,1,0,6,2,26,1,,,,,,,,,967.8884722031653,stop,circleblack.png,left,0.3,,,,,,,,,,,,,,,,,,0.001961488276720047,0.48977160826325417,0.78982974588871,970.3905631378293,test,2,,,,,,967.9074546322227,968.4207146018744,968.404046420008,968.404046420008,968.7044002972543,969.2050354219973,969.4052763208747,970.4096800535917,None,0,0.35,,,,,,,,,,,,s10,001,2024-07-18_15h53.03.879,simplestop_skeleton,2022.2.2,60.00763811535808,
None,None,,,,,,,,,1,0,1,0,6,3,27,3,,,,,,,,,970.3909873701632,go,circleblack.png,left,0.35,,,,,,,,,,,,,,,,,,0.001373041421175003,0.48994105681777,,972.8934738598764,test,2,,,,,,970.4096800535917,970.9236688651145,970.9069228433073,970.9069228433073,971.2571847587824,971.7576069496572,971.9074494540691,972.9123557470739,left,1,0.35,0.4477314278483391,,,,,,,,,,,s10,001,2024-07-18_15h53.03.879,simplestop_skeleton,2022.2.2,60.00763811535808,
$currentCorrectResponse,$currentGoStim,,,,,,,,,1,0,1,0,7,0,28,0,,,,,,,,,972.893922906369,go,circleblack.png,left,0.35,,,,,,,,,,,,,,,,,,0.0012504607439041138,0.48972465097904205,,975.3961369208992,test,2,,,,,,972.9123557470739,973.4264406487346,973.4095202572644,973.4095202572644,973.7597941718996,974.2591623403132,974.4102236516774,975.4155294895172,left,1,0.35,0.5087459087371826,,,,,,,,,,,s10,001,2024-07-18_15h53.03.879,simplestop_skeleton,2022.2.2,60.00763811535808,
$currentCorrectResponse,$currentGoStim,,,,,,,,,1,0,1,0,7,1,29,0,,,,,,,,,975.3965775109828,go,circleblack.png,left,0.35,,,,,,,,,,,,,,,,,,0.0014822222292423248,0.4892132580280304,,977.8998542614281,test,2,,,,,,975.4155294895172,975.9287357702851,975.9126124940813,975.9126124940813,976.2629023082554,976.7626869902015,976.912614595145,977.9188060350716,left,1,0.35,0.539788480848074,,,,,,,,,,,s10,001,2024-07-18_15h53.03.879,simplestop_skeleton,2022.2.2,60.00763811535808,
$currentCorrectResponse,$currentGoStim,,,,,,,,,1,0,1,0,7,2,30,0,,,,,,,,,977.9002829529345,stop,squareblack.png,right,0.35,,,,,,,,,,,,,,,,,,0.002493821084499359,0.4890115335583687,0.8392288871109486,980.401746828109,test,2,,,,,,977.9188060350716,978.431582365185,978.4151204936206,978.4151204936206,978.7653082869947,979.2658907286823,979.4160880558193,980.4208243303001,None,0,0.4,,,,,,,,,,,,s10,001,2024-07-18_15h53.03.879,simplestop_skeleton,2022.2.2,60.00763811535808,
None,None,,,,,,,,,1,0,1,0,7,3,31,2,,,,,,,,,980.4021805971861,stop,squareblack.png,right,0.4,,,,,,,,,,,,,,,,,,0.0013147331774234772,0.48944923654198647,0.890042882412672,982.9047894738615,test,2,,,,,,980.4208243303001,980.9345273114741,980.9179575368762,980.9179575368762,981.3183742575347,981.818761356175,981.9189512394369,982.9241549707949,right,1,0.35,0.5514611415565014,,,,,,,,,,,s10,001,2024-07-18_15h53.03.879,simplestop_skeleton,2022.2.2,60.00763811535808,
None,None,,,,,,,,,1,0,1,0,8,0,32,1,,,,,,,,,982.9052317924798,go,circleblack.png,left,0.35,,,,,,,,,,,,,,,,,,0.0018586739897727966,0.48960138484835625,,985.4076273925602,test,2,,,,,,982.9241549707949,983.4374096505344,983.4206029176712,983.4206029176712,983.7714395783842,984.2869947068393,984.4212051033974,985.4269548431039,left,1,0.35,0.4765267074108124,,,,,,,,,,,s10,001,2024-07-18_15h53.03.879,simplestop_skeleton,2022.2.2,60.00763811535808,
None,None,,,,,,,,,1,0,1,0,8,1,33,3,,,,,,,,,985.4080547504127,go,squareblack.png,right,0.35,,,,,,,,,,,,,,,,,,0.001763373613357544,0.4892181158065796,,987.9107311964035,test,2,,,,,,985.4269548431039,985.9401192292571,985.9236721619964,985.9236721619964,986.2736676223576,986.774012349546,986.9241395182908,987.9295776002109,right,1,0.35,0.47184546291828156,,,,,,,,,,,s10,001,2024-07-18_15h53.03.879,simplestop_skeleton,2022.2.2,60.00763811535808,
None,None,,,,,,,,,1,0,1,0,8,2,34,3,,,,,,,,,987.9111671820283,go,squareblack.png,right,0.35,,,,,,,,,,,,,,,,,,0.0014004223048686981,0.4891296215355396,,990.4129555486143,test,2,,,,,,987.9295776002109,988.4428081065416,988.4260017462075,988.4260017462075,988.7765790112317,989.275758549571,989.4263474792242,990.4320901483297,right,1,0.35,0.5182370208203793,,,,,,,,,,,s10,001,2024-07-18_15h53.03.879,simplestop_skeleton,2022.2.2,60.00763811535808,
None,None,,,,,,,,,1,0,1,0,8,3,35,2,,,,,,,,,990.4133963026106,go,squareblack.png,right,0.35,,,,,,,,,,,,,,,,,,0.001257672905921936,0.48981311172246933,,992.9156513623893,test,2,,,,,,990.4320901483297,990.9455261491239,990.9289331920445,990.9289331920445,991.2792335413396,991.7798473648727,991.9295357689261,992.9347651712596,right,1,0.35,0.5962044596672058,,,,,,,,,,,s10,001,2024-07-18_15h53.03.879,simplestop_skeleton,2022.2.2,60.00763811535808,
$currentCorrectResponse,$currentGoStim,,,,,,,,,1,0,1,0,9,0,36,0,,,,,,,,,992.9160788021982,go,circleblack.png,left,0.35,,,,,,,,,,,,,,,,,,0.0017987824976444244,0.4901813939213753,,995.4187420792878,test,2,,,,,,992.9347651712596,993.4485046565533,993.4317682683468,993.4317682683468,993.7821532227099,994.2817754261196,994.4325759038329,995.4377594180405,left,1,0.35,0.43124498799443245,,,,,,,,,,,s10,001,2024-07-18_15h53.03.879,simplestop_skeleton,2022.2.2,60.00763811535808,
None,None,,,,,,,,,1,0,1,0,9,1,37,1,,,,,,,,,995.4191730767488,stop,circleblack.png,left,0.35,,,,,,,,,,,,,,,,,,0.0013567283749580383,0.4895959682762623,0.8400030769407749,997.9211110770702,test,2,,,,,,995.4377594180405,995.9511766694486,995.9343993552029,995.9343993552029,996.284797962755,996.7855287827551,996.9354914240539,997.9401889704168,None,0,0.4,,,,,,,,,,,,s10,001,2024-07-18_15h53.03.879,simplestop_skeleton,2022.2.2,60.00763811535808,
None,None,,,,,,,,,1,0,1,0,9,2,38,1,,,,,,,,,997.9215363375843,go,squareblack.png,right,0.4,,,,,,,,,,,,,,,,,,0.0016764961183071136,0.48968978226184845,,1000.4237692430615,test,2,,,,,,997.9401889704168,998.4536918587983,998.4369458071887,998.4369458071887,998.8374806419015,999.336677197367,999.4375645816326,1000.4426741488278,right,1,0.4,0.5481732077896595,,,,,,,,,,,s10,001,2024-07-18_15h53.03.879,simplestop_skeleton,2022.2.2,60.00763811535808,
None,None,,,,,,,,,1,0,1,0,9,3,39,3,,,,,,,,,1000.4242022186518,stop,circleblack.png,left,0.4,,,,,,,,,,,,,,,,,,0.0017011724412441254,0.48983674496412277,0.8905023634433746,1002.9268591031432,test,2,,,,,,1000.4426741488278,1000.956443157047,1000.9398554861546,1000.9398554861546,1001.3402415290475,1001.8396514505148,1001.940257653594,1002.9454006105661,left,1,0.35,0.534510251134634,,,,,,,,,,,s10,001,2024-07-18_15h53.03.879,simplestop_skeleton,2022.2.2,60.00763811535808,
None,None,,,,,,,,,1,0,1,0,10,0,40,2,,,,,,,,,1002.9272862635553,go,circleblack.png,left,0.35,,,,,,,,,,,,,,,,,,0.001390203833580017,0.4899139478802681,,1005.429660577327,test,2,,,,,,1002.9454006105661,1003.459413677454,1003.4427377842367,1003.4427377842367,1003.7930673845112,1004.2940998263657,1004.44330483675,1005.4486063979566,left,1,0.35,0.4685167297720909,,,,,,,,,,,s10,001,2024-07-18_15h53.03.879,simplestop_skeleton,2022.2.2,60.00763811535808,
None,None,,,,,,,,,1,0,1,0,10,1,41,3,,,,,,,,,1005.4300988614559,go,squareblack.png,right,0.35,,,,,,,,,,,,,,,,,,0.001607988029718399,0.48979371786117554,,1007.9320071451366,test,2,,,,,,1005.4486063979566,1005.962348151952,1005.9455208741128,1005.9455208741128,1006.2958332896233,1006.7951986081898,1006.9462490752339,1007.9514619000256,right,1,0.35,0.5223672762513161,,,,,,,,,,,s10,001,2024-07-18_15h53.03.879,simplestop_skeleton,2022.2.2,60.00763811535808,
None,None,,,,,,,,,1,0,1,0,10,2,42,1,,,,,,,,,1007.9324416257441,stop,squareblack.png,right,0.35,,,,,,,,,,,,,,,,,,0.001377735286951065,0.4892369285225868,0.8399772122502327,1010.4348493367434,test,2,,,,,,1007.9514619000256,1008.465128146112,1008.4484236389399,1008.4484236389399,1008.79868465662,1009.2991669587791,1009.449601393193,1010.4542987830937,right,1,0.3,0.46268273144960403,,,,,,,,,,,s10,001,2024-07-18_15h53.03.879,simplestop_skeleton,2022.2.2,60.00763811535808,
$currentCorrectResponse,$currentGoStim,,,,,,,,,1,0,1,0,10,3,43,0,,,,,,,,,1010.4352818541229,go,circleblack.png,left,0.3,,,,,,,,,,,,,,,,,,0.0019545480608940125,0.4901541918516159,,1012.9377565532923,test,2,,,,,,1010.4542987830937,1010.9681650586426,1010.9510398805141,1010.9510398805141,1011.2514265812933,1011.7520442157984,1011.9521363899112,1012.9566400758922,left,1,0.3,0.5087467469274998,,,,,,,,,,,s10,001,2024-07-18_15h53.03.879,simplestop_skeleton,2022.2.2,60.00763811535808,
None,None,,,,,,,,,1,0,1,0,11,0,44,2,,,,,,,,,1012.9381808042526,go,circleblack.png,left,0.3,,,,,,,,,,,,,,,,,,0.0013355240225791931,0.4896007515490055,,1015.440422680229,test,2,,,,,,1012.9566400758922,1013.4703546687961,1013.4536432959139,1013.4536432959139,1013.7542053088546,1014.2546777799726,1014.4544519148767,1015.4592525921762,left,1,0.3,0.5501195155084133,,,,,,,,,,,s10,001,2024-07-18_15h53.03.879,simplestop_skeleton,2022.2.2,60.00763811535808,
$currentCorrectResponse,$currentGoStim,,,,,,,,,1,0,1,0,11,1,45,0,,,,,,,,,1015.440852496773,go,squareblack.png,right,0.3,,,,,,,,,,,,,,,,,,0.0016383938491344452,0.48992694914340973,,1017.9434250034392,test,2,,,,,,1015.4592525921762,1015.9731549955904,1015.9564537368715,1015.9564537368715,1016.256625611335,1016.7573819756508,1016.9571553617716,1017.9621327854693,right,1,0.3,0.49873819574713707,,,,,,,,,,,s10,001,2024-07-18_15h53.03.879,simplestop_skeleton,2022.2.2,60.00763811535808,
None,None,,,,,,,,,1,0,1,0,11,2,46,3,,,,,,,,,1017.9438737332821,stop,squareblack.png,right,0.3,,,,,,,,,,,,,,,,,,0.0012920573353767395,0.4897601455450058,0.7900376692414284,1020.4460201002657,test,2,,,,,,1017.9621327854693,1018.476013764739,1018.459369007498,1018.459369007498,1018.7595176398754,1019.2601721286774,1019.4603259824216,1020.465250339359,None,0,0.35,,,,,,,,,,,,s10,001,2024-07-18_15h53.03.879,simplestop_skeleton,2022.2.2,60.00763811535808,
None,None,,,,,,,,,1,0,1,0,11,3,47,2,,,,,,,,,1020.4464645013213,go,squareblack.png,right,0.35,,,,,,,,,,,,,,,,,,0.0012923665344715118,0.489813145250082,,1022.9486791305244,test,2,,,,,,1020.465250339359,1020.9789135381579,1020.9622864574194,1020.9622864574194,1021.3126682788134,1021.829869389534,1021.9626563824713,1022.9642969705164,right,1,0.35,0.46951228380203247,,,,,,,,,,,s10,001,2024-07-18_15h53.03.879,simplestop_skeleton,2022.2.2,60.00763811535808,
,,,,,,,,,,1,0,1,0,,,,,,,,,,,,,,,,,,,,,,,,,,,,,,,,,,,,,,,,,,,,,,,,,,,,,,,,,,1022.9642969705164,1022.9642969705164,return,7.976991809904575,"[{'fileName': 'circleblack.png', 'correct_response': 'left', 'condition': 'stop'}, {'fileName': 'squareblack.png', 'correct_response': 'right', 'condition': 'go'}, {'fileName': 'circleblack.png', 'correct_response': 'left', 'condition': 'go'}, {'fileName': 'squareblack.png', 'correct_response': 'right', 'condition': 'go'}, {'fileName': 'squareblack.png', 'correct_response': 'right', 'condition': 'go'}, {'fileName': 'circleblack.png', 'correct_response': 'left', 'condition': 'go'}, {'fileName': 'circleblack.png', 'correct_response': 'left', 'condition': 'stop'}, {'fileName': 'squareblack.png', 'correct_response': 'right', 'condition': 'go'}, {'fileName': 'circleblack.png', 'correct_response': 'left', 'condition': 'go'}, {'fileName': 'squareblack.png', 'correct_response': 'right', 'condition': 'stop'}, {'fileName': 'circleblack.png', 'correct_response': 'left', 'condition': 'go'}, {'fileName': 'squareblack.png', 'correct_response': 'right', 'condition': 'stop'}, {'fileName': 'circleblack.png', 'correct_response': 'left', 'condition': 'stop'}, {'fileName': 'squareblack.png', 'correct_response': 'right', 'condition': 'stop'}, {'fileName': 'squareblack.png', 'correct_response': 'right', 'condition': 'stop'}, {'fileName': 'circleblack.png', 'correct_response': 'left', 'condition': 'go'}, {'fileName': 'squareblack.png', 'correct_response': 'right', 'condition': 'go'}, {'fileName': 'circleblack.png', 'correct_response': 'left', 'condition': 'go'}, {'fileName': 'circleblack.png', 'correct_response': 'left', 'condition': 'go'}, {'fileName': 'squareblack.png', 'correct_response': 'right', 'condition': 'go'}, {'fileName': 'circleblack.png', 'correct_response': 'left', 'condition': 'stop'}, {'fileName': 'squareblack.png', 'correct_response': 'right', 'condition': 'go'}, {'fileName': 'squareblack.png', 'correct_response': 'right', 'condition': 'go'}, {'fileName': 'circleblack.png', 'correct_response': 'left', 'condition': 'go'}, {'fileName': 'circleblack.png', 'correct_response': 'left', 'condition': 'stop'}, {'fileName': 'squareblack.png', 'correct_response': 'right', 'condition': 'stop'}, {'fileName': 'circleblack.png', 'correct_response': 'left', 'condition': 'go'}, {'fileName': 'squareblack.png', 'correct_response': 'right', 'condition': 'go'}, {'fileName': 'squareblack.png', 'correct_response': 'right', 'condition': 'go'}, {'fileName': 'circleblack.png', 'correct_response': 'left', 'condition': 'go'}, {'fileName': 'squareblack.png', 'correct_response': 'right', 'condition': 'go'}, {'fileName': 'circleblack.png', 'correct_response': 'left', 'condition': 'go'}, {'fileName': 'circleblack.png', 'correct_response': 'left', 'condition': 'go'}, {'fileName': 'squareblack.png', 'correct_response': 'right', 'condition': 'go'}, {'fileName': 'squareblack.png', 'correct_response': 'right', 'condition': 'stop'}, {'fileName': 'circleblack.png', 'correct_response': 'left', 'condition': 'stop'}, {'fileName': 'squareblack.png', 'correct_response': 'right', 'condition': 'stop'}, {'fileName': 'circleblack.png', 'correct_response': 'left', 'condition': 'go'}, {'fileName': 'squareblack.png', 'correct_response': 'right', 'condition': 'go'}, {'fileName': 'squareblack.png', 'correct_response': 'right', 'condition': 'go'}, {'fileName': 'squareblack.png', 'correct_response': 'right', 'condition': 'go'}, {'fileName': 'circleblack.png', 'correct_response': 'left', 'condition': 'go'}, {'fileName': 'circleblack.png', 'correct_response': 'left', 'condition': 'stop'}, {'fileName': 'circleblack.png', 'correct_response': 'left', 'condition': 'go'}, {'fileName': 'squareblack.png', 'correct_response': 'right', 'condition': 'go'}, {'fileName': 'squareblack.png', 'correct_response': 'right', 'condition': 'stop'}, {'fileName': 'circleblack.png', 'correct_response': 'left', 'condition': 'stop'}, {'fileName': 'circleblack.png', 'correct_response': 'left', 'condition': 'go'}]",,,,,,s10,001,2024-07-18_15h53.03.879,simplestop_skeleton,2022.2.2,60.00763811535808,
None,None,,,,,,,,,2,0,2,0,0,0,0,1,,,,,,,,,1030.9654707573354,stop,circleblack.png,left,0.35,,,,,,,,,,,,,,,,,,0.0019077211618423462,0.4978090822696686,0.8485491685569286,1033.477148130536,test,3,,,,,,1030.984512526542,1031.4899427592754,1031.4899427592754,1031.4899427592754,1031.8406282253563,1032.341222975403,1032.4912326969206,1033.4967354051769,left,1,0.3,0.53506039083004,,,,,,,,,,,s10,001,2024-07-18_15h53.03.879,simplestop_skeleton,2022.2.2,60.00763811535808,
$currentCorrectResponse,$currentGoStim,,,,,,,,,2,0,2,0,0,1,1,0,,,,,,,,,1033.4777588024735,go,squareblack.png,right,0.3,,,,,,,,,,,,,,,,,,0.0018216893076896667,0.489190686494112,,1035.9798798300326,test,3,,,,,,1033.4967354051769,1034.0097364261746,1033.9930341802537,1033.9930341802537,1034.2932616136968,1034.7937497198582,1034.9937780238688,1035.999089948833,right,1,0.3,0.5223844721913338,,,,,,,,,,,s10,001,2024-07-18_15h53.03.879,simplestop_skeleton,2022.2.2,60.00763811535808,
None,None,,,,,,,,,2,0,2,0,0,2,2,1,,,,,,,,,1035.9803205244243,go,circleblack.png,left,0.3,,,,,,,,,,,,,,,,,,0.0018819086253643036,0.4895973950624466,,1038.4826022610068,test,3,,,,,,1035.999089948833,1036.5125258043408,1036.4956551231444,1036.4956551231444,1036.7960590049624,1037.2952171489596,1037.4962345808744,1038.5018562152982,left,1,0.3,0.4859790615737438,,,,,,,,,,,s10,001,2024-07-18_15h53.03.879,simplestop_skeleton,2022.2.2,60.00763811535808,
$currentCorrectResponse,$currentGoStim,,,,,,,,,2,0,2,0,0,3,3,0,,,,,,,,,1038.4830288887024,go,squareblack.png,right,0.3,,,,,,,,,,,,,,,,,,0.0016668550670146942,0.4896572157740593,,1040.9855059050024,test,3,,,,,,1038.5018562152982,1039.0152838602662,1038.9986594840884,1038.9986594840884,1039.2989982999861,1039.7983841337264,1039.9990649595857,1041.0042479783297,right,1,0.3,0.5015672072768211,,,,,,,,,,,s10,001,2024-07-18_15h53.03.879,simplestop_skeleton,2022.2.2,60.00763811535808,
$currentCorrectResponse,$currentGoStim,,,,,,,,,2,0,2,0,1,0,4,0,,,,,,,,,1040.9859470240772,go,squareblack.png,right,0.3,,,,,,,,,,,,,,,,,,0.001356419175863266,0.48997456580400467,,1043.4880846887827,test,3,,,,,,1041.0042479783297,1041.517965041101,1041.5014243870974,1041.5014243870974,1041.8019000254571,1042.302636001259,1042.5019227266312,1043.5072750411928,right,1,0.3,0.5790780484676361,,,,,,,,,,,s10,001,2024-07-18_15h53.03.879,simplestop_skeleton,2022.2.2,60.00763811535808,
None,None,,,,,,,,,2,0,2,0,1,1,5,3,,,,,,,,,1043.4885268434882,go,circleblack.png,left,0.3,,,,,,,,,,,,,,,,,,0.0017394497990608215,0.4901535175740719,,1045.9909452833235,test,3,,,,,,1043.5072750411928,1044.0207291394472,1044.0044591128826,1044.0044591128826,1044.3047541715205,1044.8050582036376,1045.0045061595738,1046.010182198137,left,1,0.3,0.6420538201928139,,,,,,,,,,,s10,001,2024-07-18_15h53.03.879,simplestop_skeleton,2022.2.2,60.00763811535808,
None,None,,,,,,,,,2,0,2,0,1,2,6,3,,,,,,,,,1045.9913820140064,stop,circleblack.png,left,0.3,,,,,,,,,,,,,,,,,,0.001404639333486557,0.48957857489585876,0.7901002243161201,1048.4935680665076,test,3,,,,,,1046.010182198137,1046.5235461778939,1046.5068131536245,1046.5068131536245,1046.807430986315,1047.3063395395875,1047.5078873634338,1048.5127158500254,left,1,0.25,0.47844192013144493,,,,,,,,,,,s10,001,2024-07-18_15h53.03.879,simplestop_skeleton,2022.2.2,60.00763811535808,
$currentCorrectResponse,$currentGoStim,,,,,,,,,2,0,2,0,1,3,7,0,,,,,,,,,1048.4939891248941,go,squareblack.png,right,0.25,,,,,,,,,,,,,,,,,,0.0016789734363555908,0.4898637793958187,,1050.9966945163906,test,3,,,,,,1048.5127158500254,1049.0267011262476,1049.0095441229641,1049.0095441229641,1049.2599758654833,1049.76044549793,1050.0098800994456,1051.0159826092422,right,1,0.25,0.5245158895850182,,,,,,,,,,,s10,001,2024-07-18_15h53.03.879,simplestop_skeleton,2022.2.2,60.00763811535808,
None,None,,,,,,,,,2,0,2,0,2,0,8,1,,,,,,,,,1050.9971205629408,go,circleblack.png,left,0.25,,,,,,,,,,,,,,,,,,0.0019166842103004456,0.48951081931591034,,1053.4991633929312,test,3,,,,,,1051.0159826092422,1051.5291306376457,1051.5126560591161,1051.5126560591161,1051.7626743912697,1052.2631943896413,1052.512807957828,1053.5183276683092,left,1,0.25,0.4959787353873253,,,,,,,,,,,s10,001,2024-07-18_15h53.03.879,simplestop_skeleton,2022.2.2,60.00763811535808,
$currentCorrectResponse,$currentGoStim,,,,,,,,,2,0,2,0,2,1,9,0,,,,,,,,,1053.4996041879058,stop,squareblack.png,right,0.25,,,,,,,,,,,,,,,,,,0.001653481274843216,0.4898424409329891,0.7401421405375004,1056.0019930675626,test,3,,,,,,1053.5183276683092,1054.0316585488617,1054.0151640102267,1054.0151640102267,1054.2654509320855,1054.766111716628,1055.0161022916436,1056.0210290886462,None,0,0.3,,,,,,,,,,,,s10,001,2024-07-18_15h53.03.879,simplestop_skeleton,2022.2.2,60.00763811535808,
None,None,,,,,,,,,2,0,2,0,2,2,10,3,,,,,,,,,1056.0024366006255,go,circleblack.png,left,0.3,,,,,,,,,,,,,,,,,,0.0017317943274974823,0.48963042348623276,,1058.504410803318,test,3,,,,,,1056.0210290886462,1056.5346107296646,1056.5180286690593,1056.5180286690593,1056.818330153823,1057.3192869089544,1057.5182236209512,1058.5238021984696,left,1,0.3,0.551676332950592,,,,,,,,,,,s10,001,2024-07-18_15h53.03.879,simplestop_skeleton,2022.2.2,60.00763811535808,
None,None,,,,,,,,,2,0,2,0,2,3,11,3,,,,,,,,,1058.5048340596259,stop,squareblack.png,right,0.3,,,,,,,,,,,,,,,,,,0.0017330944538116455,0.4900471419095993,0.7902902960777283,1061.0075140073895,test,3,,,,,,1058.5238021984696,1059.0373763293028,1059.0205147527158,1059.0205147527158,1059.3209654726088,1059.8215000331402,1060.021732505411,1061.026926316321,None,0,0.35,,,,,,,,,,,,s10,001,2024-07-18_15h53.03.879,simplestop_skeleton,2022.2.2,60.00763811535808,
None,None,,,,,,,,,2,0,2,0,3,0,12,3,,,,,,,,,1061.0079485960305,stop,circleblack.png,left,0.35,,,,,,,,,,,,,,,,,,0.0018857680261135101,0.4895433448255062,0.8401415459811687,1063.5102901645005,test,3,,,,,,1061.026926316321,1061.5399792678654,1061.523352805525,1061.523352805525,1061.8739154487848,1062.3898104950786,1062.523674543947,1063.5295853316784,left,1,0.3,0.5013097487390041,,,,,,,,,,,s10,001,2024-07-18_15h53.03.879,simplestop_skeleton,2022.2.2,60.00763811535808,
None,None,,,,,,,,,2,0,2,0,3,1,13,3,,,,,,,,,1063.5107172206044,stop,squareblack.png,right,0.3,,,,,,,,,,,,,,,,,,0.0016168467700481415,0.48953938111662865,0.7901443503797054,1066.0128516182303,test,3,,,,,,1063.5295853316784,1064.0428724884987,1064.0263521075249,1064.0263521075249,1064.326541442424,1064.827095951885,1065.0275446474552,1066.0311145074666,None,0,0.35,,,,,,,,,,,,s10,001,2024-07-18_15h53.03.879,simplestop_skeleton,2022.2.2,60.00763811535808,
None,None,,,,,,,,,2,0,2,0,3,2,14,3,,,,,,,,,1066.013295583427,stop,squareblack.png,right,0.35,,,,,,,,,,,,,,,,,,0.0011746659874916077,0.4899068549275398,0.8405085504055023,1068.5159489512444,test,3,,,,,,1066.0311145074666,1066.5457956790924,1066.529140446335,1066.529140446335,1066.8792759515345,1067.3801057897508,1067.529999036342,1068.5352638885379,None,0,0.4,,,,,,,,,,,,s10,001,2024-07-18_15h53.03.879,simplestop_skeleton,2022.2.2,60.00763811535808,
None,None,,,,,,,,,2,0,2,0,3,3,15,2,,,,,,,,,1068.5163826420903,go,circleblack.png,left,0.4,,,,,,,,,,,,,,,,,,0.0018728114664554596,0.4897807314991951,,1071.0182582251728,test,3,,,,,,1068.5352638885379,1069.0484799854457,1069.0317158922553,1069.0317158922553,1069.4322493970394,1069.9336540661752,1070.0320557840168,1071.037561364472,left,1,0.4,0.5054230280220509,,,,,,,,,,,s10,001,2024-07-18_15h53.03.879,simplestop_skeleton,2022.2.2,60.00763811535808,
None,None,,,,,,,,,2,0,2,0,4,0,16,3,,,,,,,,,1071.0187019631267,go,squareblack.png,right,0.4,,,,,,,,,,,,,,,,,,0.0016843713819980621,0.4898361302912235,,1073.5211796201766,test,3,,,,,,1071.037561364472,1071.5513520762324,1071.534658614546,1071.534658614546,1071.9350960850716,1072.43410962075,1072.5349515751004,1073.5404313132167,right,1,0.4,0.522513709962368,,,,,,,,,,,s10,001,2024-07-18_15h53.03.879,simplestop_skeleton,2022.2.2,60.00763811535808,
None,None,,,,,,,,,2,0,2,0,4,1,17,2,,,,,,,,,1073.5216214060783,go,circleblack.png,left,0.4,,,,,,,,,,,,,,,,,,0.0018453411757946014,0.4896206855773926,,1076.0236743986607,test,3,,,,,,1073.5404313132167,1074.0539376996458,1074.0371027849615,1074.0371027849615,1074.43762787804,1074.9369622841477,1075.037689909339,1076.0424843989313,left,1,0.4,0.5177017487585545,,,,,,,,,,,s10,001,2024-07-18_15h53.03.879,simplestop_skeleton,2022.2.2,60.00763811535808,
None,None,,,,,,,,,2,0,2,0,4,2,18,1,,,,,,,,,1076.024117488414,go,circleblack.png,left,0.4,,,,,,,,,,,,,,,,,,0.0012401752173900604,0.4898773245513439,,1078.5268159732223,test,3,,,,,,1076.0424843989313,1076.5565754286945,1076.5399947091937,1076.5399947091937,1076.9403891414404,1077.4395105950534,1077.5406218208373,1078.5457897670567,left,1,0.4,0.5342189408838749,,,,,,,,,,,s10,001,2024-07-18_15h53.03.879,simplestop_skeleton,2022.2.2,60.00763811535808,
None,None,,,,,,,,,2,0,2,0,4,3,19,2,,,,,,,,,1078.5272500030696,go,squareblack.png,right,0.4,,,,,,,,,,,,,,,,,,0.001655925065279007,0.4899634011089802,,1081.0294096395373,test,3,,,,,,1078.5457897670567,1079.0595986619592,1079.0427980199456,1079.0427980199456,1079.4434154853225,1079.9591204710305,1080.0435251928866,1081.048687260598,right,1,0.4,0.557292714715004,,,,,,,,,,,s10,001,2024-07-18_15h53.03.879,simplestop_skeleton,2022.2.2,60.00763811535808,
None,None,,,,,,,,,2,0,2,0,5,0,20,2,,,,,,,,,1081.029837474227,stop,circleblack.png,left,0.4,,,,,,,,,,,,,,,,,,0.001732751727104187,0.489825114607811,0.8906127773225307,1083.5321739576757,test,3,,,,,,1081.048687260598,1081.562247429043,1081.545642927289,1081.545642927289,1081.9461326412857,1082.4463917203248,1082.5462204962969,1083.5515472181141,left,1,0.35,0.4684533216059208,,,,,,,,,,,s10,001,2024-07-18_15h53.03.879,simplestop_skeleton,2022.2.2,60.00763811535808,
None,None,,,,,,,,,2,0,2,0,5,1,21,1,,,,,,,,,1083.5326099656522,go,squareblack.png,right,0.35,,,,,,,,,,,,,,,,,,0.001681596040725708,0.4895804785192013,,1086.03500412032,test,3,,,,,,1083.5515472181141,1084.065204538405,1084.0482062064111,1084.0482062064111,1084.3986193314195,1084.8981242924929,1085.0488935410976,1086.0539361685514,right,1,0.35,0.48571741953492165,,,,,,,,,,,s10,001,2024-07-18_15h53.03.879,simplestop_skeleton,2022.2.2,60.00763811535808,
None,None,,,,,,,,,2,0,2,0,5,2,22,2,,,,,,,,,1086.0354406535625,go,squareblack.png,right,0.35,,,,,,,,,,,,,,,,,,0.0012808740139007568,0.48965031281113625,,1088.5378636829555,test,3,,,,,,1086.0539361685514,1086.5675533413887,1086.5509880296886,1086.5509880296886,1086.901610236615,1087.4172792583704,1087.5513846240938,1088.5568595267832,right,1,0.35,0.5093738287687302,,,,,,,,,,,s10,001,2024-07-18_15h53.03.879,simplestop_skeleton,2022.2.2,60.00763811535808,
None,None,,,,,,,,,2,0,2,0,5,3,23,3,,,,,,,,,1088.5383001863956,go,circleblack.png,left,0.35,,,,,,,,,,,,,,,,,,0.0018295049667358398,0.48987114429473877,,1091.040694642812,test,3,,,,,,1088.5568595267832,1089.0704590789974,1089.0537685491145,1089.0537685491145,1089.4042440243065,1089.9034058488905,1090.0545368492603,1091.0596167817712,left,1,0.35,0.5267339237034321,,,,,,,,,,,s10,001,2024-07-18_15h53.03.879,simplestop_skeleton,2022.2.2,60.00763811535808,
None,None,,,,,,,,,2,0,2,0,6,0,24,1,,,,,,,,,1091.0411208346486,stop,circleblack.png,left,0.35,,,,,,,,,,,,,,,,,,0.0013782121241092682,0.4897686652839184,0.8398294821381569,1093.5432940274477,test,3,,,,,,1091.0596167817712,1091.5733349137008,1091.5567329339683,1091.5567329339683,1091.906940639019,1092.4076645821333,1092.5576772876084,1093.5621891058981,None,0,0.4,,,,,,,,,,,,s10,001,2024-07-18_15h53.03.879,simplestop_skeleton,2022.2.2,60.00763811535808,
None,None,,,,,,,,,2,0,2,0,6,1,25,1,,,,,,,,,1093.5438105203211,stop,squareblack.png,right,0.4,,,,,,,,,,,,,,,,,,0.0015929974615573883,0.489984892308712,0.8903014101088047,1096.0458801873028,test,3,,,,,,1093.5621891058981,1094.0761472694576,1094.0593775846064,1094.0593775846064,1094.460073173046,1094.9775750748813,1095.0600341409445,1096.0651913322508,right,1,0.35,0.5226194225251675,,,,,,,,,,,s10,001,2024-07-18_15h53.03.879,simplestop_skeleton,2022.2.2,60.00763811535808,
None,None,,,,,,,,,2,0,2,0,6,2,26,2,,,,,,,,,1096.0463105253875,go,circleblack.png,left,0.35,,,,,,,,,,,,,,,,,,0.0018096379935741425,0.48993004858493805,,1098.5486444681883,test,3,,,,,,1096.0651913322508,1096.5789328068495,1096.562046226114,1096.562046226114,1096.912339311093,1097.4130463339388,1097.5627744868398,1098.5676712356508,left,1,0.35,0.5925115793943405,,,,,,,,,,,s10,001,2024-07-18_15h53.03.879,simplestop_skeleton,2022.2.2,60.00763811535808,
$currentCorrectResponse,$currentGoStim,,,,,,,,,2,0,2,0,6,3,27,0,,,,,,,,,1098.5490682274103,go,squareblack.png,right,0.35,,,,,,,,,,,,,,,,,,0.0017273277044296265,0.48974989727139473,,1101.0515434928238,test,3,,,,,,1098.5676712356508,1099.081585071981,1099.0648795440793,1099.0648795440793,1099.4155603051186,1099.9145433194935,1100.0652890354395,1101.0705979540944,right,1,0.35,0.5484543517231941,,,,,,,,,,,s10,001,2024-07-18_15h53.03.879,simplestop_skeleton,2022.2.2,60.00763811535808,
$currentCorrectResponse,$currentGoStim,,,,,,,,,2,0,2,0,7,0,28,0,,,,,,,,,1101.0519777312875,go,squareblack.png,right,0.35,,,,,,,,,,,,,,,,,,0.0012641772627830505,0.48988282307982445,,1103.554211243987,test,3,,,,,,1101.0705979540944,1101.5845416635275,1101.567627955228,1101.567627955228,1101.9181335121393,1102.4188157767057,1102.568313241005,1103.573341101408,right,1,0.35,0.5949032343924046,,,,,,,,,,,s10,001,2024-07-18_15h53.03.879,simplestop_skeleton,2022.2.2,60.00763811535808,
None,None,,,,,,,,,2,0,2,0,7,1,29,2,,,,,,,,,1103.5547055006027,go,circleblack.png,left,0.35,,,,,,,,,,,,,,,,,,0.0018091946840286255,0.4899037629365921,,1106.0568978115916,test,3,,,,,,1103.573341101408,1104.0869003869593,1104.0705024152994,1104.0705024152994,1104.4207151569426,1104.9198135845363,1105.070947445929,1106.0760673210025,left,1,0.35,0.5131217464804649,,,,,,,,,,,s10,001,2024-07-18_15h53.03.879,simplestop_skeleton,2022.2.2,60.00763811535808,
None,None,,,,,,,,,2,0,2,0,7,2,30,2,,,,,,,,,1106.0573296248913,go,squareblack.png,right,0.35,,,,,,,,,,,,,,,,,,0.0016769729554653168,0.48991696164011955,,1108.5597677007318,test,3,,,,,,1106.0760673210025,1106.5897952653468,1106.573037467897,1106.573037467897,1106.9233941324055,1107.4226430878043,1107.573788639158,1108.5789601020515,right,1,0.35,0.5236214734613895,,,,,,,,,,,s10,001,2024-07-18_15h53.03.879,simplestop_skeleton,2022.2.2,60.00763811535808,
$currentCorrectResponse,$currentGoStim,,,,,,,,,2,0,2,0,7,3,31,0,,,,,,,,,1108.5602051503956,go,circleblack.png,left,0.35,,,,,,,,,,,,,,,,,,0.0018060803413391113,0.48979052156209946,,1111.0626264698803,test,3,,,,,,1108.5789601020515,1109.0925965458155,1109.0760487094522,1109.0760487094522,1109.4264648966491,1109.9256032966077,1110.0762896984816,1111.0812667012215,left,1,0.35,0.5015307478606701,,,,,,,,,,,s10,001,2024-07-18_15h53.03.879,simplestop_skeleton,2022.2.2,60.00763811535808,
$currentCorrectResponse,$currentGoStim,,,,,,,,,2,0,2,0,8,0,32,0,,,,,,,,,1111.063057012856,go,circleblack.png,left,0.35,,,,,,,,,,,,,,,,,,0.0012435466051101685,0.4899401180446148,,1113.5653648786247,test,3,,,,,,1111.0812667012215,1111.5953570641577,1111.5787408985198,1111.5787408985198,1111.929191891104,1112.4285066910088,1112.579091373831,1113.5844008028507,left,1,0.35,0.5566614344716072,,,,,,,,,,,s10,001,2024-07-18_15h53.03.879,simplestop_skeleton,2022.2.2,60.00763811535808,
None,None,,,,,,,,,2,0,2,0,8,1,33,2,,,,,,,,,1113.5658010430634,go,squareblack.png,right,0.35,,,,,,,,,,,,,,,,,,0.0017130114138126373,0.48977823182940483,,1116.0679771527648,test,3,,,,,,1113.5844008028507,1114.097976617515,1114.0813732556999,1114.0813732556999,1114.4316972717643,1114.932327657938,1115.0816824771464,1116.0866306349635,right,1,0.35,0.5960578955709934,,,,,,,,,,,s10,001,2024-07-18_15h53.03.879,simplestop_skeleton,2022.2.2,60.00763811535808,
None,None,,,,,,,,,2,0,2,0,8,2,34,2,,,,,,,,,1116.0684004426003,stop,squareblack.png,right,0.35,,,,,,,,,,,,,,,,,,0.0011868774890899658,0.48971037194132805,0.8401797823607922,1118.5706506334245,test,3,,,,,,1116.0866306349635,1116.6008412875235,1116.58428446576,1116.58428446576,1116.9344252124429,1117.4351023435593,1117.5852908231318,1118.5900637172163,None,0,0.4,,,,,,,,,,,,s10,001,2024-07-18_15h53.03.879,simplestop_skeleton,2022.2.2,60.00763811535808,
$currentCorrectResponse,$currentGoStim,,,,,,,,,2,0,2,0,8,3,35,0,,,,,,,,,1118.5710743144155,stop,circleblack.png,left,0.4,,,,,,,,,,,,,,,,,,0.0017385371029376984,0.4899045526981354,0.8902157321572304,1121.0736577436328,test,3,,,,,,1118.5900637172163,1119.1034786738455,1119.0866828262806,1119.0866828262806,1119.4873288683593,1119.9871053546667,1120.0872524306178,1121.0936538353562,left,1,0.35,0.4560205489397049,,,,,,,,,,,s10,001,2024-07-18_15h53.03.879,simplestop_skeleton,2022.2.2,60.00763811535808,
None,None,,,,,,,,,2,0,2,0,9,0,36,2,,,,,,,,,1121.0740853846073,stop,squareblack.png,right,0.35,,,,,,,,,,,,,,,,,,0.0016568787395954132,0.4892168194055557,0.8400464802980423,1123.5763402804732,test,3,,,,,,1121.0936538353562,1121.60558918491,1121.5891270078719,1121.5891270078719,1121.9400944709778,1122.4406039565802,1122.5913789346814,1123.5962036885321,None,0,0.4,,,,,,,,,,,,s10,001,2024-07-18_15h53.03.879,simplestop_skeleton,2022.2.2,60.00763811535808,
None,None,,,,,,,,,2,0,2,0,9,1,37,1,,,,,,,,,1123.5767713300884,go,circleblack.png,left,0.4,,,,,,,,,,,,,,,,,,0.0018371418118476868,0.4896851181983948,,1126.0791226923466,test,3,,,,,,1123.5962036885321,1124.1093686260283,1124.092455022037,1124.092455022037,1124.492740187794,1124.993592388928,1125.0943017415702,1126.0980905741453,left,1,0.4,0.624475322663784,,,,,,,,,,,s10,001,2024-07-18_15h53.03.879,simplestop_skeleton,2022.2.2,60.00763811535808,
None,None,,,,,,,,,2,0,2,0,9,2,38,2,,,,,,,,,1126.079551819712,go,squareblack.png,right,0.4,,,,,,,,,,,,,,,,,,0.0017156824469566345,0.4898226112127304,,1128.5821115896106,test,3,,,,,,1126.0980905741453,1126.6119465716183,1126.595673829317,1126.595673829317,1126.9956931099296,1127.4948242753744,1127.59592403844,1128.6009910926223,right,1,0.4,0.5509030893445015,,,,,,,,,,,s10,001,2024-07-18_15h53.03.879,simplestop_skeleton,2022.2.2,60.00763811535808,
None,None,,,,,,,,,2,0,2,0,9,3,39,1,,,,,,,,,1128.5825525447726,go,squareblack.png,right,0.4,,,,,,,,,,,,,,,,,,0.0013899803161621094,0.4901645705103874,,1131.0847646184266,test,3,,,,,,1128.6009910926223,1129.1150149814785,1129.0984847024083,1129.0984847024083,1129.4986117780209,1129.9990205690265,1130.0992309488356,1131.1037305407226,right,1,0.4,0.6429132930934429,,,,,,,,,,,s10,001,2024-07-18_15h53.03.879,simplestop_skeleton,2022.2.2,60.00763811535808,
None,None,,,,,,,,,2,0,2,0,10,0,40,1,,,,,,,,,1131.0851937234402,go,squareblack.png,right,0.4,,,,,,,,,,,,,,,,,,0.001387517899274826,0.48983611911535263,,1133.5874107070267,test,3,,,,,,1131.1037305407226,1131.6177037730813,1131.6009249575436,1131.6009249575436,1132.0012656114995,1132.5004245191813,1132.6017423644662,1133.6068098507822,right,1,0.4,0.5684975683689117,,,,,,,,,,,s10,001,2024-07-18_15h53.03.879,simplestop_skeleton,2022.2.2,60.00763811535808,
None,None,,,,,,,,,2,0,2,0,10,1,41,1,,,,,,,,,1133.5878399796784,go,circleblack.png,left,0.4,,,,,,,,,,,,,,,,,,0.0019370317459106445,0.49009257927536964,,1136.0899842903018,test,3,,,,,,1133.6068098507822,1134.1201062612236,1134.1035818643868,1134.1035818643868,1134.5040658190846,1135.0034436397254,1135.1037920750678,1136.1078995987773,left,1,0.4,0.6072623580694199,,,,,,,,,,,s10,001,2024-07-18_15h53.03.879,simplestop_skeleton,2022.2.2,60.00763811535808,
None,None,,,,,,,,,2,0,2,0,10,2,42,3,,,,,,,,,1136.090412709862,stop,circleblack.png,left,0.4,,,,,,,,,,,,,,,,,,0.0012610815465450287,0.4902985766530037,0.8902559913694859,1138.5928917527199,test,3,,,,,,1136.1078995987773,1136.6229588091373,1136.606612548232,1136.606612548232,1137.0068530254066,1137.5076104961336,1137.607196599245,1138.6115963868797,None,0,0.45,,,,,,,,,,,,s10,001,2024-07-18_15h53.03.879,simplestop_skeleton,2022.2.2,60.00763811535808,
$currentCorrectResponse,$currentGoStim,,,,,,,,,2,0,2,0,10,3,43,0,,,,,,,,,1138.5933218114078,go,circleblack.png,left,0.45,,,,,,,,,,,,,,,,,,0.0012486167252063751,0.48864761739969254,,1141.0956226848066,test,3,,,,,,1138.6115963868797,1139.1264768913388,1139.1077173464,1139.1077173464,1139.559629201889,1140.0602582730353,1140.110150191933,1141.1148864142597,left,1,0.45,0.54516426846385,,,,,,,,,,,s10,001,2024-07-18_15h53.03.879,simplestop_skeleton,2022.2.2,60.00763811535808,
None,None,,,,,,,,,2,0,2,0,11,0,44,3,,,,,,,,,1141.0960524752736,go,squareblack.png,right,0.45,,,,,,,,,,,,,,,,,,0.0016673803329467773,0.4896579422056675,,1143.598922625184,test,3,,,,,,1141.1148864142597,1141.6285096406937,1141.6117212809622,1141.6117212809622,1142.0623754225671,1142.5615524835885,1142.6134799569845,1143.6177331022918,right,1,0.45,0.5904467329382896,,,,,,,,,,,s10,001,2024-07-18_15h53.03.879,simplestop_skeleton,2022.2.2,60.00763811535808,
None,None,,,,,,,,,2,0,2,0,11,1,45,3,,,,,,,,,1143.599353812635,stop,squareblack.png,right,0.45,,,,,,,,,,,,,,,,,,0.0013457722961902618,0.48941661790013313,0.9399243406951427,1146.1012003608048,test,3,,,,,,1143.6177331022918,1144.131568375975,1144.1149717234075,1144.1149717234075,1144.5650396160781,1145.064337324351,1145.1166366785765,1146.1205886304379,right,1,0.4,0.6053491868078709,,,,,,,,,,,s10,001,2024-07-18_15h53.03.879,simplestop_skeleton,2022.2.2,60.00763811535808,
$currentCorrectResponse,$currentGoStim,,,,,,,,,2,0,2,0,11,2,46,0,,,,,,,,,1146.1016272716224,stop,circleblack.png,left,0.4,,,,,,,,,,,,,,,,,,0.0019865520298480988,0.48977258801460266,0.8905576840043068,1148.6043034642935,test,3,,,,,,1146.1205886304379,1146.6339767090976,1146.6174864694476,1146.6174864694476,1147.0177864171565,1147.5182807855308,1147.6186100132763,1148.6228414848447,None,0,0.45,,,,,,,,,,,,s10,001,2024-07-18_15h53.03.879,simplestop_skeleton,2022.2.2,60.00763811535808,
None,None,,,,,,,,,2,0,2,0,11,3,47,1,,,,,,,,,1148.6047420203686,go,circleblack.png,left,0.45,,,,,,,,,,,,,,,,,,0.00132790207862854,0.4897989593446255,,1151.1069062165916,test,3,,,,,,1148.6228414848447,1149.1368012279272,1149.120307829231,1149.120307829231,1149.5706346780062,1150.0697902739048,1150.1197531484067,1151.1224343292415,left,1,0.45,0.6179332248866558,,,,,,,,,,,s10,001,2024-07-18_15h53.03.879,simplestop_skeleton,2022.2.2,60.00763811535808,
