corrGoResp,shape,practiceBlocks.thisRepN,practiceBlocks.thisTrialN,practiceBlocks.thisN,practiceBlocks.thisIndex,practiceTrials.thisRepN,practiceTrials.thisTrialN,practiceTrials.thisN,practiceTrials.thisIndex,stopBlocks.thisRepN,stopBlocks.thisTrialN,stopBlocks.thisN,stopBlocks.thisIndex,testTrials.thisRepN,testTrials.thisTrialN,testTrials.thisN,testTrials.thisIndex,stopPracTrialList,Test Block: 1,welcome.started,start_exp.started,start_exp.keys,start_exp.rt,instrStopText.started,start_prac.started,StartTrialTimeStamp,trialType,goStim,correctResponse,ssd,fixation.started,rules.started,goStim.started,goResp.started,fixation.stopped,stopSignal.started,stopSignal.stopped,goStim.stopped,goResp.stopped,rules.stopped,goResp.keys,goResp.corr,goResp.rt,text.started,rules_2.started,fixationOnset,goStimOnset,stopSignalOnset,EndTrialTimeStamp,Phase,Block,text.stopped,rules_2.stopped,text_5.started,key_resp_3.started,key_resp_3.keys,key_resp_3.rt,key_resp.started,testText.started,test_fixation.started,goStim_test.started,goResp_test.started,test_fixation.stopped,stopSignal_test.started,stopSignal_test.stopped,goStim_test.stopped,goResp_test.stopped,goResp_test.keys,goResp_test.corr,goResp_test.rt,EndingSSD,text_6.started,key_resp_4.started,key_resp_4.keys,key_resp_4.rt,Test Block: 2,Test Block: 3,ending_text.started,end_resp.started,end_resp.keys,end_resp.rt,participant,session,date,expName,psychopyVersion,frameRate,
,,,,,,,,,,,,,,,,,,"[{'fileName': 'circleblack.png', 'correct_response': 'left', 'condition': 'stop'}, {'fileName': 'circleblack.png', 'correct_response': 'left', 'condition': 'go'}, {'fileName': 'circleblack.png', 'correct_response': 'left', 'condition': 'go'}, {'fileName': 'circleblack.png', 'correct_response': 'left', 'condition': 'stop'}, {'fileName': 'squareblack.png', 'correct_response': 'right', 'condition': 'go'}, {'fileName': 'squareblack.png', 'correct_response': 'right', 'condition': 'go'}, {'fileName': 'squareblack.png', 'correct_response': 'right', 'condition': 'go'}, {'fileName': 'circleblack.png', 'correct_response': 'left', 'condition': 'go'}, {'fileName': 'circleblack.png', 'correct_response': 'left', 'condition': 'go'}, {'fileName': 'squareblack.png', 'correct_response': 'right', 'condition': 'go'}, {'fileName': 'squareblack.png', 'correct_response': 'right', 'condition': 'stop'}, {'fileName': 'squareblack.png', 'correct_response': 'right', 'condition': 'stop'}, {'fileName': 'squareblack.png', 'correct_response': 'right', 'condition': 'go'}, {'fileName': 'squareblack.png', 'correct_response': 'right', 'condition': 'go'}, {'fileName': 'circleblack.png', 'correct_response': 'left', 'condition': 'go'}, {'fileName': 'circleblack.png', 'correct_response': 'left', 'condition': 'go'}, {'fileName': 'circleblack.png', 'correct_response': 'left', 'condition': 'go'}, {'fileName': 'squareblack.png', 'correct_response': 'right', 'condition': 'go'}, {'fileName': 'circleblack.png', 'correct_response': 'left', 'condition': 'stop'}, {'fileName': 'squareblack.png', 'correct_response': 'right', 'condition': 'stop'}, {'fileName': 'squareblack.png', 'correct_response': 'right', 'condition': 'stop'}, {'fileName': 'circleblack.png', 'correct_response': 'left', 'condition': 'stop'}, {'fileName': 'circleblack.png', 'correct_response': 'left', 'condition': 'go'}, {'fileName': 'squareblack.png', 'correct_response': 'right', 'condition': 'go'}]","[{'fileName': 'squareblack.png', 'correct_response': 'right', 'condition': 'go'}, {'fileName': 'squareblack.png', 'correct_response': 'right', 'condition': 'go'}, {'fileName': 'squareblack.png', 'correct_response': 'right', 'condition': 'go'}, {'fileName': 'squareblack.png', 'correct_response': 'right', 'condition': 'stop'}, {'fileName': 'circleblack.png', 'correct_response': 'left', 'condition': 'go'}, {'fileName': 'circleblack.png', 'correct_response': 'left', 'condition': 'go'}, {'fileName': 'squareblack.png', 'correct_response': 'right', 'condition': 'go'}, {'fileName': 'circleblack.png', 'correct_response': 'left', 'condition': 'stop'}, {'fileName': 'circleblack.png', 'correct_response': 'left', 'condition': 'go'}, {'fileName': 'circleblack.png', 'correct_response': 'left', 'condition': 'go'}, {'fileName': 'squareblack.png', 'correct_response': 'right', 'condition': 'stop'}, {'fileName': 'circleblack.png', 'correct_response': 'left', 'condition': 'stop'}, {'fileName': 'circleblack.png', 'correct_response': 'left', 'condition': 'go'}, {'fileName': 'circleblack.png', 'correct_response': 'left', 'condition': 'stop'}, {'fileName': 'circleblack.png', 'correct_response': 'left', 'condition': 'stop'}, {'fileName': 'squareblack.png', 'correct_response': 'right', 'condition': 'go'}, {'fileName': 'squareblack.png', 'correct_response': 'right', 'condition': 'stop'}, {'fileName': 'squareblack.png', 'correct_response': 'right', 'condition': 'go'}, {'fileName': 'squareblack.png', 'correct_response': 'right', 'condition': 'go'}, {'fileName': 'circleblack.png', 'correct_response': 'left', 'condition': 'go'}, {'fileName': 'circleblack.png', 'correct_response': 'left', 'condition': 'go'}, {'fileName': 'circleblack.png', 'correct_response': 'left', 'condition': 'go'}, {'fileName': 'squareblack.png', 'correct_response': 'right', 'condition': 'go'}, {'fileName': 'squareblack.png', 'correct_response': 'right', 'condition': 'stop'}, {'fileName': 'squareblack.png', 'correct_response': 'right', 'condition': 'stop'}, {'fileName': 'squareblack.png', 'correct_response': 'right', 'condition': 'go'}, {'fileName': 'squareblack.png', 'correct_response': 'right', 'condition': 'go'}, {'fileName': 'circleblack.png', 'correct_response': 'left', 'condition': 'stop'}, {'fileName': 'circleblack.png', 'correct_response': 'left', 'condition': 'go'}, {'fileName': 'circleblack.png', 'correct_response': 'left', 'condition': 'stop'}, {'fileName': 'circleblack.png', 'correct_response': 'left', 'condition': 'go'}, {'fileName': 'squareblack.png', 'correct_response': 'right', 'condition': 'go'}, {'fileName': 'squareblack.png', 'correct_response': 'right', 'condition': 'go'}, {'fileName': 'circleblack.png', 'correct_response': 'left', 'condition': 'go'}, {'fileName': 'squareblack.png', 'correct_response': 'right', 'condition': 'stop'}, {'fileName': 'circleblack.png', 'correct_response': 'left', 'condition': 'go'}, {'fileName': 'circleblack.png', 'correct_response': 'left', 'condition': 'stop'}, {'fileName': 'circleblack.png', 'correct_response': 'left', 'condition': 'stop'}, {'fileName': 'circleblack.png', 'correct_response': 'left', 'condition': 'go'}, {'fileName': 'circleblack.png', 'correct_response': 'left', 'condition': 'go'}, {'fileName': 'circleblack.png', 'correct_response': 'left', 'condition': 'go'}, {'fileName': 'circleblack.png', 'correct_response': 'left', 'condition': 'go'}, {'fileName': 'squareblack.png', 'correct_response': 'right', 'condition': 'go'}, {'fileName': 'squareblack.png', 'correct_response': 'right', 'condition': 'go'}, {'fileName': 'squareblack.png', 'correct_response': 'right', 'condition': 'go'}, {'fileName': 'squareblack.png', 'correct_response': 'right', 'condition': 'go'}, {'fileName': 'squareblack.png', 'correct_response': 'right', 'condition': 'stop'}, {'fileName': 'squareblack.png', 'correct_response': 'right', 'condition': 'stop'}]",2894.8809635713696,2894.8809635713696,return,4.046271443367004,,,,,,,,,,,,,,,,,,,,,,,,,,,,,,,,,,,,,,,,,,,,,,,,,,,,,,,,,,,s041,001,2024-09-27_10h10.06.182,simplestop_skeleton,2022.2.2,59.9369120053452,
$currentCorrectResponse,$currentGoStim,0,0,0,0,0,0,0,0,,,,,,,,,,,,,,,2898.9706291109324,2898.9706291109324,2959.073925331235,stop,circleblack.png,left,0.35,2959.0975898355246,2959.0975898355246,2959.5892659947276,2959.5892659947276,2959.60575376451,2959.939769908786,2960.440178580582,2960.590286038816,2961.591399244964,2961.6093040555716,left,1,0.9717697948217392,2961.6093040555716,2961.6093040555716,0.0035751163959503174,0.48841243237257004,0.8387751951813698,2962.109382286668,practice,1,,,,,,,,,,,,,,,,,,,,,,,,,,,,,,,s041,001,2024-09-27_10h10.06.182,simplestop_skeleton,2022.2.2,59.9369120053452,
None,None,0,0,0,0,0,1,1,3,,,,,,,,,,,,,,,,,2962.1099443510175,go,circleblack.png,left,0.3,2962.129056073725,2962.129056073725,2962.6258848831058,2962.6258848831058,2962.6426141634583,2962.9266194701195,2963.4422808736563,2963.6256614401937,2964.6280261427164,2964.644741140306,right,0,0.10509387403726578,2964.644741140306,2964.644741140306,0.0013036653399467468,0.4901989623904228,0.7904592752456665,2965.129394084215,practice,1,2965.1491393893957,2965.1491393893957,,,,,,,,,,,,,,,,,,,,,,,,,,,,,s041,001,2024-09-27_10h10.06.182,simplestop_skeleton,2022.2.2,59.9369120053452,
None,None,0,0,0,0,0,2,2,1,,,,,,,,,,,,,,,,,2965.1298293471336,go,circleblack.png,left,0.3,2965.1491393893957,2965.1491393893957,2965.6457037106156,2965.6457037106156,2965.6622853949666,2965.946410521865,2966.4617412537336,2966.6453289836645,2967.647895872593,2967.6645555645227,right,0,0.08943071216344833,2967.6645555645227,2967.6645555645227,0.0012961849570274353,0.49008332192897797,0.7906613126397133,2968.149328842759,practice,1,2968.1689267754555,2968.1689267754555,,,,,,,,,,,,,,,,,,,,,,,,,,,,,s041,001,2024-09-27_10h10.06.182,simplestop_skeleton,2022.2.2,59.9369120053452,
None,None,0,0,0,0,0,3,3,3,,,,,,,,,,,,,,,,,2968.1497412472963,stop,circleblack.png,left,0.3,2968.1689267754555,2968.1689267754555,2968.6658516153693,2968.6658516153693,2968.682730011642,2968.9661184102297,2969.465424001217,2969.6657539457083,2970.6673795729876,2970.6841221004725,left,1,0.32973382622003555,2970.6841221004725,2970.6841221004725,0.0012697204947471619,0.49021419882774353,0.7905729189515114,2971.1695007309318,practice,1,,,,,,,,,,,,,,,,,,,,,,,,,,,,,,,s041,001,2024-09-27_10h10.06.182,simplestop_skeleton,2022.2.2,59.9369120053452,
None,None,0,0,0,0,1,0,4,3,,,,,,,,,,,,,,,,,2971.169924713671,go,squareblack.png,right,0.25,2971.194713100791,2971.194713100791,2971.6858026757836,2971.6858026757836,2971.702656134963,2971.9363509342074,2972.4371102675796,2972.6856161281466,2973.686370834708,2973.703129373491,right,1,0.8337924256920815,2973.703129373491,2973.703129373491,0.007707759737968445,0.4898790791630745,0.7400900274515152,2974.1891241446137,practice,1,,,,,,,,,,,,,,,,,,,,,,,,,,,,,,,s041,001,2024-09-27_10h10.06.182,simplestop_skeleton,2022.2.2,59.9369120053452,
$currentCorrectResponse,$currentGoStim,0,0,0,0,1,1,5,0,,,,,,,,,,,,,,,,,2974.189562872052,go,squareblack.png,right,0.25,2974.208855457604,2974.208855457604,2974.7059385180473,2974.7059385180473,2974.722240895033,2974.9560246393085,2975.4719709828496,2975.7054955884814,2976.707895591855,2976.7246884703636,left,0,0.20285721868276596,2976.7246884703636,2976.7246884703636,0.0012566372752189636,0.49026304483413696,0.740399919450283,2977.2093009725213,practice,1,2977.228946313262,2977.228946313262,,,,,,,,,,,,,,,,,,,,,,,,,,,,,s041,001,2024-09-27_10h10.06.182,simplestop_skeleton,2022.2.2,59.9369120053452,
None,None,0,0,0,0,1,2,6,1,,,,,,,,,,,,,,,,,2977.209720350802,go,squareblack.png,right,0.25,2977.228946313262,2977.228946313262,2977.725574493408,2977.725574493408,2977.7422762438655,2977.975971713662,2978.4916942343116,2978.7257482782006,2979.727782227099,2979.744653686881,right,1,0.2623589485883713,2979.744653686881,2979.744653686881,0.0011897683143615723,0.490180067718029,0.7404197305440903,2980.2293002977967,practice,1,2980.256173506379,2980.256173506379,,,,,,,,,,,,,,,,,,,,,,,,,,,,,s041,001,2024-09-27_10h10.06.182,simplestop_skeleton,2022.2.2,59.9369120053452,
None,None,0,0,0,0,1,3,7,2,,,,,,,,,,,,,,,,,2980.2297164201736,go,circleblack.png,left,0.25,2980.256173506379,2980.256173506379,2980.745788127184,2980.745788127184,2980.762212239206,2980.995940454304,2981.495063945651,2981.7455387488008,2982.7478909119964,2982.764579720795,left,1,0.29196440428495407,2982.764579720795,2982.764579720795,0.008771069347858429,0.4895087704062462,0.7398800700902939,2983.249337658286,practice,1,2983.2690695375204,2983.2690695375204,,,,,,,,,,,,,,,,,,,,,,,,,,,,,s041,001,2024-09-27_10h10.06.182,simplestop_skeleton,2022.2.2,59.9369120053452,
None,None,0,0,0,0,2,0,8,3,,,,,,,,,,,,,,,,,2983.2497565075755,go,circleblack.png,left,0.25,2983.2690695375204,2983.2690695375204,2983.765727877617,2983.765727877617,2983.7828348353505,2984.016205124557,2984.517071299255,2984.7654499411583,2985.767461195588,2985.7844530195,left,1,0.5010377690196037,2985.7844530195,2985.7844530195,0.001334361732006073,0.4900965020060539,0.7405835390090942,2986.269299469888,practice,1,,,,,,,,,,,,,,,,,,,,,,,,,,,,,,,s041,001,2024-09-27_10h10.06.182,simplestop_skeleton,2022.2.2,59.9369120053452,
None,None,0,0,0,0,2,1,9,1,,,,,,,,,,,,,,,,,2986.2698082998395,go,squareblack.png,right,0.25,2986.2893344834447,2986.2893344834447,2986.786172568798,2986.786172568798,2986.80281868577,2987.036021694541,2987.535171702504,2987.78548578918,2988.7879704609513,2988.80457790941,right,1,0.30857905745506287,2988.80457790941,2988.80457790941,0.0018435940146446228,0.49019190669059753,0.7403120473027229,2989.289431735873,practice,1,2989.3088402301073,2989.3088402301073,,,,,,,,,,,,,,,,,,,,,,,,,,,,,s041,001,2024-09-27_10h10.06.182,simplestop_skeleton,2022.2.2,59.9369120053452,
None,None,0,0,0,0,2,2,10,2,,,,,,,,,,,,,,,,,2989.289847932756,stop,squareblack.png,right,0.25,2989.3088402301073,2989.3088402301073,2989.8057449758053,2989.8057449758053,2989.822358466685,2990.05605802685,2990.557045288384,2990.805372618139,2991.8077107593417,2991.8239743858576,right,1,0.5190227031707764,2991.8239743858576,2991.8239743858576,0.0011991262435913086,0.49028684943914413,0.7402017191052437,2992.309424109757,practice,1,,,,,,,,,,,,,,,,,,,,,,,,,,,,,,,s041,001,2024-09-27_10h10.06.182,simplestop_skeleton,2022.2.2,59.9369120053452,
None,None,0,0,0,0,2,3,11,2,,,,,,,,,,,,,,,,,2992.309852384031,stop,squareblack.png,right,0.2,2992.3288545906544,2992.3288545906544,2992.8258452415466,2992.8258452415466,2992.842380285263,2993.025960981846,2993.526481002569,2993.826995395124,2994.8281892687082,2994.8446764945984,None,0,,2994.8446764945984,2994.8446764945984,0.0011942088603973389,0.4904491975903511,0.6903926283121109,2995.329595707357,practice,1,,,,,,,,,,,,,,,,,,,,,,,,,,,,,,,s041,001,2024-09-27_10h10.06.182,simplestop_skeleton,2022.2.2,59.9369120053452,
None,None,0,0,0,0,3,0,12,3,,,,,,,,,,,,,,,,,2995.3300218358636,go,squareblack.png,right,0.25,2995.3495156541467,2995.3495156541467,2995.8457721993327,2995.8457721993327,2995.862584769726,2996.096161529422,2996.5966113731265,2996.8453922718763,2997.847261212766,2997.8640696257353,right,1,0.47780703753232956,2997.8640696257353,2997.8640696257353,0.0013370364904403687,0.48947860300540924,0.7398810386657715,2998.349308297038,practice,1,,,,,,,,,,,,,,,,,,,,,,,,,,,,,,,s041,001,2024-09-27_10h10.06.182,simplestop_skeleton,2022.2.2,59.9369120053452,
None,None,0,0,0,0,3,1,13,2,,,,,,,,,,,,,,,,,2998.3498448729515,go,squareblack.png,right,0.25,2998.3688828870654,2998.3688828870654,2998.8660406693816,2998.8660406693816,2998.882432103157,2999.1161169931293,2999.617001645267,2999.865447074175,3000.8685142174363,3000.8844793364406,right,1,0.558812215924263,3000.8844793364406,3000.8844793364406,0.0011876672506332397,0.49029482901096344,0.7407297268509865,3001.369736932218,practice,1,3001.3949651271105,3001.3949651271105,,,,,,,,,,,,,,,,,,,,,,,,,,,,,s041,001,2024-09-27_10h10.06.182,simplestop_skeleton,2022.2.2,59.9369120053452,
None,None,0,0,0,0,3,2,14,2,,,,,,,,,,,,,,,,,3001.3701472207904,go,circleblack.png,left,0.25,3001.3949651271105,3001.3949651271105,3001.8857401311398,3001.8857401311398,3001.902550883591,3002.1362474113703,3002.6368976011872,3002.8873355165124,3003.886479757726,3003.903097897768,left,1,0.7468336820602417,3003.903097897768,3003.903097897768,0.007923945784568787,0.48989535868167877,0.7400710061192513,3004.3910699412227,practice,1,,,,,,,,,,,,,,,,,,,,,,,,,,,,,,,s041,001,2024-09-27_10h10.06.182,simplestop_skeleton,2022.2.2,59.9369120053452,
None,None,0,0,0,0,3,3,15,1,,,,,,,,,,,,,,,,,3004.3914960622787,go,circleblack.png,left,0.25,3004.410653039813,3004.410653039813,3004.9054519608617,3004.9054519608617,3004.9222477152944,3005.155847892165,3005.6568242534995,3005.9053084105253,3006.907196469605,3006.9242120608687,left,1,0.6081737130880356,3006.9242120608687,3006.9242120608687,0.0019256621599197388,0.4880432188510895,0.7383285164833069,3007.4091588035226,practice,1,,,,,,,,,,,,,,,,,,,,,,,,,,,,,,,s041,001,2024-09-27_10h10.06.182,simplestop_skeleton,2022.2.2,59.9369120053452,
None,None,0,0,0,0,4,0,16,2,,,,,,,,,,,,,,,,,3007.4096034020185,go,circleblack.png,left,0.25,3007.4285985827446,3007.4285985827446,3007.9256510660052,3007.9256510660052,3007.9423267692327,3008.175905652344,3008.676431491971,3008.925562597811,3009.926336787641,3009.9430625513196,left,1,0.697970561683178,3009.9430625513196,3009.9430625513196,0.0013053938746452332,0.4903091564774513,0.7405156716704369,3010.429288290441,practice,1,,,,,,,,,,,,,,,,,,,,,,,,,,,,,,,s041,001,2024-09-27_10h10.06.182,simplestop_skeleton,2022.2.2,59.9369120053452,
$currentCorrectResponse,$currentGoStim,0,0,0,0,4,1,17,0,,,,,,,,,,,,,,,,,3010.4297135546803,go,squareblack.png,right,0.25,3010.4520629271865,3010.4520629271865,3010.9457860663533,3010.9457860663533,3010.9626914933324,3011.1960459277034,3011.6968201473355,3011.9453249573708,3012.947165839374,3012.964358046651,right,1,0.514428623020649,3012.964358046651,3012.964358046651,0.004488684237003326,0.48940233141183853,0.7397731393575668,3013.449267938733,practice,1,,,,,,,,,,,,,,,,,,,,,,,,,,,,,,,s041,001,2024-09-27_10h10.06.182,simplestop_skeleton,2022.2.2,59.9369120053452,
$currentCorrectResponse,$currentGoStim,0,0,0,0,4,2,18,0,,,,,,,,,,,,,,,,,3013.4496794864535,stop,circleblack.png,left,0.25,3013.469331048429,3013.469331048429,3013.965775422752,3013.965775422752,3013.982317008078,3014.215752840042,3014.7165414616466,3014.966689862311,3015.967781446874,3015.98475420475,None,0,,3015.98475420475,3015.98475420475,0.0018601641058921814,0.490082211792469,0.7404037863016129,3016.469110123813,practice,1,,,,,,,,,,,,,,,,,,,,,,,,,,,,,,,s041,001,2024-09-27_10h10.06.182,simplestop_skeleton,2022.2.2,59.9369120053452,
None,None,0,0,0,0,4,3,19,3,,,,,,,,,,,,,,,,,3016.469534866512,stop,squareblack.png,right,0.3,3016.489307694137,3016.489307694137,3016.985490337014,3016.985490337014,3017.0024161934853,3017.2859346345067,3017.785151556134,3017.9852758049965,3018.98709423095,3019.003841921687,None,0,,3019.003841921687,3019.003841921687,0.0017765313386917114,0.4899883195757866,0.790440708398819,3019.4892115294933,practice,1,,,,,,,,,,,,,,,,,,,,,,,,,,,,,,,s041,001,2024-09-27_10h10.06.182,simplestop_skeleton,2022.2.2,59.9369120053452,
None,None,0,0,0,0,5,0,20,1,,,,,,,,,,,,,,,,,3019.4896985143423,stop,squareblack.png,right,0.35,3019.5087064132094,3019.5087064132094,3020.0057859048247,3020.0057859048247,3020.022297114134,3020.3559876829386,3020.8564270064235,3021.006666056812,3022.00778876245,3022.0244082435966,None,0,,3022.0244082435966,3022.0244082435966,0.001189395785331726,0.49007444828748703,0.840487964451313,3022.509342238307,practice,1,,,,,,,,,,,,,,,,,,,,,,,,,,,,,,,s041,001,2024-09-27_10h10.06.182,simplestop_skeleton,2022.2.2,59.9369120053452,
None,None,0,0,0,0,5,1,21,1,,,,,,,,,,,,,,,,,3022.5097659677267,stop,circleblack.png,left,0.4,3022.5294602438807,3022.5294602438807,3023.025636009872,3023.025636009872,3023.0422969534993,3023.4260492771864,3023.941800713539,3024.0254221335053,3025.02701856941,3025.0441614612937,left,1,0.48931851238012314,3025.0441614612937,3025.0441614612937,0.0019794106483459473,0.49000590294599533,0.8905171155929565,3025.5291648581624,practice,1,,,,,,,,,,,,,,,,,,,,,,,,,,,,,,,s041,001,2024-09-27_10h10.06.182,simplestop_skeleton,2022.2.2,59.9369120053452,
$currentCorrectResponse,$currentGoStim,0,0,0,0,5,2,22,0,,,,,,,,,,,,,,,,,3025.529586419463,go,circleblack.png,left,0.35,3025.5489308461547,3025.5489308461547,3026.0456199273467,3026.0456199273467,3026.062396861613,3026.3959997221828,3026.896975442767,3027.0454354807734,3028.046318516135,3028.0631414726377,left,1,0.706734411418438,3028.0631414726377,3028.0631414726377,0.0013085529208183289,0.4903181716799736,0.8404809683561325,3028.5491936206818,practice,1,,,,,,,,,,,,,,,,,,,,,,,,,,,,,,,s041,001,2024-09-27_10h10.06.182,simplestop_skeleton,2022.2.2,59.9369120053452,
$currentCorrectResponse,$currentGoStim,0,0,0,0,5,3,23,0,,,,,,,,,,,,,,,,,3028.549657896161,go,squareblack.png,right,0.35,3028.5692472457886,3028.5692472457886,3029.0659859254956,3029.0659859254956,3029.0823779329658,3029.41598007828,3029.9154001772404,3030.065403394401,3031.066672988236,3031.083457671106,right,1,0.5588762611150742,3031.083457671106,3031.083457671106,0.00177108496427536,0.49012241512537,0.8406751379370689,3031.569332920015,practice,1,,,,,,,,,,,,,,,,,,,,,,,,,,,,,,,s041,001,2024-09-27_10h10.06.182,simplestop_skeleton,2022.2.2,59.9369120053452,
,,0,0,0,0,,,,,,,,,,,,,"[{'fileName': 'circleblack.png', 'correct_response': 'left', 'condition': 'go'}, {'fileName': 'squareblack.png', 'correct_response': 'right', 'condition': 'go'}, {'fileName': 'circleblack.png', 'correct_response': 'left', 'condition': 'go'}, {'fileName': 'squareblack.png', 'correct_response': 'right', 'condition': 'go'}, {'fileName': 'squareblack.png', 'correct_response': 'right', 'condition': 'stop'}, {'fileName': 'circleblack.png', 'correct_response': 'left', 'condition': 'go'}, {'fileName': 'circleblack.png', 'correct_response': 'left', 'condition': 'go'}, {'fileName': 'squareblack.png', 'correct_response': 'right', 'condition': 'go'}, {'fileName': 'squareblack.png', 'correct_response': 'right', 'condition': 'go'}, {'fileName': 'circleblack.png', 'correct_response': 'left', 'condition': 'stop'}, {'fileName': 'circleblack.png', 'correct_response': 'left', 'condition': 'stop'}, {'fileName': 'squareblack.png', 'correct_response': 'right', 'condition': 'stop'}, {'fileName': 'squareblack.png', 'correct_response': 'right', 'condition': 'go'}, {'fileName': 'circleblack.png', 'correct_response': 'left', 'condition': 'stop'}, {'fileName': 'squareblack.png', 'correct_response': 'right', 'condition': 'go'}, {'fileName': 'squareblack.png', 'correct_response': 'right', 'condition': 'go'}, {'fileName': 'squareblack.png', 'correct_response': 'right', 'condition': 'go'}, {'fileName': 'squareblack.png', 'correct_response': 'right', 'condition': 'stop'}, {'fileName': 'squareblack.png', 'correct_response': 'right', 'condition': 'stop'}, {'fileName': 'circleblack.png', 'correct_response': 'left', 'condition': 'go'}, {'fileName': 'circleblack.png', 'correct_response': 'left', 'condition': 'stop'}, {'fileName': 'circleblack.png', 'correct_response': 'left', 'condition': 'go'}, {'fileName': 'circleblack.png', 'correct_response': 'left', 'condition': 'go'}, {'fileName': 'circleblack.png', 'correct_response': 'left', 'condition': 'go'}]",,,,,,,,,,,,,,,,,,,,,,,,,,,,,,,,,,,,3031.5873141288757,3031.5873141288757,return,4.156284287571907,,,,,,,,,,,,,,,,,,,,,,,,,s041,001,2024-09-27_10h10.06.182,simplestop_skeleton,2022.2.2,59.9369120053452,
None,None,,,,,,,,,0,0,0,0,0,0,0,3,,,,,,,,,3039.2608134821057,go,squareblack.png,right,0.35,,,,,,,,,,,,,,,,0.002214282751083374,0.4903503954410553,,3041.7644699662924,test,1,,,,,,,3035.7721110209823,3035.7721110209823,3039.2819398120046,3039.7777142450213,3039.7777142450213,3039.794266551733,3040.1280790045857,3040.628763563931,3040.77888789773,3041.783587768674,right,1,0.625707820057869,0.35,,,,,,,,,,,s041,001,2024-09-27_10h10.06.182,simplestop_skeleton,2022.2.2,59.9369120053452,
None,None,,,,,,,,,0,0,0,0,0,1,1,3,,,,,,,,,3041.765004195273,go,squareblack.png,right,0.35,,,,,,,,,,,,,,,,0.001314803957939148,0.48947596549987793,,3044.273809507489,test,1,,,,,,,,,3041.783587768674,3042.280239917338,3042.280239917338,3042.296992249787,3042.6309333890676,3043.1464486569166,3043.2799385860562,3044.291890539229,right,1,0.5424245074391365,0.35,,,,,,,,,,,s041,001,2024-09-27_10h10.06.182,simplestop_skeleton,2022.2.2,59.9369120053452,
$currentCorrectResponse,$currentGoStim,,,,,,,,,0,0,0,0,0,2,2,0,,,,,,,,,3044.2742555812,go,squareblack.png,right,0.35,,,,,,,,,,,,,,,,0.0012653544545173645,0.49790407717227936,,3046.7863728180528,test,1,,,,,,,,,3044.291890539229,3044.7996922954917,3044.7996922954917,3044.7996922954917,3045.149887740612,3045.6491864025593,3045.79925224185,3046.8033263906837,right,1,0.46771737188100815,0.35,,,,,,,,,,,s041,001,2024-09-27_10h10.06.182,simplestop_skeleton,2022.2.2,59.9369120053452,
None,None,,,,,,,,,0,0,0,0,0,3,3,2,,,,,,,,,3046.7868036925793,stop,squareblack.png,right,0.35,,,,,,,,,,,,,,,,0.0012986958026885986,0.48971619457006454,0.8404048830270767,3049.28919441998,test,1,,,,,,,,,3046.8033263906837,3047.3023805096745,3047.3023805096745,3047.3191487193108,3047.653199672699,3048.1689455360174,3048.3021171987057,3049.314371675253,None,0,,0.4,,,,,,,,,,,s041,001,2024-09-27_10h10.06.182,simplestop_skeleton,2022.2.2,59.9369120053452,
$currentCorrectResponse,$currentGoStim,,,,,,,,,0,0,0,0,1,0,4,0,,,,,,,,,3049.2896929830313,go,circleblack.png,left,0.4,,,,,,,,,,,,,,,,0.007828891277313232,0.4895448014140129,,3051.7915583774447,test,1,,,,,,,,,3049.314371675253,3049.805357016623,3049.805357016623,3049.8220366463065,3050.2057768553495,3050.7214091196656,3050.8048882111907,3051.808419279754,left,1,0.35594023019075394,0.4,,,,,,,,,,,s041,001,2024-09-27_10h10.06.182,simplestop_skeleton,2022.2.2,59.9369120053452,
$currentCorrectResponse,$currentGoStim,,,,,,,,,0,0,0,0,1,1,5,0,,,,,,,,,3051.7919929921627,go,circleblack.png,left,0.4,,,,,,,,,,,,,,,,0.001268729567527771,0.48979227244853973,,3054.2933253347874,test,1,,,,,,,,,3051.808419279754,3052.3077557981014,3052.3077557981014,3052.3077557981014,3052.708302117884,3053.209220096469,3053.309528976679,3054.3116114214063,left,1,0.7425976395606995,0.4,,,,,,,,,,,s041,001,2024-09-27_10h10.06.182,simplestop_skeleton,2022.2.2,59.9369120053452,
None,None,,,,,,,,,0,0,0,0,1,2,6,3,,,,,,,,,3054.293778054416,go,squareblack.png,right,0.4,,,,,,,,,,,,,,,,0.0017013251781463623,0.4884779751300812,,3056.797512203455,test,1,,,,,,,,,3054.3116114214063,3054.8092602193356,3054.8092602193356,3054.8260039314628,3055.2097911313176,3055.710301153362,3055.811128169298,3056.8167832940817,right,1,0.6685951575636864,0.4,,,,,,,,,,,s041,001,2024-09-27_10h10.06.182,simplestop_skeleton,2022.2.2,59.9369120053452,
$currentCorrectResponse,$currentGoStim,,,,,,,,,0,0,0,0,1,3,7,0,,,,,,,,,3056.797942906618,stop,circleblack.png,left,0.4,,,,,,,,,,,,,,,,0.0018408969044685364,0.48963920027017593,0.890174001455307,3059.2998958975077,test,1,,,,,,,,,3056.8167832940817,3057.3132909312844,3057.3132909312844,3057.3302501291037,3057.713872946799,3058.2130024805665,3058.3131151795387,3059.3173586428165,left,1,0.4555238336324692,0.35,,,,,,,,,,,s041,001,2024-09-27_10h10.06.182,simplestop_skeleton,2022.2.2,59.9369120053452,
None,None,,,,,,,,,0,0,0,0,2,0,8,3,,,,,,,,,3059.300338163972,go,circleblack.png,left,0.35,,,,,,,,,,,,,,,,0.0013880133628845215,0.48986535519361496,,3061.8015141934156,test,1,,,,,,,,,3059.3173586428165,3059.8161251097918,3059.8161251097918,3059.832766510546,3060.166626662016,3060.667553730309,3060.816094085574,3061.818425618112,left,1,0.706668071448803,0.35,,,,,,,,,,,s041,001,2024-09-27_10h10.06.182,simplestop_skeleton,2022.2.2,59.9369120053452,
None,None,,,,,,,,,0,0,0,0,2,1,9,1,,,,,,,,,3061.801968112588,go,circleblack.png,left,0.35,,,,,,,,,,,,,,,,0.0012237653136253357,0.489653617143631,,3064.3058664426208,test,1,,,,,,,,,3061.818425618112,3062.317519426346,3062.317519426346,3062.3341850563884,3062.6679739281535,3063.1685747131705,3063.3195250332355,3064.3313964530826,left,1,0.8977894186973572,0.35,,,,,,,,,,,s041,001,2024-09-27_10h10.06.182,simplestop_skeleton,2022.2.2,59.9369120053452,
None,None,,,,,,,,,0,0,0,0,2,2,10,3,,,,,,,,,3064.306311376393,stop,squareblack.png,right,0.35,,,,,,,,,,,,,,,,0.007969386875629425,0.4887319281697273,0.8391222432255745,3066.808684773743,test,1,,,,,,,,,3064.3313964530826,3064.8216624185443,3064.8216624185443,3064.838342256844,3065.1720611155033,3065.6728924289346,3065.8228980600834,3066.8298579007387,None,0,,0.4,,,,,,,,,,,s041,001,2024-09-27_10h10.06.182,simplestop_skeleton,2022.2.2,59.9369120053452,
$currentCorrectResponse,$currentGoStim,,,,,,,,,0,0,0,0,2,3,11,0,,,,,,,,,3066.809160478413,stop,circleblack.png,left,0.4,,,,,,,,,,,,,,,,0.002552323043346405,0.48799822479486465,0.8884673416614532,3069.3118486255407,test,1,,,,,,,,,3066.8298579007387,3067.324374459684,3067.324374459684,3067.341336593032,3067.72494315356,3068.225418366492,3068.3255919143558,3069.330746859312,None,0,,0.45,,,,,,,,,,,s041,001,2024-09-27_10h10.06.182,simplestop_skeleton,2022.2.2,59.9369120053452,
None,None,,,,,,,,,0,0,0,0,3,0,12,1,,,,,,,,,3069.3122825473547,go,circleblack.png,left,0.45,,,,,,,,,,,,,,,,0.00147942453622818,0.48925817012786865,,3071.812713228166,test,1,,,,,,,,,3069.330746859312,3069.8273528814316,3069.8273528814316,3069.843992382288,3070.2778806984425,3070.7787526398897,3070.828809686005,3071.82941480726,left,1,0.8010545298457146,0.45,,,,,,,,,,,s041,001,2024-09-27_10h10.06.182,simplestop_skeleton,2022.2.2,59.9369120053452,
$currentCorrectResponse,$currentGoStim,,,,,,,,,0,0,0,0,3,1,13,0,,,,,,,,,3071.8131684735417,stop,circleblack.png,left,0.45,,,,,,,,,,,,,,,,0.0012267976999282837,0.4895913526415825,0.940195620059967,3074.316796325147,test,1,,,,,,,,,3071.82941480726,3072.3286840841174,3072.3286840841174,3072.3286840841174,3072.7791743054986,3073.279759898782,3073.3297247961164,3074.3360767662525,None,0,,0.5,,,,,,,,,,,s041,001,2024-09-27_10h10.06.182,simplestop_skeleton,2022.2.2,59.9369120053452,
$currentCorrectResponse,$currentGoStim,,,,,,,,,0,0,0,0,3,2,14,0,,,,,,,,,3074.3172286376357,stop,circleblack.png,left,0.5,,,,,,,,,,,,,,,,0.0013964921236038208,0.48951002955436707,0.9901976808905602,3076.819579474628,test,1,,,,,,,,,3074.3360767662525,3074.832651309669,3074.832651309669,3074.849594667554,3075.3334641829133,3075.8339265808463,3075.8339265808463,3076.8436022773385,None,0,,0.55,,,,,,,,,,,s041,001,2024-09-27_10h10.06.182,simplestop_skeleton,2022.2.2,59.9369120053452,
None,None,,,,,,,,,0,0,0,0,3,3,15,3,,,,,,,,,3076.820076338947,go,squareblack.png,right,0.55,,,,,,,,,,,,,,,,0.007103048264980316,0.4894040524959564,,3079.322436362505,test,1,,,,,,,,,3076.8436022773385,3077.3354481831193,3077.3354481831193,3077.3523909002542,3077.8849316313863,3078.3852545693517,3078.3354193493724,3079.341657884419,right,1,0.7491957247257233,0.55,,,,,,,,,,,s041,001,2024-09-27_10h10.06.182,simplestop_skeleton,2022.2.2,59.9369120053452,
None,None,,,,,,,,,0,0,0,0,4,0,16,3,,,,,,,,,3079.322870641947,stop,squareblack.png,right,0.55,,,,,,,,,,,,,,,,0.0013436228036880493,0.48944465070962906,1.040226623415947,3081.8237647786736,test,1,,,,,,,,,3079.341657884419,3079.8385094702244,3079.8385094702244,3079.85505438596,3080.3890731036663,3080.888231754303,3080.8381532356143,3081.840758226812,right,1,0.6947805434465408,0.5,,,,,,,,,,,s041,001,2024-09-27_10h10.06.182,simplestop_skeleton,2022.2.2,59.9369120053452,
None,None,,,,,,,,,0,0,0,0,4,1,17,2,,,,,,,,,3081.8242020085454,go,squareblack.png,right,0.5,,,,,,,,,,,,,,,,0.0011835843324661255,0.48934102058410645,,3084.3277326747775,test,1,,,,,,,,,3081.840758226812,3082.3395702838898,3082.3395702838898,3082.356366984546,3082.8404044806957,3083.341232344508,3083.341232344508,3084.3470088392496,right,1,0.9405117779970169,0.5,,,,,,,,,,,s041,001,2024-09-27_10h10.06.182,simplestop_skeleton,2022.2.2,59.9369120053452,
None,None,,,,,,,,,0,0,0,0,4,2,18,2,,,,,,,,,3084.328161895275,go,squareblack.png,right,0.5,,,,,,,,,,,,,,,,0.001359991729259491,0.4895768240094185,,3086.8291720449924,test,1,,,,,,,,,3084.3470088392496,3084.8440749645233,3084.8440749645233,3084.8606762066483,3085.3446702063084,3085.845219306648,3085.845219306648,3086.8464235514402,right,1,0.8848853409290314,0.5,,,,,,,,,,,s041,001,2024-09-27_10h10.06.182,simplestop_skeleton,2022.2.2,59.9369120053452,
None,None,,,,,,,,,0,0,0,0,4,3,19,1,,,,,,,,,3086.829632565379,go,circleblack.png,left,0.5,,,,,,,,,,,,,,,,0.0018596947193145752,0.4895588904619217,,3089.33336468786,test,1,,,,,,,,,3086.8464235514402,3087.3453591018915,3087.3453591018915,3087.3620300740004,3087.8458515927196,3088.3463658615947,3088.3463658615947,3089.3526009768248,left,1,0.9019190222024918,0.5,,,,,,,,,,,s041,001,2024-09-27_10h10.06.182,simplestop_skeleton,2022.2.2,59.9369120053452,
$currentCorrectResponse,$currentGoStim,,,,,,,,,0,0,0,0,5,0,20,0,,,,,,,,,3089.333805344999,go,circleblack.png,left,0.5,,,,,,,,,,,,,,,,0.0014305487275123596,0.4896276220679283,,3091.8348003849387,test,1,,,,,,,,,3089.3526009768248,3089.849539935589,3089.849539935589,3089.8661500513554,3090.3500005602837,3090.849156677723,3090.849156677723,3091.851564154029,left,1,0.6739776954054832,0.5,,,,,,,,,,,s041,001,2024-09-27_10h10.06.182,simplestop_skeleton,2022.2.2,59.9369120053452,
None,None,,,,,,,,,0,0,0,0,5,1,21,2,,,,,,,,,3091.835245087743,go,circleblack.png,left,0.5,,,,,,,,,,,,,,,,0.0012338832020759583,0.4898087829351425,,3094.3389867395163,test,1,,,,,,,,,3091.851564154029,3092.3507810235023,3092.3507810235023,3092.3507810235023,3092.851433135569,3093.351928368211,3093.351928368211,3094.363280467689,left,1,1.0104344114661217,0.5,,,,,,,,,,,s041,001,2024-09-27_10h10.06.182,simplestop_skeleton,2022.2.2,59.9369120053452,
None,None,,,,,,,,,0,0,0,0,5,2,22,2,,,,,,,,,3094.3394288122654,go,squareblack.png,right,0.5,,,,,,,,,,,,,,,,0.007358074188232422,0.4894416034221649,,3096.84015468508,test,1,,,,,,,,,3094.363280467689,3094.8552837967873,3094.8552837967873,3094.8721992373466,3095.3557010516524,3095.8565303832293,3095.8565303832293,3096.8572067171335,right,1,0.7846517860889435,0.5,,,,,,,,,,,s041,001,2024-09-27_10h10.06.182,simplestop_skeleton,2022.2.2,59.9369120053452,
None,None,,,,,,,,,0,0,0,0,5,3,23,2,,,,,,,,,3096.840634152293,stop,squareblack.png,right,0.5,,,,,,,,,,,,,,,,0.0011824220418930054,0.49141933768987656,0.9901090562343597,3099.3444676175714,test,1,,,,,,,,,3096.8572067171335,3097.358158402145,3097.358158402145,3097.358158402145,3097.856918975711,3098.357544898987,3098.357544898987,3099.3633673638105,right,1,0.6476577967405319,0.45,,,,,,,,,,,s041,001,2024-09-27_10h10.06.182,simplestop_skeleton,2022.2.2,59.9369120053452,
None,None,,,,,,,,,0,0,0,0,6,0,24,2,,,,,,,,,3099.344908863306,stop,squareblack.png,right,0.45,,,,,,,,,,,,,,,,0.0013237223029136658,0.4897291138768196,0.9401979893445969,3101.847160026431,test,1,,,,,,,,,3099.3633673638105,3099.8604974374175,3099.8604974374175,3099.877141661942,3100.311148047447,3100.8116190582514,3100.8615053147078,3101.8659442663193,None,0,,0.5,,,,,,,,,,,s041,001,2024-09-27_10h10.06.182,simplestop_skeleton,2022.2.2,59.9369120053452,
None,None,,,,,,,,,0,0,0,0,6,1,25,3,,,,,,,,,3101.847591765225,go,squareblack.png,right,0.5,,,,,,,,,,,,,,,,0.0011873170733451843,0.48977431654930115,,3104.348483353853,test,1,,,,,,,,,3101.8659442663193,3102.363161638379,3102.363161638379,3102.3800386488438,3102.863792270422,3103.3647398129106,3103.3647398129106,3104.365263208747,right,1,0.7272481471300125,0.5,,,,,,,,,,,s041,001,2024-09-27_10h10.06.182,simplestop_skeleton,2022.2.2,59.9369120053452,
None,None,,,,,,,,,0,0,0,0,6,2,26,1,,,,,,,,,3104.348933055997,go,squareblack.png,right,0.5,,,,,,,,,,,,,,,,0.001172490417957306,0.48959024250507355,,3106.8525431081653,test,1,,,,,,,,,3104.365263208747,3104.864445589483,3104.864445589483,3104.864445589483,3105.3652713671327,3105.8655256554484,3105.8655256554484,3106.8776931986213,right,1,0.8268421143293381,0.5,,,,,,,,,,,s041,001,2024-09-27_10h10.06.182,simplestop_skeleton,2022.2.2,59.9369120053452,
$currentCorrectResponse,$currentGoStim,,,,,,,,,0,0,0,0,6,3,27,0,,,,,,,,,3106.852987676859,stop,circleblack.png,left,0.5,,,,,,,,,,,,,,,,0.00860276073217392,0.4898286983370781,0.9889460802078247,3109.3554161190987,test,1,,,,,,,,,3106.8776931986213,3107.3687935844064,3107.3687935844064,3107.385414905846,3107.8678934797645,3108.3684280365705,3108.3684280365705,3109.374154448509,None,0,,0.55,,,,,,,,,,,s041,001,2024-09-27_10h10.06.182,simplestop_skeleton,2022.2.2,59.9369120053452,
None,None,,,,,,,,,0,0,0,0,7,0,28,2,,,,,,,,,3109.3558552861214,go,circleblack.png,left,0.55,,,,,,,,,,,,,,,,0.001447528600692749,0.48955298215150833,,3111.856770724058,test,1,,,,,,,,,3109.374154448509,3109.8713490366936,3109.8713490366936,3109.888324305415,3110.422236815095,3110.923181563616,3110.8732090443373,3111.8735551685095,left,1,0.8411315530538559,0.55,,,,,,,,,,,s041,001,2024-09-27_10h10.06.182,simplestop_skeleton,2022.2.2,59.9369120053452,
None,None,,,,,,,,,0,0,0,0,7,1,29,3,,,,,,,,,3111.857222676277,stop,circleblack.png,left,0.55,,,,,,,,,,,,,,,,0.0012992620468139648,0.4899003580212593,1.0410541072487831,3114.36113935709,test,1,,,,,,,,,3111.8735551685095,3112.3727779462934,3112.3727779462934,3112.3727779462934,3112.9237624406815,3113.4239927604795,3113.3738865330815,3114.3802194818854,left,1,0.4347805008292198,0.5,,,,,,,,,,,s041,001,2024-09-27_10h10.06.182,simplestop_skeleton,2022.2.2,59.9369120053452,
None,None,,,,,,,,,0,0,0,0,7,2,30,3,,,,,,,,,3114.361576639116,go,circleblack.png,left,0.5,,,,,,,,,,,,,,,,0.0014087334275245667,0.4894389882683754,,3116.8624892681837,test,1,,,,,,,,,3114.3802194818854,3114.8769508451223,3114.8769508451223,3114.8936786800623,3115.3776721805334,3115.877985432744,3115.877985432744,3116.8848177194595,left,1,1.1448911353945732,0.5,,,,,,,,,,,s041,001,2024-09-27_10h10.06.182,simplestop_skeleton,2022.2.2,59.9369120053452,
None,None,,,,,,,,,0,0,0,0,7,3,31,1,,,,,,,,,3116.8629236519337,go,squareblack.png,right,0.5,,,,,,,,,,,,,,,,0.00713735818862915,0.48934460431337357,,3119.366448402405,test,1,,,,,,,,,3116.8848177194595,3117.3782986178994,3117.3782986178994,3117.395024240017,3117.878922753036,3118.379546314478,3118.379546314478,3119.3852448761463,right,1,0.9200639650225639,0.5,,,,,,,,,,,s041,001,2024-09-27_10h10.06.182,simplestop_skeleton,2022.2.2,59.9369120053452,
None,None,,,,,,,,,0,0,0,0,8,0,32,1,,,,,,,,,3119.3668855056167,go,squareblack.png,right,0.5,,,,,,,,,,,,,,,,0.0012139379978179932,0.48968880623579025,,3121.869104139507,test,1,,,,,,,,,3119.3852448761463,3119.882548689842,3119.882548689842,3119.8990513160825,3120.3832061961293,3120.8988017216325,3120.8821141570807,3121.8876082524657,right,1,0.43847668915987015,0.5,,,,,,,,,,,s041,001,2024-09-27_10h10.06.182,simplestop_skeleton,2022.2.2,59.9369120053452,
None,None,,,,,,,,,0,0,0,0,8,1,33,1,,,,,,,,,3121.8695631995797,go,circleblack.png,left,0.5,,,,,,,,,,,,,,,,0.002071395516395569,0.4894367381930351,,3124.3708795830607,test,1,,,,,,,,,3121.8876082524657,3122.3852142244577,3122.3852142244577,3122.4018091857433,3122.8859626874328,3123.386722870171,3123.386722870171,3124.3895861953497,left,1,0.6944602355360985,0.5,,,,,,,,,,,s041,001,2024-09-27_10h10.06.182,simplestop_skeleton,2022.2.2,59.9369120053452,
None,None,,,,,,,,,0,0,0,0,8,2,34,1,,,,,,,,,3124.3713193312287,stop,squareblack.png,right,0.5,,,,,,,,,,,,,,,,0.0015835538506507874,0.4893842861056328,0.9900586903095245,3126.874744966626,test,1,,,,,,,,,3124.3895861953497,3124.8865137025714,3124.8865137025714,3124.9033639878035,3125.3872946947813,3125.888204447925,3125.888204447925,3126.8943352997303,right,1,0.584414079785347,0.45,,,,,,,,,,,s041,001,2024-09-27_10h10.06.182,simplestop_skeleton,2022.2.2,59.9369120053452,
None,None,,,,,,,,,0,0,0,0,8,3,35,1,,,,,,,,,3126.8751838058233,go,circleblack.png,left,0.45,,,,,,,,,,,,,,,,0.001891016960144043,0.4897146448493004,,3129.376000121236,test,1,,,,,,,,,3126.8943352997303,3127.3907429277897,3127.3907429277897,3127.4077725484967,3127.8410674855113,3128.3421730920672,3128.3922493979335,3129.392883874476,left,1,0.7430044338107109,0.45,,,,,,,,,,,s041,001,2024-09-27_10h10.06.182,simplestop_skeleton,2022.2.2,59.9369120053452,
$currentCorrectResponse,$currentGoStim,,,,,,,,,0,0,0,0,9,0,36,0,,,,,,,,,3129.376435801387,stop,circleblack.png,left,0.45,,,,,,,,,,,,,,,,0.001339346170425415,0.48960134387016296,0.9407142475247383,3131.880330711603,test,1,,,,,,,,,3129.392883874476,3129.8921212106943,3129.8921212106943,3129.8921212106943,3130.342805542052,3130.8430648967624,3130.893159687519,3131.899632178247,None,0,,0.5,,,,,,,,,,,s041,001,2024-09-27_10h10.06.182,simplestop_skeleton,2022.2.2,59.9369120053452,
None,None,,,,,,,,,0,0,0,0,9,1,37,1,,,,,,,,,3131.880819015205,stop,circleblack.png,left,0.5,,,,,,,,,,,,,,,,0.0014773979783058167,0.48935915529727936,0.9898107200860977,3134.3816626891494,test,1,,,,,,,,,3131.899632178247,3132.3962797895074,3132.3962797895074,3132.412916742265,3132.8967571929097,3133.397700421512,3133.397700421512,3134.398820184171,left,1,0.7964719384908676,0.45,,,,,,,,,,,s041,001,2024-09-27_10h10.06.182,simplestop_skeleton,2022.2.2,59.9369120053452,
None,None,,,,,,,,,0,0,0,0,9,2,38,1,,,,,,,,,3134.3820979744196,go,circleblack.png,left,0.45,,,,,,,,,,,,,,,,0.0012382417917251587,0.4894966259598732,,3136.8856926709414,test,1,,,,,,,,,3134.398820184171,3134.8978246301413,3134.8978246301413,3134.9143151044846,3135.3481450527906,3135.848696023226,3135.8987988755107,3136.9044585973024,left,1,0.9940518885850906,0.45,,,,,,,,,,,s041,001,2024-09-27_10h10.06.182,simplestop_skeleton,2022.2.2,59.9369120053452,
None,None,,,,,,,,,0,0,0,0,9,3,39,2,,,,,,,,,3136.8861196786165,go,circleblack.png,left,0.45,,,,,,,,,,,,,,,,0.0012455359101295471,0.48968613892793655,,3139.3886166885495,test,1,,,,,,,,,3136.9044585973024,3137.401782155037,3137.401782155037,3137.4185716211796,3137.850821606815,3138.3515466973186,3138.401555635035,3139.4074192345142,left,1,0.9559712037444115,0.45,,,,,,,,,,,s041,001,2024-09-27_10h10.06.182,simplestop_skeleton,2022.2.2,59.9369120053452,
None,None,,,,,,,,,0,0,0,0,10,0,40,2,,,,,,,,,3139.389055840671,go,circleblack.png,left,0.45,,,,,,,,,,,,,,,,0.0013368278741836548,0.489554762840271,,3141.889858007431,test,1,,,,,,,,,3139.4074192345142,3139.9046502932906,3139.9046502932906,3139.921195797622,3140.355169378221,3140.8559379428625,3140.905643813312,3141.90650780499,left,1,0.9516919776797295,0.45,,,,,,,,,,,s041,001,2024-09-27_10h10.06.182,simplestop_skeleton,2022.2.2,59.9369120053452,
$currentCorrectResponse,$currentGoStim,,,,,,,,,0,0,0,0,10,1,41,0,,,,,,,,,3141.8902947977185,go,circleblack.png,left,0.45,,,,,,,,,,,,,,,,0.0012152120471000671,0.49027983844280243,,3144.393991395831,test,1,,,,,,,,,3141.90650780499,3142.4060250893235,3142.4060250893235,3142.4060250893235,3142.856444709003,3143.356971234083,3143.4069243595004,3144.418210223317,left,1,0.5140223801136017,0.45,,,,,,,,,,,s041,001,2024-09-27_10h10.06.182,simplestop_skeleton,2022.2.2,59.9369120053452,
None,None,,,,,,,,,0,0,0,0,10,2,42,2,,,,,,,,,3144.3944181650877,go,squareblack.png,right,0.45,,,,,,,,,,,,,,,,0.007292583584785461,0.4897118881344795,,3146.8953570201993,test,1,,,,,,,,,3144.418210223317,3144.9099827110767,3144.9099827110767,3144.926946543157,3145.360733449459,3145.861451931298,3145.911659143865,3146.9120644629,right,1,0.7721781358122826,0.45,,,,,,,,,,,s041,001,2024-09-27_10h10.06.182,simplestop_skeleton,2022.2.2,59.9369120053452,
None,None,,,,,,,,,0,0,0,0,10,3,43,2,,,,,,,,,3146.8957870975137,go,squareblack.png,right,0.45,,,,,,,,,,,,,,,,0.0011947974562644958,0.48968973755836487,,3149.399720750749,test,1,,,,,,,,,3146.9120644629,3147.411462344229,3147.411462344229,3147.411462344229,3147.8618389964104,3148.3624843657017,3148.412457741797,3149.4187759682536,right,1,0.36401816457509995,0.45,,,,,,,,,,,s041,001,2024-09-27_10h10.06.182,simplestop_skeleton,2022.2.2,59.9369120053452,
None,None,,,,,,,,,0,0,0,0,11,0,44,3,,,,,,,,,3149.4001535475254,go,squareblack.png,right,0.45,,,,,,,,,,,,,,,,0.0013871267437934875,0.4895109012722969,,3151.9008618965745,test,1,,,,,,,,,3149.4187759682536,3149.9156880676746,3149.9156880676746,3149.9324343279004,3150.366156563163,3150.867111340165,3150.917246989906,3151.919253192842,right,1,0.8199870586395264,0.45,,,,,,,,,,,s041,001,2024-09-27_10h10.06.182,simplestop_skeleton,2022.2.2,59.9369120053452,
$currentCorrectResponse,$currentGoStim,,,,,,,,,0,0,0,0,11,1,45,0,,,,,,,,,3151.9013082012534,go,squareblack.png,right,0.45,,,,,,,,,,,,,,,,0.001171596348285675,0.48986122012138367,,3154.4056635275483,test,1,,,,,,,,,3151.919253192842,3152.4184721261263,3152.4184721261263,3152.434885017574,3152.867572262883,3153.367992296815,3153.4180155545473,3154.424481295049,right,1,1.0461579263210297,0.45,,,,,,,,,,,s041,001,2024-09-27_10h10.06.182,simplestop_skeleton,2022.2.2,59.9369120053452,
None,None,,,,,,,,,0,0,0,0,11,2,46,1,,,,,,,,,3154.4061090499163,stop,squareblack.png,right,0.45,,,,,,,,,,,,,,,,0.0013732537627220154,0.4895266219973564,0.9397860690951347,3156.9080380424857,test,1,,,,,,,,,3154.424481295049,3154.9210795611143,3154.9210795611143,3154.9379070699215,3155.371943935752,3155.8726708963513,3155.9226017817855,3156.9267770648003,None,0,,0.5,,,,,,,,,,,s041,001,2024-09-27_10h10.06.182,simplestop_skeleton,2022.2.2,59.9369120053452,
None,None,,,,,,,,,0,0,0,0,11,3,47,3,,,,,,,,,3156.908466294408,stop,squareblack.png,right,0.5,,,,,,,,,,,,,,,,0.001323014497756958,0.48971425741910934,0.990011140704155,3159.410884357989,test,1,,,,,,,,,3156.9267770648003,3157.4240069538355,3157.4240069538355,3157.440716214478,3157.9246735423803,3158.4251062721014,3158.4251062721014,3159.4369883164763,None,0,,0.55,,,,,,,,,,,s041,001,2024-09-27_10h10.06.182,simplestop_skeleton,2022.2.2,59.9369120053452,
,,,,,,,,,,0,0,0,0,,,,,,"[{'fileName': 'circleblack.png', 'correct_response': 'left', 'condition': 'go'}, {'fileName': 'squareblack.png', 'correct_response': 'right', 'condition': 'go'}, {'fileName': 'circleblack.png', 'correct_response': 'left', 'condition': 'go'}, {'fileName': 'circleblack.png', 'correct_response': 'left', 'condition': 'stop'}, {'fileName': 'squareblack.png', 'correct_response': 'right', 'condition': 'stop'}, {'fileName': 'squareblack.png', 'correct_response': 'right', 'condition': 'go'}, {'fileName': 'squareblack.png', 'correct_response': 'right', 'condition': 'go'}, {'fileName': 'squareblack.png', 'correct_response': 'right', 'condition': 'stop'}, {'fileName': 'circleblack.png', 'correct_response': 'left', 'condition': 'stop'}, {'fileName': 'circleblack.png', 'correct_response': 'left', 'condition': 'go'}, {'fileName': 'squareblack.png', 'correct_response': 'right', 'condition': 'go'}, {'fileName': 'circleblack.png', 'correct_response': 'left', 'condition': 'go'}, {'fileName': 'circleblack.png', 'correct_response': 'left', 'condition': 'go'}, {'fileName': 'squareblack.png', 'correct_response': 'right', 'condition': 'go'}, {'fileName': 'circleblack.png', 'correct_response': 'left', 'condition': 'stop'}, {'fileName': 'squareblack.png', 'correct_response': 'right', 'condition': 'go'}, {'fileName': 'circleblack.png', 'correct_response': 'left', 'condition': 'go'}, {'fileName': 'squareblack.png', 'correct_response': 'right', 'condition': 'go'}, {'fileName': 'squareblack.png', 'correct_response': 'right', 'condition': 'stop'}, {'fileName': 'squareblack.png', 'correct_response': 'right', 'condition': 'stop'}, {'fileName': 'circleblack.png', 'correct_response': 'left', 'condition': 'stop'}, {'fileName': 'circleblack.png', 'correct_response': 'left', 'condition': 'go'}, {'fileName': 'squareblack.png', 'correct_response': 'right', 'condition': 'go'}, {'fileName': 'circleblack.png', 'correct_response': 'left', 'condition': 'go'}, {'fileName': 'circleblack.png', 'correct_response': 'left', 'condition': 'go'}, {'fileName': 'circleblack.png', 'correct_response': 'left', 'condition': 'go'}, {'fileName': 'squareblack.png', 'correct_response': 'right', 'condition': 'stop'}, {'fileName': 'squareblack.png', 'correct_response': 'right', 'condition': 'go'}, {'fileName': 'circleblack.png', 'correct_response': 'left', 'condition': 'go'}, {'fileName': 'circleblack.png', 'correct_response': 'left', 'condition': 'stop'}, {'fileName': 'squareblack.png', 'correct_response': 'right', 'condition': 'go'}, {'fileName': 'squareblack.png', 'correct_response': 'right', 'condition': 'stop'}, {'fileName': 'circleblack.png', 'correct_response': 'left', 'condition': 'go'}, {'fileName': 'circleblack.png', 'correct_response': 'left', 'condition': 'stop'}, {'fileName': 'squareblack.png', 'correct_response': 'right', 'condition': 'go'}, {'fileName': 'squareblack.png', 'correct_response': 'right', 'condition': 'go'}, {'fileName': 'squareblack.png', 'correct_response': 'right', 'condition': 'go'}, {'fileName': 'squareblack.png', 'correct_response': 'right', 'condition': 'go'}, {'fileName': 'squareblack.png', 'correct_response': 'right', 'condition': 'stop'}, {'fileName': 'circleblack.png', 'correct_response': 'left', 'condition': 'go'}, {'fileName': 'circleblack.png', 'correct_response': 'left', 'condition': 'go'}, {'fileName': 'circleblack.png', 'correct_response': 'left', 'condition': 'stop'}, {'fileName': 'squareblack.png', 'correct_response': 'right', 'condition': 'go'}, {'fileName': 'circleblack.png', 'correct_response': 'left', 'condition': 'stop'}, {'fileName': 'squareblack.png', 'correct_response': 'right', 'condition': 'go'}, {'fileName': 'circleblack.png', 'correct_response': 'left', 'condition': 'go'}, {'fileName': 'circleblack.png', 'correct_response': 'left', 'condition': 'go'}, {'fileName': 'squareblack.png', 'correct_response': 'right', 'condition': 'stop'}]",,,,,,,,,,,,,,,,,,,,,,,,,,,,,,,,,,,,,,,,,,,,,,,,,,,,,3159.4369883164763,3159.4369883164763,return,8.81322257220745,,,,,,,s041,001,2024-09-27_10h10.06.182,simplestop_skeleton,2022.2.2,59.9369120053452,
None,None,,,,,,,,,1,0,1,0,0,0,0,2,,,,,,,,,3168.2784556671977,go,circleblack.png,left,0.55,,,,,,,,,,,,,,,,0.003092952072620392,0.49742894619703293,,3170.789922632277,test,2,,,,,,,,,3168.300196491182,3168.803175278008,3168.803175278008,3168.803175278008,3169.3537986427546,3169.8543802574277,3169.804124802351,3170.814944162965,left,1,0.6967311799526215,0.55,,,,,,,,,,,s041,001,2024-09-27_10h10.06.182,simplestop_skeleton,2022.2.2,59.9369120053452,
$currentCorrectResponse,$currentGoStim,,,,,,,,,1,0,1,0,0,1,1,0,,,,,,,,,3170.7904606983066,go,squareblack.png,right,0.55,,,,,,,,,,,,,,,,0.007606901228427887,0.48930590599775314,,3173.2911356911063,test,2,,,,,,,,,3170.814944162965,3171.3057950511575,3171.3057950511575,3171.3225153535604,3171.8568720519543,3172.372334115207,3172.3055254220963,3173.3083621263504,right,1,0.4623640775680542,0.55,,,,,,,,,,,s041,001,2024-09-27_10h10.06.182,simplestop_skeleton,2022.2.2,59.9369120053452,
None,None,,,,,,,,,1,0,1,0,0,2,2,2,,,,,,,,,3173.291586279869,go,circleblack.png,left,0.55,,,,,,,,,,,,,,,,0.0016985461115837097,0.48980748653411865,,3175.7952638864517,test,2,,,,,,,,,3173.3083621263504,3173.8072395026684,3173.8072395026684,3173.8238842859864,3174.3578191399574,3174.859874330461,3174.808602042496,3175.8153745681047,left,1,0.6524871289730072,0.55,,,,,,,,,,,s041,001,2024-09-27_10h10.06.182,simplestop_skeleton,2022.2.2,59.9369120053452,
None,None,,,,,,,,,1,0,1,0,0,3,3,1,,,,,,,,,3175.7956921607256,stop,circleblack.png,left,0.55,,,,,,,,,,,,,,,,0.0014223605394363403,0.48900222033262253,1.0396513789892197,3178.2970332428813,test,2,,,,,,,,,3175.8153745681047,3176.3115908950567,3176.3115908950567,3176.32802759856,3176.862021908164,3177.36301445961,3177.3129021301866,3178.318520076573,left,1,0.768132172524929,0.5,,,,,,,,,,,s041,001,2024-09-27_10h10.06.182,simplestop_skeleton,2022.2.2,59.9369120053452,
$currentCorrectResponse,$currentGoStim,,,,,,,,,1,0,1,0,1,0,4,0,,,,,,,,,3178.2974951565266,stop,squareblack.png,right,0.5,,,,,,,,,,,,,,,,0.006880439817905426,0.48958882689476013,0.9904232174158096,3180.800983786583,test,2,,,,,,,,,3178.318520076573,3178.81285572052,3178.81285572052,3178.82938952744,3179.3133076503873,3179.8138724938035,3179.8138724938035,3180.819976568222,None,0,,0.55,,,,,,,,,,,s041,001,2024-09-27_10h10.06.182,simplestop_skeleton,2022.2.2,59.9369120053452,
None,None,,,,,,,,,1,0,1,0,1,1,5,1,,,,,,,,,3180.8014136627316,go,squareblack.png,right,0.55,,,,,,,,,,,,,,,,0.0013016089797019958,0.4895690903067589,,3183.30222312361,test,2,,,,,,,,,3180.819976568222,3181.3168566823006,3181.3168566823006,3181.333749435842,3181.8673292174935,3182.3667653054,3182.3183994218707,3183.3189819827676,right,1,0.7526971697807312,0.55,,,,,,,,,,,s041,001,2024-09-27_10h10.06.182,simplestop_skeleton,2022.2.2,59.9369120053452,
None,None,,,,,,,,,1,0,1,0,1,2,6,1,,,,,,,,,3183.302672237158,go,squareblack.png,right,0.55,,,,,,,,,,,,,,,,0.0011639893054962158,0.4899365231394768,,3185.8063017204404,test,2,,,,,,,,,3183.3189819827676,3183.8184662386775,3183.8184662386775,3183.8184662386775,3184.3714626058936,3184.886102490127,3184.819442719221,3185.825222849846,right,1,0.9678900688886642,0.55,,,,,,,,,,,s041,001,2024-09-27_10h10.06.182,simplestop_skeleton,2022.2.2,59.9369120053452,
None,None,,,,,,,,,1,0,1,0,1,3,7,2,,,,,,,,,3185.806738436222,stop,squareblack.png,right,0.55,,,,,,,,,,,,,,,,0.001190774142742157,0.48968958854675293,1.0406574308872223,3188.307992272079,test,2,,,,,,,,,3185.825222849846,3186.32246979326,3186.32246979326,3186.3390665203333,3186.873535513878,3187.388787135482,3187.3221835047007,3188.3303592950106,right,1,0.5350591689348221,0.5,,,,,,,,,,,s041,001,2024-09-27_10h10.06.182,simplestop_skeleton,2022.2.2,59.9369120053452,
None,None,,,,,,,,,1,0,1,0,2,0,8,1,,,,,,,,,3188.308426439762,stop,circleblack.png,left,0.5,,,,,,,,,,,,,,,,0.007566563785076141,0.4906971976161003,0.9899937361478806,3190.81193125993,test,2,,,,,,,,,3188.3303592950106,3188.825181245804,3188.825181245804,3188.8418761640787,3189.324592284858,3189.8249099105597,3189.8249099105597,3190.8308143913746,left,1,0.7564745247364044,0.45,,,,,,,,,,,s041,001,2024-09-27_10h10.06.182,simplestop_skeleton,2022.2.2,59.9369120053452,
None,None,,,,,,,,,1,0,1,0,2,1,9,3,,,,,,,,,3190.812377117574,go,circleblack.png,left,0.45,,,,,,,,,,,,,,,,0.0013957247138023376,0.48973923176527023,,3193.3133176341653,test,2,,,,,,,,,3190.8308143913746,3191.3281027674675,3191.3281027674675,3191.344782717526,3191.7784851044416,3192.2795047834516,3192.329171873629,3193.3306062072515,left,1,0.9171812459826469,0.45,,,,,,,,,,,s041,001,2024-09-27_10h10.06.182,simplestop_skeleton,2022.2.2,59.9369120053452,
None,None,,,,,,,,,1,0,1,0,2,2,10,1,,,,,,,,,3193.313747152686,go,squareblack.png,right,0.45,,,,,,,,,,,,,,,,0.0017194077372550964,0.48955724388360977,,3195.8173525705934,test,2,,,,,,,,,3193.3306062072515,3193.829948477447,3193.829948477447,3193.8465022668242,3194.279743909836,3194.7805494591594,3194.830456353724,3195.837019972503,right,1,0.9400355145335197,0.45,,,,,,,,,,,s041,001,2024-09-27_10h10.06.182,simplestop_skeleton,2022.2.2,59.9369120053452,
None,None,,,,,,,,,1,0,1,0,2,3,11,2,,,,,,,,,3195.8177769333124,go,circleblack.png,left,0.45,,,,,,,,,,,,,,,,0.0018529370427131653,0.4897366166114807,,3198.3188948258758,test,2,,,,,,,,,3195.837019972503,3196.333402507007,3196.333402507007,3196.3500855341554,3196.783931210637,3197.284391067922,3197.33472456038,3198.336002230644,left,1,0.9556181281805038,0.45,,,,,,,,,,,s041,001,2024-09-27_10h10.06.182,simplestop_skeleton,2022.2.2,59.9369120053452,
$currentCorrectResponse,$currentGoStim,,,,,,,,,1,0,1,0,3,0,12,0,,,,,,,,,3198.3193488046527,go,circleblack.png,left,0.45,,,,,,,,,,,,,,,,0.0012323111295700073,0.4915746971964836,,3200.8228968009353,test,2,,,,,,,,,3198.336002230644,3198.8347916975617,3198.8347916975617,3198.8347916975617,3199.285309113562,3199.7858647182584,3199.835913464427,3200.842123694718,left,1,0.7678521797060966,0.45,,,,,,,,,,,s041,001,2024-09-27_10h10.06.182,simplestop_skeleton,2022.2.2,59.9369120053452,
None,None,,,,,,,,,1,0,1,0,3,1,13,2,,,,,,,,,3200.8233426511288,go,squareblack.png,right,0.45,,,,,,,,,,,,,,,,0.001759655773639679,0.489609956741333,,3203.324365608394,test,2,,,,,,,,,3200.842123694718,3201.338872693479,3201.338872693479,3201.3556992784142,3201.7896797582507,3202.2901720926166,3202.3405352830887,3203.3414564952254,right,1,0.8351942002773285,0.45,,,,,,,,,,,s041,001,2024-09-27_10h10.06.182,simplestop_skeleton,2022.2.2,59.9369120053452,
None,None,,,,,,,,,1,0,1,0,3,2,14,2,,,,,,,,,3203.3248138949275,stop,circleblack.png,left,0.45,,,,,,,,,,,,,,,,0.0017217472195625305,0.4898589104413986,0.9402823820710182,3205.8284413442016,test,2,,,,,,,,,3203.3414564952254,3203.8405553475022,3203.8405553475022,3203.8571798205376,3204.2907850295305,3204.7913204208016,3204.8414833322167,3205.8477212786674,None,0,,0.5,,,,,,,,,,,s041,001,2024-09-27_10h10.06.182,simplestop_skeleton,2022.2.2,59.9369120053452,
None,None,,,,,,,,,1,0,1,0,3,3,15,2,,,,,,,,,3205.8288878947496,go,squareblack.png,right,0.5,,,,,,,,,,,,,,,,0.0015898868441581726,0.48968325555324554,,3208.329784795642,test,2,,,,,,,,,3205.8477212786674,3206.3444820791483,3206.3444820791483,3206.3611092045903,3206.845144227147,3207.346379444003,3207.346379444003,3208.3470812663436,right,1,0.9056988433003426,0.5,,,,,,,,,,,s041,001,2024-09-27_10h10.06.182,simplestop_skeleton,2022.2.2,59.9369120053452,
None,None,,,,,,,,,1,0,1,0,4,0,16,3,,,,,,,,,3208.3302347660065,go,circleblack.png,left,0.5,,,,,,,,,,,,,,,,0.0017460882663726807,0.4906436577439308,,3210.8340692669153,test,2,,,,,,,,,3208.3470812663436,3208.84625967592,3208.84625967592,3208.84625967592,3209.3464323952794,3209.8468841686845,3209.8468841686845,3210.853483632207,left,1,0.8237653449177742,0.5,,,,,,,,,,,s041,001,2024-09-27_10h10.06.182,simplestop_skeleton,2022.2.2,59.9369120053452,
None,None,,,,,,,,,1,0,1,0,4,1,17,3,,,,,,,,,3210.834518812597,go,squareblack.png,right,0.5,,,,,,,,,,,,,,,,0.001766301691532135,0.4897064119577408,,3213.3351284489036,test,2,,,,,,,,,3210.853483632207,3211.349954351783,3211.349954351783,3211.3667229563,3211.8506915569305,3212.35151091218,3212.35151091218,3213.352357827127,right,1,0.732816606760025,0.5,,,,,,,,,,,s041,001,2024-09-27_10h10.06.182,simplestop_skeleton,2022.2.2,59.9369120053452,
None,None,,,,,,,,,1,0,1,0,4,2,18,1,,,,,,,,,3213.335563570261,stop,squareblack.png,right,0.5,,,,,,,,,,,,,,,,0.001164466142654419,0.4900303930044174,0.9903863444924355,3215.839306488633,test,2,,,,,,,,,3213.352357827127,3213.8512938171625,3213.8512938171625,3213.8512938171625,3214.352007776499,3214.85265339911,3214.85265339911,3215.8583609759808,None,0,,0.55,,,,,,,,,,,s041,001,2024-09-27_10h10.06.182,simplestop_skeleton,2022.2.2,59.9369120053452,
None,None,,,,,,,,,1,0,1,0,4,3,19,3,,,,,,,,,3215.8398610726,stop,squareblack.png,right,0.55,,,,,,,,,,,,,,,,0.001357339322566986,0.48965149372816086,1.040164828300476,3218.3420709371567,test,2,,,,,,,,,3215.8583609759808,3216.3555684015155,3216.3555684015155,3216.3722399175167,3216.906313866377,3217.406752496958,3217.3567150831223,3218.361511260271,None,0,,0.6,,,,,,,,,,,s041,001,2024-09-27_10h10.06.182,simplestop_skeleton,2022.2.2,59.9369120053452,
None,None,,,,,,,,,1,0,1,0,5,0,20,1,,,,,,,,,3218.342522330582,stop,circleblack.png,left,0.6,,,,,,,,,,,,,,,,0.0017728805541992188,0.489947147667408,1.090665839612484,3220.843892298639,test,2,,,,,,,,,3218.361511260271,3218.858352340758,3218.858352340758,3218.874994240701,3219.4590252935886,3219.9580690041184,3219.8598142415285,3220.8608233109117,left,1,0.69523686170578,0.55,,,,,,,,,,,s041,001,2024-09-27_10h10.06.182,simplestop_skeleton,2022.2.2,59.9369120053452,
None,None,,,,,,,,,1,0,1,0,5,1,21,3,,,,,,,,,3220.8443494960666,go,circleblack.png,left,0.55,,,,,,,,,,,,,,,,0.0012987032532691956,0.4894133731722832,,3223.3478069752455,test,2,,,,,,,,,3220.8608233109117,3221.359759286046,3221.359759286046,3221.376447029412,3221.9103382974863,3222.410727761686,3222.3608736619353,3223.3671490997076,left,1,0.6916329860687256,0.55,,,,,,,,,,,s041,001,2024-09-27_10h10.06.182,simplestop_skeleton,2022.2.2,59.9369120053452,
None,None,,,,,,,,,1,0,1,0,5,2,22,3,,,,,,,,,3223.348248206079,go,squareblack.png,right,0.55,,,,,,,,,,,,,,,,0.0017221346497535706,0.48977696150541306,,3225.849311172962,test,2,,,,,,,,,3223.3671490997076,3223.8638894334435,3223.8638894334435,3223.8806857466698,3224.414689257741,3224.914202205837,3224.865558542311,3225.8668973967433,right,1,0.7677870392799377,0.55,,,,,,,,,,,s041,001,2024-09-27_10h10.06.182,simplestop_skeleton,2022.2.2,59.9369120053452,
None,None,,,,,,,,,1,0,1,0,5,3,23,1,,,,,,,,,3225.8497531712055,go,circleblack.png,left,0.55,,,,,,,,,,,,,,,,0.001812577247619629,0.49000412970781326,,3228.3534440919757,test,2,,,,,,,,,3225.8668973967433,3226.365364484489,3226.365364484489,3226.3822061493993,3226.916167385876,3227.4165005609393,3227.3664972260594,3228.3725689426064,left,1,0.9278917461633682,0.55,,,,,,,,,,,s041,001,2024-09-27_10h10.06.182,simplestop_skeleton,2022.2.2,59.9369120053452,
None,None,,,,,,,,,1,0,1,0,6,0,24,3,,,,,,,,,3228.353895075619,go,circleblack.png,left,0.55,,,,,,,,,,,,,,,,0.0013541653752326965,0.4898240491747856,,3230.854735970497,test,2,,,,,,,,,3228.3725689426064,3228.869426727295,3228.869426727295,3228.886077657342,3229.4198142141104,3229.9210821017623,3229.8707007840276,3230.871693111956,left,1,0.8537739887833595,0.55,,,,,,,,,,,s041,001,2024-09-27_10h10.06.182,simplestop_skeleton,2022.2.2,59.9369120053452,
None,None,,,,,,,,,1,0,1,0,6,1,25,3,,,,,,,,,3230.8551822826266,go,circleblack.png,left,0.55,,,,,,,,,,,,,,,,0.0012713521718978882,0.4896460846066475,,3233.358762010932,test,2,,,,,,,,,3230.871693111956,3231.370726570487,3231.370726570487,3231.370726570487,3231.9213758185506,3232.4217797145247,3232.371852606535,3233.382536612451,left,1,0.711577519774437,0.55,,,,,,,,,,,s041,001,2024-09-27_10h10.06.182,simplestop_skeleton,2022.2.2,59.9369120053452,
$currentCorrectResponse,$currentGoStim,,,,,,,,,1,0,1,0,6,2,26,0,,,,,,,,,3233.3591853156686,stop,squareblack.png,right,0.55,,,,,,,,,,,,,,,,0.007824063301086426,0.48962876200675964,1.040369637310505,3235.8603849485517,test,2,,,,,,,,,3233.382536612451,3233.8747558519244,3233.8747558519244,3233.8917147368193,3234.425689086318,3234.9267451390624,3234.876466296613,3235.877054706216,right,1,0.7648068368434906,0.5,,,,,,,,,,,s041,001,2024-09-27_10h10.06.182,simplestop_skeleton,2022.2.2,59.9369120053452,
$currentCorrectResponse,$currentGoStim,,,,,,,,,1,0,1,0,6,3,27,0,,,,,,,,,3235.860820479691,go,squareblack.png,right,0.5,,,,,,,,,,,,,,,,0.0011656805872917175,0.48977193236351013,,3238.364524707198,test,2,,,,,,,,,3235.877054706216,3236.376430004835,3236.376430004835,3236.376430004835,3236.876763433218,3237.3774205744267,3237.3774205744267,3238.384160064161,right,1,0.6905493661761284,0.5,,,,,,,,,,,s041,001,2024-09-27_10h10.06.182,simplestop_skeleton,2022.2.2,59.9369120053452,
$currentCorrectResponse,$currentGoStim,,,,,,,,,1,0,1,0,7,0,28,0,,,,,,,,,3238.3649789243937,go,circleblack.png,left,0.5,,,,,,,,,,,,,,,,0.0019329339265823364,0.4898547977209091,,3240.8657735213637,test,2,,,,,,,,,3238.384160064161,3238.88041511178,3238.88041511178,3238.897281445563,3239.380852289498,3239.881635323167,3239.881635323167,3240.882582604885,left,1,0.8650566413998604,0.5,,,,,,,,,,,s041,001,2024-09-27_10h10.06.182,simplestop_skeleton,2022.2.2,59.9369120053452,
$currentCorrectResponse,$currentGoStim,,,,,,,,,1,0,1,0,7,1,29,0,,,,,,,,,3240.866232596338,stop,circleblack.png,left,0.5,,,,,,,,,,,,,,,,0.0012432262301445007,0.48972833156585693,0.9902504533529282,3243.370273835957,test,2,,,,,,,,,3240.882582604885,3241.381803445518,3241.381803445518,3241.381803445518,3241.882302597165,3242.3829457834363,3242.3829457834363,3243.3895503804088,left,1,0.6785919517278671,0.45,,,,,,,,,,,s041,001,2024-09-27_10h10.06.182,simplestop_skeleton,2022.2.2,59.9369120053452,
None,None,,,,,,,,,1,0,1,0,7,2,30,1,,,,,,,,,3243.3707136511803,go,squareblack.png,right,0.45,,,,,,,,,,,,,,,,0.001780487596988678,0.4893893077969551,,3245.8713988140225,test,2,,,,,,,,,3243.3895503804088,3243.885990962386,3243.885990962386,3243.902588188648,3244.336532779038,3244.8374520093203,3244.8872621431947,3245.9026243165135,right,1,0.8903456851840019,0.45,,,,,,,,,,,s041,001,2024-09-27_10h10.06.182,simplestop_skeleton,2022.2.2,59.9369120053452,
None,None,,,,,,,,,1,0,1,0,7,3,31,3,,,,,,,,,3245.8719590753317,stop,squareblack.png,right,0.45,,,,,,,,,,,,,,,,0.0011931583285331726,0.48940614610910416,0.9398787468671799,3248.3757681772113,test,2,,,,,,,,,3245.9026243165135,3246.3880041241646,3246.3880041241646,3246.4043681174517,3246.8378308564425,3247.338413916528,3247.388482928276,3248.3954222649336,None,0,,0.5,,,,,,,,,,,s041,001,2024-09-27_10h10.06.182,simplestop_skeleton,2022.2.2,59.9369120053452,
None,None,,,,,,,,,1,0,1,0,8,0,32,1,,,,,,,,,3248.376206636429,go,circleblack.png,left,0.5,,,,,,,,,,,,,,,,0.0025215670466423035,0.48947230726480484,,3250.8767757862806,test,2,,,,,,,,,3248.3954222649336,3248.891576245427,3248.891576245427,3248.9082644730806,3249.3922335356474,3249.8930394798517,3249.8930394798517,3250.893482476473,left,1,0.7182053774595261,0.5,,,,,,,,,,,s041,001,2024-09-27_10h10.06.182,simplestop_skeleton,2022.2.2,59.9369120053452,
None,None,,,,,,,,,1,0,1,0,8,1,33,2,,,,,,,,,3250.877217978239,stop,circleblack.png,left,0.5,,,,,,,,,,,,,,,,0.00127381831407547,0.4898120015859604,0.9903705269098282,3253.380850441754,test,2,,,,,,,,,3250.893482476473,3251.3930091410875,3251.3930091410875,3251.3930091410875,3251.893406830728,3252.3939189240336,3252.3939189240336,3253.3999729678035,None,0,,0.55,,,,,,,,,,,s041,001,2024-09-27_10h10.06.182,simplestop_skeleton,2022.2.2,59.9369120053452,
$currentCorrectResponse,$currentGoStim,,,,,,,,,1,0,1,0,8,2,34,0,,,,,,,,,3253.3812896981835,go,squareblack.png,right,0.55,,,,,,,,,,,,,,,,0.0015885904431343079,0.490228034555912,,3255.882232129574,test,2,,,,,,,,,3253.3999729678035,3253.8972017243505,3253.8972017243505,3253.9138787314296,3254.4476447552443,3254.963517077267,3254.8969244137406,3255.899026155472,right,1,0.6432744786143303,0.55,,,,,,,,,,,s041,001,2024-09-27_10h10.06.182,simplestop_skeleton,2022.2.2,59.9369120053452,
$currentCorrectResponse,$currentGoStim,,,,,,,,,1,0,1,0,8,3,35,0,,,,,,,,,3255.8826986402273,go,squareblack.png,right,0.55,,,,,,,,,,,,,,,,0.0012267231941223145,0.4911367893218994,,3258.3862949609756,test,2,,,,,,,,,3255.899026155472,3256.399295143783,3256.399295143783,3256.399295143783,3256.9489442780614,3257.450044348836,3257.3995600417256,3258.404939904809,right,1,0.9170496985316277,0.55,,,,,,,,,,,s041,001,2024-09-27_10h10.06.182,simplestop_skeleton,2022.2.2,59.9369120053452,
$currentCorrectResponse,$currentGoStim,,,,,,,,,1,0,1,0,9,0,36,0,,,,,,,,,3258.386719867587,go,squareblack.png,right,0.55,,,,,,,,,,,,,,,,0.0011864230036735535,0.48992860317230225,,3260.888789795339,test,2,,,,,,,,,3258.404939904809,3258.9023529961705,3258.9023529961705,3258.919323094189,3259.4532205164433,3259.969266809523,3259.9023177549243,3260.906092070043,right,1,0.734081082046032,0.55,,,,,,,,,,,s041,001,2024-09-27_10h10.06.182,simplestop_skeleton,2022.2.2,59.9369120053452,
None,None,,,,,,,,,1,0,1,0,9,1,37,2,,,,,,,,,3260.889222584665,go,squareblack.png,right,0.55,,,,,,,,,,,,,,,,0.0012335404753684998,0.4905759245157242,,3263.3906522095203,test,2,,,,,,,,,3260.906092070043,3261.4054022803903,3261.4054022803903,3261.4054022803903,3261.955830104649,3262.4569991976023,3262.4069020971656,3263.4074875563383,right,1,0.8118764460086823,0.55,,,,,,,,,,,s041,001,2024-09-27_10h10.06.182,simplestop_skeleton,2022.2.2,59.9369120053452,
None,None,,,,,,,,,1,0,1,0,9,2,38,1,,,,,,,,,3263.39110185951,stop,squareblack.png,right,0.55,,,,,,,,,,,,,,,,0.0011691376566886902,0.48996948450803757,1.0402121767401695,3265.8949032127857,test,2,,,,,,,,,3263.4074875563383,3263.9068331494927,3263.9068331494927,3263.9068331494927,3264.457156136632,3264.9577547237277,3264.907666504383,3265.920104920864,right,1,0.6332179009914398,0.5,,,,,,,,,,,s041,001,2024-09-27_10h10.06.182,simplestop_skeleton,2022.2.2,59.9369120053452,
$currentCorrectResponse,$currentGoStim,,,,,,,,,1,0,1,0,9,3,39,0,,,,,,,,,3265.895328037441,go,circleblack.png,left,0.5,,,,,,,,,,,,,,,,0.008545003831386566,0.4896142855286598,,3268.3962800726295,test,2,,,,,,,,,3265.920104920864,3266.4107241630554,3266.4107241630554,3266.427525602281,3266.9112824723125,3267.427190259099,3267.4105768054724,3268.4148692935705,left,1,0.46797677874565125,0.5,,,,,,,,,,,s041,001,2024-09-27_10h10.06.182,simplestop_skeleton,2022.2.2,59.9369120053452,
None,None,,,,,,,,,1,0,1,0,10,0,40,2,,,,,,,,,3268.396734200418,go,circleblack.png,left,0.5,,,,,,,,,,,,,,,,0.0014728382229804993,0.4881768003106117,,3270.9001041278243,test,2,,,,,,,,,3268.4148692935705,3268.912141688168,3268.912141688168,3268.92884170264,3269.413046017289,3269.9132358282804,3269.9132358282804,3270.920902453363,left,1,0.49292343854904175,0.5,,,,,,,,,,,s041,001,2024-09-27_10h10.06.182,simplestop_skeleton,2022.2.2,59.9369120053452,
None,None,,,,,,,,,1,0,1,0,10,1,41,2,,,,,,,,,3270.900594815612,stop,circleblack.png,left,0.5,,,,,,,,,,,,,,,,0.0017844587564468384,0.48764774203300476,0.9883462190628052,3273.401756361127,test,2,,,,,,,,,3270.920902453363,3271.416459336877,3271.416459336877,3271.433088965714,3271.9168570116162,3272.4326023086905,3272.415970981121,3273.4210973754525,left,1,0.5216571688652039,0.45,,,,,,,,,,,s041,001,2024-09-27_10h10.06.182,simplestop_skeleton,2022.2.2,59.9369120053452,
$currentCorrectResponse,$currentGoStim,,,,,,,,,1,0,1,0,10,2,42,0,,,,,,,,,3273.4022126346827,go,squareblack.png,right,0.45,,,,,,,,,,,,,,,,0.0044098347425460815,0.4895101487636566,,3275.905585244298,test,2,,,,,,,,,3273.4210973754525,3273.917591750622,3273.917591750622,3273.9342648535967,3274.3684099838138,3274.868720546365,3274.9187556803226,3275.9252432882786,right,1,0.9085482433438301,0.45,,,,,,,,,,,s041,001,2024-09-27_10h10.06.182,simplestop_skeleton,2022.2.2,59.9369120053452,
None,None,,,,,,,,,1,0,1,0,10,3,43,3,,,,,,,,,3275.9060235768557,stop,circleblack.png,left,0.45,,,,,,,,,,,,,,,,0.0018384233117103577,0.4896666631102562,0.9401616454124451,3278.408617168665,test,2,,,,,,,,,3275.9252432882786,3276.4217309579253,3276.4217309579253,3276.4385830387473,3276.8722517490387,3277.3729097545147,3277.4232962578535,3278.4277960658073,None,0,,0.5,,,,,,,,,,,s041,001,2024-09-27_10h10.06.182,simplestop_skeleton,2022.2.2,59.9369120053452,
None,None,,,,,,,,,1,0,1,0,11,0,44,3,,,,,,,,,3278.409053206444,go,squareblack.png,right,0.5,,,,,,,,,,,,,,,,0.0017423853278160095,0.4896485134959221,,3280.9099107310176,test,2,,,,,,,,,3278.4277960658073,3278.924521483481,3278.924521483481,3278.9412657618523,3279.4253659024835,3279.9261732399464,3279.9261732399464,3280.927221544087,right,1,0.7959302142262459,0.5,,,,,,,,,,,s041,001,2024-09-27_10h10.06.182,simplestop_skeleton,2022.2.2,59.9369120053452,
None,None,,,,,,,,,1,0,1,0,11,1,45,3,,,,,,,,,3280.9103489890695,go,circleblack.png,left,0.5,,,,,,,,,,,,,,,,0.0017534121870994568,0.490035317838192,,3283.414526410401,test,2,,,,,,,,,3280.927221544087,3281.4266625717282,3281.4266625717282,3281.4427857548,3281.926515363157,3282.4270246997476,3282.4270246997476,3283.4362615421414,left,1,0.7452829629182816,0.5,,,,,,,,,,,s041,001,2024-09-27_10h10.06.182,simplestop_skeleton,2022.2.2,59.9369120053452,
None,None,,,,,,,,,1,0,1,0,11,2,46,1,,,,,,,,,3283.415106713772,go,circleblack.png,left,0.5,,,,,,,,,,,,,,,,0.0013530328869819641,0.48589693009853363,,3285.9154784679413,test,2,,,,,,,,,3283.4362615421414,3283.930177092552,3283.930177092552,3283.947039358318,3284.4307105392218,3284.9315647631884,3284.9315647631884,3285.934041969478,left,1,0.8435507267713547,0.5,,,,,,,,,,,s041,001,2024-09-27_10h10.06.182,simplestop_skeleton,2022.2.2,59.9369120053452,
None,None,,,,,,,,,1,0,1,0,11,3,47,2,,,,,,,,,3285.9159255474806,stop,squareblack.png,right,0.5,,,,,,,,,,,,,,,,0.0016090869903564453,0.48896513879299164,0.9890342131257057,3288.419655494392,test,2,,,,,,,,,3285.934041969478,3286.431923829019,3286.431923829019,3286.448288872838,3286.9320043101907,3287.432625696063,3287.432625696063,3288.439664363861,right,1,0.7780848070979118,0.45,,,,,,,,,,,s041,001,2024-09-27_10h10.06.182,simplestop_skeleton,2022.2.2,59.9369120053452,
,,,,,,,,,,1,0,1,0,,,,,,,,,,,,,,,,,,,,,,,,,,,,,,,,,,,,,,,,,,,,,,,,,,,,,,,,,,,3288.439664363861,3288.439664363861,return,3.2557397708296776,"[{'fileName': 'squareblack.png', 'correct_response': 'right', 'condition': 'stop'}, {'fileName': 'circleblack.png', 'correct_response': 'left', 'condition': 'stop'}, {'fileName': 'circleblack.png', 'correct_response': 'left', 'condition': 'go'}, {'fileName': 'squareblack.png', 'correct_response': 'right', 'condition': 'go'}, {'fileName': 'squareblack.png', 'correct_response': 'right', 'condition': 'go'}, {'fileName': 'squareblack.png', 'correct_response': 'right', 'condition': 'go'}, {'fileName': 'circleblack.png', 'correct_response': 'left', 'condition': 'go'}, {'fileName': 'squareblack.png', 'correct_response': 'right', 'condition': 'go'}, {'fileName': 'circleblack.png', 'correct_response': 'left', 'condition': 'go'}, {'fileName': 'circleblack.png', 'correct_response': 'left', 'condition': 'go'}, {'fileName': 'squareblack.png', 'correct_response': 'right', 'condition': 'stop'}, {'fileName': 'circleblack.png', 'correct_response': 'left', 'condition': 'stop'}, {'fileName': 'circleblack.png', 'correct_response': 'left', 'condition': 'go'}, {'fileName': 'squareblack.png', 'correct_response': 'right', 'condition': 'go'}, {'fileName': 'circleblack.png', 'correct_response': 'left', 'condition': 'go'}, {'fileName': 'circleblack.png', 'correct_response': 'left', 'condition': 'stop'}, {'fileName': 'circleblack.png', 'correct_response': 'left', 'condition': 'go'}, {'fileName': 'squareblack.png', 'correct_response': 'right', 'condition': 'go'}, {'fileName': 'circleblack.png', 'correct_response': 'left', 'condition': 'go'}, {'fileName': 'circleblack.png', 'correct_response': 'left', 'condition': 'stop'}, {'fileName': 'squareblack.png', 'correct_response': 'right', 'condition': 'go'}, {'fileName': 'squareblack.png', 'correct_response': 'right', 'condition': 'go'}, {'fileName': 'squareblack.png', 'correct_response': 'right', 'condition': 'stop'}, {'fileName': 'squareblack.png', 'correct_response': 'right', 'condition': 'stop'}, {'fileName': 'squareblack.png', 'correct_response': 'right', 'condition': 'go'}, {'fileName': 'circleblack.png', 'correct_response': 'left', 'condition': 'go'}, {'fileName': 'circleblack.png', 'correct_response': 'left', 'condition': 'go'}, {'fileName': 'squareblack.png', 'correct_response': 'right', 'condition': 'stop'}, {'fileName': 'squareblack.png', 'correct_response': 'right', 'condition': 'go'}, {'fileName': 'squareblack.png', 'correct_response': 'right', 'condition': 'stop'}, {'fileName': 'circleblack.png', 'correct_response': 'left', 'condition': 'stop'}, {'fileName': 'squareblack.png', 'correct_response': 'right', 'condition': 'go'}, {'fileName': 'circleblack.png', 'correct_response': 'left', 'condition': 'go'}, {'fileName': 'squareblack.png', 'correct_response': 'right', 'condition': 'go'}, {'fileName': 'circleblack.png', 'correct_response': 'left', 'condition': 'stop'}, {'fileName': 'circleblack.png', 'correct_response': 'left', 'condition': 'go'}, {'fileName': 'circleblack.png', 'correct_response': 'left', 'condition': 'go'}, {'fileName': 'squareblack.png', 'correct_response': 'right', 'condition': 'stop'}, {'fileName': 'circleblack.png', 'correct_response': 'left', 'condition': 'stop'}, {'fileName': 'squareblack.png', 'correct_response': 'right', 'condition': 'go'}, {'fileName': 'circleblack.png', 'correct_response': 'left', 'condition': 'stop'}, {'fileName': 'circleblack.png', 'correct_response': 'left', 'condition': 'go'}, {'fileName': 'squareblack.png', 'correct_response': 'right', 'condition': 'go'}, {'fileName': 'squareblack.png', 'correct_response': 'right', 'condition': 'go'}, {'fileName': 'squareblack.png', 'correct_response': 'right', 'condition': 'stop'}, {'fileName': 'circleblack.png', 'correct_response': 'left', 'condition': 'go'}, {'fileName': 'circleblack.png', 'correct_response': 'left', 'condition': 'go'}, {'fileName': 'squareblack.png', 'correct_response': 'right', 'condition': 'go'}]",,,,,,s041,001,2024-09-27_10h10.06.182,simplestop_skeleton,2022.2.2,59.9369120053452,
None,None,,,,,,,,,2,0,2,0,0,0,0,2,,,,,,,,,3291.7305339351296,stop,squareblack.png,right,0.45,,,,,,,,,,,,,,,,0.0012474581599235535,0.49738693982362747,0.9479820877313614,3294.243081703782,test,3,,,,,,,,,3291.748894996941,3292.2546184435487,3292.2546184435487,3292.2546184435487,3292.7051789835095,3293.2056563049555,3293.2562152966857,3294.2627405300736,right,1,0.6056649908423424,0.4,,,,,,,,,,,s041,001,2024-09-27_10h10.06.182,simplestop_skeleton,2022.2.2,59.9369120053452,
$currentCorrectResponse,$currentGoStim,,,,,,,,,2,0,2,0,0,1,1,0,,,,,,,,,3294.243631400168,stop,circleblack.png,left,0.4,,,,,,,,,,,,,,,,0.0026446282863616943,0.4893167167901993,0.8896232396364212,3296.745716765523,test,3,,,,,,,,,3294.2627405300736,3294.7587072476745,3294.7587072476745,3294.77545876801,3295.159076310694,3295.659753471613,3295.75987996161,3296.764845497906,None,0,,0.45,,,,,,,,,,,s041,001,2024-09-27_10h10.06.182,simplestop_skeleton,2022.2.2,59.9369120053452,
$currentCorrectResponse,$currentGoStim,,,,,,,,,2,0,2,0,0,2,2,0,,,,,,,,,3296.746143504977,go,circleblack.png,left,0.45,,,,,,,,,,,,,,,,0.0014123693108558655,0.48935680091381073,,3299.2470679432154,test,3,,,,,,,,,3296.764845497906,3297.261651456356,3297.261651456356,3297.278118416667,3297.712059147656,3298.2126901745796,3298.262648180127,3299.264834150672,left,1,1.0750813707709312,0.45,,,,,,,,,,,s041,001,2024-09-27_10h10.06.182,simplestop_skeleton,2022.2.2,59.9369120053452,
$currentCorrectResponse,$currentGoStim,,,,,,,,,2,0,2,0,0,3,3,0,,,,,,,,,3299.2475111186504,go,squareblack.png,right,0.45,,,,,,,,,,,,,,,,0.0017889216542243958,0.4890024736523628,,3301.7502657473087,test,3,,,,,,,,,3299.264834150672,3299.7627638801932,3299.7627638801932,3299.7794205471873,3300.213443800807,3300.713844448328,3300.7639832496643,3301.767805568874,right,1,0.5480810254812241,0.45,,,,,,,,,,,s041,001,2024-09-27_10h10.06.182,simplestop_skeleton,2022.2.2,59.9369120053452,
None,None,,,,,,,,,2,0,2,0,1,0,4,3,,,,,,,,,3301.750694423914,go,squareblack.png,right,0.45,,,,,,,,,,,,,,,,0.001229807734489441,0.49032580852508545,,3304.252497226,test,3,,,,,,,,,3301.767805568874,3302.266854405403,3302.266854405403,3302.266854405403,3302.7177338525653,3303.2181438207626,3303.2684326842427,3304.269220776856,right,1,0.8435634598135948,0.45,,,,,,,,,,,s041,001,2024-09-27_10h10.06.182,simplestop_skeleton,2022.2.2,59.9369120053452,
None,None,,,,,,,,,2,0,2,0,1,1,5,2,,,,,,,,,3304.2529287412763,go,squareblack.png,right,0.45,,,,,,,,,,,,,,,,0.0011875554919242859,0.4916318878531456,,3306.7563999965787,test,3,,,,,,,,,3304.269220776856,3304.7683131098747,3304.7683131098747,3304.7683131098747,3305.218800663948,3305.7194739431143,3305.769552975893,3306.7773955762386,right,1,0.5275998190045357,0.45,,,,,,,,,,,s041,001,2024-09-27_10h10.06.182,simplestop_skeleton,2022.2.2,59.9369120053452,
$currentCorrectResponse,$currentGoStim,,,,,,,,,2,0,2,0,1,2,6,0,,,,,,,,,3306.756823129952,go,circleblack.png,left,0.45,,,,,,,,,,,,,,,,0.0020959079265594482,0.4900365620851517,,3309.25779851526,test,3,,,,,,,,,3306.7773955762386,3307.2724405303597,3307.2724405303597,3307.289087355137,3307.7229167819023,3308.222151502967,3308.2722740396857,3309.2751393020153,left,1,0.5346792638301849,0.45,,,,,,,,,,,s041,001,2024-09-27_10h10.06.182,simplestop_skeleton,2022.2.2,59.9369120053452,
None,None,,,,,,,,,2,0,2,0,1,3,7,2,,,,,,,,,3309.258261486888,go,squareblack.png,right,0.45,,,,,,,,,,,,,,,,0.001621052622795105,0.48945244401693344,,3311.761857531965,test,3,,,,,,,,,3309.2751393020153,3309.7738200202584,3309.7738200202584,3309.7904550880194,3310.2243464142084,3310.7248988375068,3310.774957790971,3311.7815546020865,right,1,0.8780967816710472,0.45,,,,,,,,,,,s041,001,2024-09-27_10h10.06.182,simplestop_skeleton,2022.2.2,59.9369120053452,
None,None,,,,,,,,,2,0,2,0,2,0,8,3,,,,,,,,,3311.762281909585,go,circleblack.png,left,0.45,,,,,,,,,,,,,,,,0.0018934383988380432,0.48982643336057663,,3314.2632681280375,test,3,,,,,,,,,3311.7815546020865,3312.278179310262,3312.278179310262,3312.2946068793535,3312.7285093590617,3313.2294190898538,3313.2796369343996,3314.280128479004,left,1,0.7931530177593231,0.45,,,,,,,,,,,s041,001,2024-09-27_10h10.06.182,simplestop_skeleton,2022.2.2,59.9369120053452,
$currentCorrectResponse,$currentGoStim,,,,,,,,,2,0,2,0,2,1,9,0,,,,,,,,,3314.2637153565884,go,circleblack.png,left,0.45,,,,,,,,,,,,,,,,0.001235373318195343,0.49058303236961365,,3316.767430871725,test,3,,,,,,,,,3314.280128479004,3314.7795618698,3314.7795618698,3314.7795618698,3315.229825772345,3315.7305189073086,3315.780508212745,3316.786702543497,right,0,0.14568931609392166,0.45,,,,,,,,,,,s041,001,2024-09-27_10h10.06.182,simplestop_skeleton,2022.2.2,59.9369120053452,
None,None,,,,,,,,,2,0,2,0,2,2,10,3,,,,,,,,,3316.767860211432,stop,squareblack.png,right,0.45,,,,,,,,,,,,,,,,0.0016751214861869812,0.4897863119840622,0.9408403113484383,3319.2698482722044,test,3,,,,,,,,,3316.786702543497,3317.2834558188915,3317.2834558188915,3317.300179488957,3317.7344793751836,3318.249755255878,3318.28334826231,3319.287197627127,None,0,,0.5,,,,,,,,,,,s041,001,2024-09-27_10h10.06.182,simplestop_skeleton,2022.2.2,59.9369120053452,
$currentCorrectResponse,$currentGoStim,,,,,,,,,2,0,2,0,2,3,11,0,,,,,,,,,3319.2702899873257,stop,circleblack.png,left,0.5,,,,,,,,,,,,,,,,0.0019462257623672485,0.4901067689061165,0.9905401766300201,3321.773053109646,test,3,,,,,,,,,3319.287197627127,3319.7861640006304,3319.7861640006304,3319.8031441122293,3320.28692355752,3320.7874115109444,3320.7874115109444,3321.7918343022466,None,0,,0.55,,,,,,,,,,,s041,001,2024-09-27_10h10.06.182,simplestop_skeleton,2022.2.2,59.9369120053452,
None,None,,,,,,,,,2,0,2,0,3,0,12,3,,,,,,,,,3321.773477360606,go,circleblack.png,left,0.55,,,,,,,,,,,,,,,,0.0012937039136886597,0.4897214025259018,,3324.2743229717016,test,3,,,,,,,,,3321.7918343022466,3322.289450123906,3322.289450123906,3322.305749975145,3322.839738100767,3323.355502165854,3323.288918182254,3324.2917070016265,left,1,0.6525755375623703,0.55,,,,,,,,,,,s041,001,2024-09-27_10h10.06.182,simplestop_skeleton,2022.2.2,59.9369120053452,
None,None,,,,,,,,,2,0,2,0,3,1,13,3,,,,,,,,,3324.2747564315796,go,squareblack.png,right,0.55,,,,,,,,,,,,,,,,0.0016139447689056396,0.4897557199001312,,3326.7787879258394,test,3,,,,,,,,,3324.2917070016265,3324.790517486632,3324.790517486632,3324.80720051378,3325.341281428933,3325.8416125252843,3325.791481502354,3326.799082696438,right,1,0.6861642897129059,0.55,,,,,,,,,,,s041,001,2024-09-27_10h10.06.182,simplestop_skeleton,2022.2.2,59.9369120053452,
None,None,,,,,,,,,2,0,2,0,3,2,14,3,,,,,,,,,3326.7792430222034,go,circleblack.png,left,0.55,,,,,,,,,,,,,,,,0.002474367618560791,0.4883784204721451,,3329.2801883146167,test,3,,,,,,,,,3326.799082696438,3327.2945289611816,3327.2945289611816,3327.311275601387,3327.845659442246,3328.3461101725698,3328.2961502224207,3329.2978035882115,left,1,0.844890832901001,0.55,,,,,,,,,,,s041,001,2024-09-27_10h10.06.182,simplestop_skeleton,2022.2.2,59.9369120053452,
None,None,,,,,,,,,2,0,2,0,3,3,15,3,,,,,,,,,3329.2806885913014,stop,circleblack.png,left,0.55,,,,,,,,,,,,,,,,0.0012846216559410095,0.4890686273574829,1.039674125611782,3331.784040622413,test,3,,,,,,,,,3329.2978035882115,3329.7959237918258,3329.7959237918258,3329.8131367340684,3330.346517048776,3330.8473472222686,3330.797146946192,3331.8028258234262,None,0,,0.6,,,,,,,,,,,s041,001,2024-09-27_10h10.06.182,simplestop_skeleton,2022.2.2,59.9369120053452,
None,None,,,,,,,,,2,0,2,0,4,0,16,2,,,,,,,,,3331.784481652081,go,circleblack.png,left,0.6,,,,,,,,,,,,,,,,0.0012514516711235046,0.4897765964269638,,3334.285410195589,test,3,,,,,,,,,3331.8028258234262,3332.3001894280314,3332.3001894280314,3332.3168578073382,3332.9008000418544,3333.4000123366714,3333.301692649722,3334.3074738308787,left,1,0.7353424355387688,0.6,,,,,,,,,,,s041,001,2024-09-27_10h10.06.182,simplestop_skeleton,2022.2.2,59.9369120053452,
None,None,,,,,,,,,2,0,2,0,4,1,17,1,,,,,,,,,3334.285845309496,go,squareblack.png,right,0.6,,,,,,,,,,,,,,,,0.007412269711494446,0.49062588065862656,,3336.789594888687,test,3,,,,,,,,,3334.3074738308787,3334.801672078669,3334.801672078669,3334.8184273689985,3335.402113750577,3335.9027651175857,3335.8026334643364,3336.8089186921716,right,1,1.2504613474011421,0.6,,,,,,,,,,,s041,001,2024-09-27_10h10.06.182,simplestop_skeleton,2022.2.2,59.9369120053452,
None,None,,,,,,,,,2,0,2,0,4,2,18,1,,,,,,,,,3336.7900241315365,go,circleblack.png,left,0.6,,,,,,,,,,,,,,,,0.001867137849330902,0.4897424206137657,,3339.291192010045,test,3,,,,,,,,,3336.8089186921716,3337.3056169748306,3337.3056169748306,3337.3223777115345,3337.9059189260006,3338.4073219895363,3338.3072140440345,3339.308324061334,left,1,0.8962071090936661,0.6,,,,,,,,,,,s041,001,2024-09-27_10h10.06.182,simplestop_skeleton,2022.2.2,59.9369120053452,
$currentCorrectResponse,$currentGoStim,,,,,,,,,2,0,2,0,4,3,19,0,,,,,,,,,3339.291634902358,stop,circleblack.png,left,0.6,,,,,,,,,,,,,,,,0.0013585388660430908,0.4891929477453232,1.0898874923586845,3341.795160599053,test,3,,,,,,,,,3339.308324061334,3339.807000823319,3339.807000823319,3339.824874982238,3340.4077139124274,3340.9081958159804,3340.808340623975,3341.819142304361,left,1,0.6710513308644295,0.55,,,,,,,,,,,s041,001,2024-09-27_10h10.06.182,simplestop_skeleton,2022.2.2,59.9369120053452,
None,None,,,,,,,,,2,0,2,0,5,0,20,1,,,,,,,,,3341.7955890521407,go,squareblack.png,right,0.55,,,,,,,,,,,,,,,,0.007083505392074585,0.48983949422836304,,3344.296498529613,test,3,,,,,,,,,3341.819142304361,3342.3112343773246,3342.3112343773246,3342.327722027898,3342.8617927357554,3343.362727187574,3343.312697790563,3344.3132496774197,right,1,0.7403362095355988,0.55,,,,,,,,,,,s041,001,2024-09-27_10h10.06.182,simplestop_skeleton,2022.2.2,59.9369120053452,
$currentCorrectResponse,$currentGoStim,,,,,,,,,2,0,2,0,5,1,21,0,,,,,,,,,3344.2969490364194,go,squareblack.png,right,0.55,,,,,,,,,,,,,,,,0.0011753812432289124,0.48941846936941147,,3346.800729431212,test,3,,,,,,,,,3344.3132496774197,3344.812436170876,3344.812436170876,3344.812436170876,3345.3630635365844,3345.8636355549097,3345.8138075247407,3346.8194776400924,right,1,1.0219734609127045,0.55,,,,,,,,,,,s041,001,2024-09-27_10h10.06.182,simplestop_skeleton,2022.2.2,59.9369120053452,
None,None,,,,,,,,,2,0,2,0,5,2,22,1,,,,,,,,,3346.8011509999633,stop,squareblack.png,right,0.55,,,,,,,,,,,,,,,,0.0012442246079444885,0.48959263414144516,1.0403588861227036,3349.303084179759,test,3,,,,,,,,,3346.8194776400924,3347.316701747477,3347.316701747477,3347.333410091698,3347.8658116161823,3348.366338081658,3348.3164684697986,3349.3200140446424,right,1,1.5439260005950928,0.5,,,,,,,,,,,s041,001,2024-09-27_10h10.06.182,simplestop_skeleton,2022.2.2,59.9369120053452,
None,None,,,,,,,,,2,0,2,0,5,3,23,1,,,,,,,,,3349.3035342246294,stop,squareblack.png,right,0.5,,,,,,,,,,,,,,,,0.0012518912553787231,0.4900473579764366,0.9906783252954483,3351.804876796901,test,3,,,,,,,,,3349.3200140446424,3349.8193238973618,3349.8193238973618,3349.8193238973618,3350.3201562166214,3350.8191185593605,3350.8191185593605,3351.8215927928686,right,1,0.5920803621411324,0.45,,,,,,,,,,,s041,001,2024-09-27_10h10.06.182,simplestop_skeleton,2022.2.2,59.9369120053452,
None,None,,,,,,,,,2,0,2,0,6,0,24,2,,,,,,,,,3351.8053108155727,go,squareblack.png,right,0.45,,,,,,,,,,,,,,,,0.0012074857950210571,0.48975830525159836,,3354.309026353061,test,3,,,,,,,,,3351.8215927928686,3352.3210412859917,3352.3210412859917,3352.3210412859917,3352.7713557705283,3353.2719081118703,3353.3218127414584,3354.3344372808933,left,0,0.3981642425060272,0.45,,,,,,,,,,,s041,001,2024-09-27_10h10.06.182,simplestop_skeleton,2022.2.2,59.9369120053452,
None,None,,,,,,,,,2,0,2,0,6,1,25,2,,,,,,,,,3354.3094802871346,go,circleblack.png,left,0.45,,,,,,,,,,,,,,,,0.008679218590259552,0.48984360694885254,,3356.810306236148,test,3,,,,,,,,,3354.3344372808933,3354.824943371117,3354.824943371117,3354.8417314589024,3355.275761730969,3355.7913236171007,3355.82480494678,3356.8272464573383,left,1,0.5276437997817993,0.45,,,,,,,,,,,s041,001,2024-09-27_10h10.06.182,simplestop_skeleton,2022.2.2,59.9369120053452,
$currentCorrectResponse,$currentGoStim,,,,,,,,,2,0,2,0,6,2,26,0,,,,,,,,,3356.8109225034714,go,circleblack.png,left,0.45,,,,,,,,,,,,,,,,0.001242801547050476,0.4898403510451317,,3359.3145369291306,test,3,,,,,,,,,3356.8272464573383,3357.3264346048236,3357.3264346048236,3357.3264346048236,3357.776867777109,3358.277379460633,3358.3274917006493,3359.334284476936,left,1,0.4682993143796921,0.45,,,,,,,,,,,s041,001,2024-09-27_10h10.06.182,simplestop_skeleton,2022.2.2,59.9369120053452,
None,None,,,,,,,,,2,0,2,0,6,3,27,1,,,,,,,,,3359.3149619996548,stop,squareblack.png,right,0.45,,,,,,,,,,,,,,,,0.0018030256032943726,0.48961833864450455,0.9399630203843117,3361.8160703629255,test,3,,,,,,,,,3359.334284476936,3359.8306398689747,3359.8306398689747,3359.847288005054,3360.281246520579,3360.780341103673,3360.8306768015027,3361.832778722048,right,1,0.62855663895607,0.4,,,,,,,,,,,s041,001,2024-09-27_10h10.06.182,simplestop_skeleton,2022.2.2,59.9369120053452,
None,None,,,,,,,,,2,0,2,0,7,0,28,1,,,,,,,,,3361.816502980888,go,squareblack.png,right,0.4,,,,,,,,,,,,,,,,0.0012439265847206116,0.48974452167749405,,3364.320372015238,test,3,,,,,,,,,3361.832778722048,3362.3323968425393,3362.3323968425393,3362.3323968425393,3362.7323534563184,3363.2328888252378,3363.332998588681,3364.3395119458437,right,1,0.9185013845562935,0.4,,,,,,,,,,,s041,001,2024-09-27_10h10.06.182,simplestop_skeleton,2022.2.2,59.9369120053452,
None,None,,,,,,,,,2,0,2,0,7,1,29,3,,,,,,,,,3364.32080745697,stop,squareblack.png,right,0.4,,,,,,,,,,,,,,,,0.0013167038559913635,0.4892651289701462,0.8897294402122498,3366.822886645794,test,3,,,,,,,,,3364.3395119458437,3364.8364443033934,3364.8364443033934,3364.852756999433,3365.2365616336465,3365.7373163998127,3365.837330043316,3366.842255435884,None,0,,0.45,,,,,,,,,,,s041,001,2024-09-27_10h10.06.182,simplestop_skeleton,2022.2.2,59.9369120053452,
None,None,,,,,,,,,2,0,2,0,7,2,30,2,,,,,,,,,3366.823361285031,stop,circleblack.png,left,0.45,,,,,,,,,,,,,,,,0.002063162624835968,0.4896998256444931,0.940230093896389,3369.3255547583103,test,3,,,,,,,,,3366.842255435884,3367.3392027765512,3367.3392027765512,3367.355647034943,3367.789446413517,3368.2903152927756,3368.3399367257953,3369.3448517397046,None,0,,0.5,,,,,,,,,,,s041,001,2024-09-27_10h10.06.182,simplestop_skeleton,2022.2.2,59.9369120053452,
None,None,,,,,,,,,2,0,2,0,7,3,31,3,,,,,,,,,3369.3260090872645,go,squareblack.png,right,0.5,,,,,,,,,,,,,,,,0.0016983523964881897,0.4897127076983452,,3371.8270567655563,test,3,,,,,,,,,3369.3448517397046,3369.84192430228,3369.84192430228,3369.858225233853,3370.3422126471996,3370.842971034348,3370.842971034348,3371.8451154232025,right,1,0.822854645550251,0.5,,,,,,,,,,,s041,001,2024-09-27_10h10.06.182,simplestop_skeleton,2022.2.2,59.9369120053452,
None,None,,,,,,,,,2,0,2,0,8,0,32,3,,,,,,,,,3371.8275210931897,go,circleblack.png,left,0.5,,,,,,,,,,,,,,,,0.0016986578702926636,0.4890480637550354,,3374.330333419144,test,3,,,,,,,,,3371.8451154232025,3372.343693256378,3372.343693256378,3372.3685647025704,3372.8435530140996,3373.344751432538,3373.344751432538,3374.348152972758,left,1,0.9289460778236389,0.5,,,,,,,,,,,s041,001,2024-09-27_10h10.06.182,simplestop_skeleton,2022.2.2,59.9369120053452,
None,None,,,,,,,,,2,0,2,0,8,1,33,2,,,,,,,,,3374.330759704113,go,squareblack.png,right,0.5,,,,,,,,,,,,,,,,0.0016495957970619202,0.4907413348555565,,3376.8323597684503,test,3,,,,,,,,,3374.348152972758,3374.847307600081,3374.847307600081,3374.847307600081,3375.3478659540415,3375.8636434972286,3375.846979044378,3376.84955316782,right,1,0.6649181768298149,0.5,,,,,,,,,,,s041,001,2024-09-27_10h10.06.182,simplestop_skeleton,2022.2.2,59.9369120053452,
$currentCorrectResponse,$currentGoStim,,,,,,,,,2,0,2,0,8,2,34,0,,,,,,,,,3376.8328146636486,stop,circleblack.png,left,0.5,,,,,,,,,,,,,,,,0.0017768070101737976,0.4898725003004074,0.9903160259127617,3379.336597315967,test,3,,,,,,,,,3376.84955316782,3377.3486051261425,3377.3486051261425,3377.3652801141143,3377.849101677537,3378.3495436757803,3378.3495436757803,3379.35570923239,None,0,,0.55,,,,,,,,,,,s041,001,2024-09-27_10h10.06.182,simplestop_skeleton,2022.2.2,59.9369120053452,
None,None,,,,,,,,,2,0,2,0,8,3,35,1,,,,,,,,,3379.3370350524783,go,circleblack.png,left,0.55,,,,,,,,,,,,,,,,0.0013587996363639832,0.4896222725510597,,3381.8381374701858,test,3,,,,,,,,,3379.35570923239,3379.85267560184,3379.85267560184,3379.8693574145436,3380.403376944363,3380.903773345053,3380.853696092963,3381.855379574001,left,1,0.9769632890820503,0.55,,,,,,,,,,,s041,001,2024-09-27_10h10.06.182,simplestop_skeleton,2022.2.2,59.9369120053452,
None,None,,,,,,,,,2,0,2,0,9,0,36,1,,,,,,,,,3381.8385706469417,go,circleblack.png,left,0.55,,,,,,,,,,,,,,,,0.001268342137336731,0.4892582669854164,,3384.341618768871,test,3,,,,,,,,,3381.855379574001,3382.353964962065,3382.353964962065,3382.3706750422716,3382.9045881703496,3383.4050849452615,3383.355400852859,3384.360115148127,left,1,0.6930349320173264,0.55,,,,,,,,,,,s041,001,2024-09-27_10h10.06.182,simplestop_skeleton,2022.2.2,59.9369120053452,
None,None,,,,,,,,,2,0,2,0,9,1,37,2,,,,,,,,,3384.34206353873,stop,squareblack.png,right,0.55,,,,,,,,,,,,,,,,0.002765752375125885,0.49006569385528564,1.040676325559616,3386.843402609229,test,3,,,,,,,,,3384.360115148127,3384.858088262379,3384.858088262379,3384.8745614513755,3385.4087300747633,3385.9081194102764,3385.859491929412,3386.8607411012053,right,1,0.7463129460811615,0.5,,,,,,,,,,,s041,001,2024-09-27_10h10.06.182,simplestop_skeleton,2022.2.2,59.9369120053452,
None,None,,,,,,,,,2,0,2,0,9,2,38,1,,,,,,,,,3386.843867443502,stop,circleblack.png,left,0.5,,,,,,,,,,,,,,,,0.001797802746295929,0.48965827375650406,0.9901891946792603,3389.3479379937053,test,3,,,,,,,,,3386.8607411012053,3387.3593619018793,3387.3593619018793,3387.376120559871,3387.85999456048,3388.3606435135007,3388.3606435135007,3389.367194466293,left,1,0.5532452240586281,0.45,,,,,,,,,,,s041,001,2024-09-27_10h10.06.182,simplestop_skeleton,2022.2.2,59.9369120053452,
$currentCorrectResponse,$currentGoStim,,,,,,,,,2,0,2,0,9,3,39,0,,,,,,,,,3389.3483954668045,go,squareblack.png,right,0.45,,,,,,,,,,,,,,,,0.0017382502555847168,0.48960623145103455,,3391.849188938737,test,3,,,,,,,,,3389.367194466293,3389.8639258518815,3389.8639258518815,3389.8806033432484,3390.3141858801246,3390.8150842040777,3390.8652391806245,3391.8674566447735,right,1,0.8181798011064529,0.45,,,,,,,,,,,s041,001,2024-09-27_10h10.06.182,simplestop_skeleton,2022.2.2,59.9369120053452,
None,None,,,,,,,,,2,0,2,0,10,0,40,3,,,,,,,,,3391.849661923945,stop,circleblack.png,left,0.45,,,,,,,,,,,,,,,,0.0020218566060066223,0.48914816230535507,0.9396795928478241,3394.3529550507665,test,3,,,,,,,,,3391.8674566447735,3392.365021340549,3392.365021340549,3392.3816942945123,3392.8155936673284,3393.316109202802,3393.3665894791484,3394.3698019608855,left,1,0.5544177815318108,0.4,,,,,,,,,,,s041,001,2024-09-27_10h10.06.182,simplestop_skeleton,2022.2.2,59.9369120053452,
$currentCorrectResponse,$currentGoStim,,,,,,,,,2,0,2,0,10,1,41,0,,,,,,,,,3394.3533880114555,go,circleblack.png,left,0.4,,,,,,,,,,,,,,,,0.0013117045164108276,0.4901656210422516,,3396.8546940758824,test,3,,,,,,,,,3394.3698019608855,3394.86930924654,3394.86930924654,3394.86930924654,3395.2685717344284,3395.7705893442035,3395.870497189462,3396.8722391426563,left,1,0.9408501386642456,0.4,,,,,,,,,,,s041,001,2024-09-27_10h10.06.182,simplestop_skeleton,2022.2.2,59.9369120053452,
None,None,,,,,,,,,2,0,2,0,10,2,42,2,,,,,,,,,3396.8551327735186,go,squareblack.png,right,0.4,,,,,,,,,,,,,,,,0.0016632229089736938,0.4892222508788109,,3399.3580402955413,test,3,,,,,,,,,3396.8722391426563,3397.3705964311957,3397.3705964311957,3397.3873686641455,3397.77115508914,3398.271676912904,3398.3717770278454,3399.3752446621656,right,1,1.0136840716004372,0.4,,,,,,,,,,,s041,001,2024-09-27_10h10.06.182,simplestop_skeleton,2022.2.2,59.9369120053452,
None,None,,,,,,,,,2,0,2,0,10,3,43,2,,,,,,,,,3399.3584778681397,go,squareblack.png,right,0.4,,,,,,,,,,,,,,,,0.0011977627873420715,0.49018074572086334,,3401.859917126596,test,3,,,,,,,,,3399.3752446621656,3399.874852269888,3399.874852269888,3399.874852269888,3400.275225572288,3400.7758336663246,3400.876083023846,3401.876693494618,right,1,0.8080464825034142,0.4,,,,,,,,,,,s041,001,2024-09-27_10h10.06.182,simplestop_skeleton,2022.2.2,59.9369120053452,
None,None,,,,,,,,,2,0,2,0,11,0,44,1,,,,,,,,,3401.860350884497,stop,squareblack.png,right,0.4,,,,,,,,,,,,,,,,0.001177869737148285,0.49069012701511383,0.8901458531618118,3404.364305846393,test,3,,,,,,,,,3401.876693494618,3402.3780415058136,3402.3780415058136,3402.3780415058136,3402.776404172182,3403.277133360505,3403.3771970272064,3404.383876889944,None,0,,0.45,,,,,,,,,,,s041,001,2024-09-27_10h10.06.182,simplestop_skeleton,2022.2.2,59.9369120053452,
None,None,,,,,,,,,2,0,2,0,11,1,45,1,,,,,,,,,3404.3647632822394,go,circleblack.png,left,0.45,,,,,,,,,,,,,,,,0.001976899802684784,0.4896138533949852,,3406.865601323545,test,3,,,,,,,,,3404.383876889944,3404.880380295217,3404.880380295217,3404.8972386419773,3405.330791115761,3405.831633359194,3405.881822794676,3406.882355734706,left,1,0.7511309385299683,0.45,,,,,,,,,,,s041,001,2024-09-27_10h10.06.182,simplestop_skeleton,2022.2.2,59.9369120053452,
None,None,,,,,,,,,2,0,2,0,11,2,46,3,,,,,,,,,3406.8660305812955,go,circleblack.png,left,0.45,,,,,,,,,,,,,,,,0.0012689605355262756,0.4896601513028145,,3409.369576640427,test,3,,,,,,,,,3406.882355734706,3407.3815939575434,3407.3815939575434,3407.3815939575434,3407.832199856639,3408.3328900188208,3408.3828542530537,3409.3888869434595,left,1,0.7983846738934517,0.45,,,,,,,,,,,s041,001,2024-09-27_10h10.06.182,simplestop_skeleton,2022.2.2,59.9369120053452,
None,None,,,,,,,,,2,0,2,0,11,3,47,2,,,,,,,,,3409.3700040876865,go,squareblack.png,right,0.45,,,,,,,,,,,,,,,,0.0016455426812171936,0.48976337164640427,,3411.8727153912187,test,3,,,,,,,,,3409.3888869434595,3409.885610230267,3409.885610230267,3409.902404539287,3410.336379483342,3410.8374047726393,3410.8857164010406,3411.891676388681,right,1,0.6925319582223892,0.45,,,,,,,,,,,s041,001,2024-09-27_10h10.06.182,simplestop_skeleton,2022.2.2,59.9369120053452,
