corrGoResp,shape,practiceBlocks.thisRepN,practiceBlocks.thisTrialN,practiceBlocks.thisN,practiceBlocks.thisIndex,practiceTrials.thisRepN,practiceTrials.thisTrialN,practiceTrials.thisN,practiceTrials.thisIndex,stopBlocks.thisRepN,stopBlocks.thisTrialN,stopBlocks.thisN,stopBlocks.thisIndex,testTrials.thisRepN,testTrials.thisTrialN,testTrials.thisN,testTrials.thisIndex,stopPracTrialList,Test Block: 1,welcome.started,start_exp.started,start_exp.keys,start_exp.rt,instrStopText.started,start_prac.started,StartTrialTimeStamp,trialType,goStim,correctResponse,ssd,fixation.started,rules.started,goStim.started,goResp.started,fixation.stopped,stopSignal.started,stopSignal.stopped,goStim.stopped,goResp.stopped,rules.stopped,goResp.keys,goResp.corr,text.started,rules_2.started,fixationOnset,goStimOnset,stopSignalOnset,EndTrialTimeStamp,Phase,Block,goResp.rt,text.stopped,rules_2.stopped,text_5.started,key_resp_3.started,key_resp_3.keys,key_resp_3.rt,key_resp.started,testText.started,test_fixation.started,goStim_test.started,goResp_test.started,test_fixation.stopped,stopSignal_test.started,stopSignal_test.stopped,goStim_test.stopped,goResp_test.stopped,goResp_test.keys,goResp_test.corr,goResp_test.rt,EndingSSD,text_6.started,key_resp_4.started,key_resp_4.keys,key_resp_4.rt,Test Block: 2,Test Block: 3,ending_text.started,end_resp.started,end_resp.keys,end_resp.rt,participant,session,date,expName,psychopyVersion,frameRate,
,,,,,,,,,,,,,,,,,,"[{'fileName': 'squareblack.png', 'correct_response': 'right', 'condition': 'stop'}, {'fileName': 'squareblack.png', 'correct_response': 'right', 'condition': 'go'}, {'fileName': 'squareblack.png', 'correct_response': 'right', 'condition': 'go'}, {'fileName': 'circleblack.png', 'correct_response': 'left', 'condition': 'go'}, {'fileName': 'circleblack.png', 'correct_response': 'left', 'condition': 'go'}, {'fileName': 'squareblack.png', 'correct_response': 'right', 'condition': 'go'}, {'fileName': 'circleblack.png', 'correct_response': 'left', 'condition': 'stop'}, {'fileName': 'squareblack.png', 'correct_response': 'right', 'condition': 'stop'}, {'fileName': 'circleblack.png', 'correct_response': 'left', 'condition': 'go'}, {'fileName': 'circleblack.png', 'correct_response': 'left', 'condition': 'stop'}, {'fileName': 'circleblack.png', 'correct_response': 'left', 'condition': 'go'}, {'fileName': 'squareblack.png', 'correct_response': 'right', 'condition': 'go'}, {'fileName': 'circleblack.png', 'correct_response': 'left', 'condition': 'go'}, {'fileName': 'circleblack.png', 'correct_response': 'left', 'condition': 'go'}, {'fileName': 'squareblack.png', 'correct_response': 'right', 'condition': 'stop'}, {'fileName': 'squareblack.png', 'correct_response': 'right', 'condition': 'go'}, {'fileName': 'squareblack.png', 'correct_response': 'right', 'condition': 'go'}, {'fileName': 'squareblack.png', 'correct_response': 'right', 'condition': 'go'}, {'fileName': 'circleblack.png', 'correct_response': 'left', 'condition': 'go'}, {'fileName': 'circleblack.png', 'correct_response': 'left', 'condition': 'go'}, {'fileName': 'squareblack.png', 'correct_response': 'right', 'condition': 'go'}, {'fileName': 'squareblack.png', 'correct_response': 'right', 'condition': 'stop'}, {'fileName': 'circleblack.png', 'correct_response': 'left', 'condition': 'stop'}, {'fileName': 'circleblack.png', 'correct_response': 'left', 'condition': 'stop'}]","[{'fileName': 'squareblack.png', 'correct_response': 'right', 'condition': 'go'}, {'fileName': 'circleblack.png', 'correct_response': 'left', 'condition': 'go'}, {'fileName': 'squareblack.png', 'correct_response': 'right', 'condition': 'stop'}, {'fileName': 'squareblack.png', 'correct_response': 'right', 'condition': 'stop'}, {'fileName': 'circleblack.png', 'correct_response': 'left', 'condition': 'go'}, {'fileName': 'circleblack.png', 'correct_response': 'left', 'condition': 'go'}, {'fileName': 'circleblack.png', 'correct_response': 'left', 'condition': 'go'}, {'fileName': 'squareblack.png', 'correct_response': 'right', 'condition': 'go'}, {'fileName': 'circleblack.png', 'correct_response': 'left', 'condition': 'stop'}, {'fileName': 'squareblack.png', 'correct_response': 'right', 'condition': 'go'}, {'fileName': 'squareblack.png', 'correct_response': 'right', 'condition': 'go'}, {'fileName': 'circleblack.png', 'correct_response': 'left', 'condition': 'stop'}, {'fileName': 'squareblack.png', 'correct_response': 'right', 'condition': 'stop'}, {'fileName': 'squareblack.png', 'correct_response': 'right', 'condition': 'go'}, {'fileName': 'circleblack.png', 'correct_response': 'left', 'condition': 'go'}, {'fileName': 'circleblack.png', 'correct_response': 'left', 'condition': 'go'}, {'fileName': 'circleblack.png', 'correct_response': 'left', 'condition': 'stop'}, {'fileName': 'circleblack.png', 'correct_response': 'left', 'condition': 'go'}, {'fileName': 'circleblack.png', 'correct_response': 'left', 'condition': 'go'}, {'fileName': 'squareblack.png', 'correct_response': 'right', 'condition': 'go'}, {'fileName': 'circleblack.png', 'correct_response': 'left', 'condition': 'stop'}, {'fileName': 'squareblack.png', 'correct_response': 'right', 'condition': 'go'}, {'fileName': 'squareblack.png', 'correct_response': 'right', 'condition': 'go'}, {'fileName': 'squareblack.png', 'correct_response': 'right', 'condition': 'stop'}, {'fileName': 'circleblack.png', 'correct_response': 'left', 'condition': 'go'}, {'fileName': 'circleblack.png', 'correct_response': 'left', 'condition': 'go'}, {'fileName': 'squareblack.png', 'correct_response': 'right', 'condition': 'stop'}, {'fileName': 'squareblack.png', 'correct_response': 'right', 'condition': 'stop'}, {'fileName': 'circleblack.png', 'correct_response': 'left', 'condition': 'stop'}, {'fileName': 'squareblack.png', 'correct_response': 'right', 'condition': 'go'}, {'fileName': 'circleblack.png', 'correct_response': 'left', 'condition': 'go'}, {'fileName': 'circleblack.png', 'correct_response': 'left', 'condition': 'stop'}, {'fileName': 'squareblack.png', 'correct_response': 'right', 'condition': 'go'}, {'fileName': 'squareblack.png', 'correct_response': 'right', 'condition': 'go'}, {'fileName': 'squareblack.png', 'correct_response': 'right', 'condition': 'go'}, {'fileName': 'circleblack.png', 'correct_response': 'left', 'condition': 'go'}, {'fileName': 'squareblack.png', 'correct_response': 'right', 'condition': 'go'}, {'fileName': 'circleblack.png', 'correct_response': 'left', 'condition': 'stop'}, {'fileName': 'circleblack.png', 'correct_response': 'left', 'condition': 'go'}, {'fileName': 'circleblack.png', 'correct_response': 'left', 'condition': 'go'}, {'fileName': 'circleblack.png', 'correct_response': 'left', 'condition': 'go'}, {'fileName': 'squareblack.png', 'correct_response': 'right', 'condition': 'go'}, {'fileName': 'circleblack.png', 'correct_response': 'left', 'condition': 'go'}, {'fileName': 'circleblack.png', 'correct_response': 'left', 'condition': 'stop'}, {'fileName': 'squareblack.png', 'correct_response': 'right', 'condition': 'go'}, {'fileName': 'squareblack.png', 'correct_response': 'right', 'condition': 'stop'}, {'fileName': 'squareblack.png', 'correct_response': 'right', 'condition': 'stop'}, {'fileName': 'squareblack.png', 'correct_response': 'right', 'condition': 'go'}]",581.0140726491809,581.0140726491809,return,2.3381586894392967,,,,,,,,,,,,,,,,,,,,,,,,,,,,,,,,,,,,,,,,,,,,,,,,,,,,,,,,,,,s032,001,2024-08-22_11h00.54.383,simplestop_skeleton,2022.2.2,59.73838931680416,
None,None,0,0,0,0,0,0,0,2,,,,,,,,,,,,,,,583.3969576284289,583.3969576284289,641.772834867239,stop,squareblack.png,right,0.35,641.804471090436,641.804471090436,642.2860109806061,642.2860109806061,642.3194565102458,642.6366851180792,643.1370443701744,643.287041015923,644.2883446067572,644.3052658364177,None,0,644.3052658364177,644.3052658364177,0.002590090036392212,0.48583023250102997,0.836181104183197,644.7900295332074,practice,1,,,,,,,,,,,,,,,,,,,,,,,,,,,,,,,,s032,001,2024-08-22_11h00.54.383,simplestop_skeleton,2022.2.2,59.73838931680416,
None,None,0,0,0,0,0,1,1,3,,,,,,,,,,,,,,,,,644.7905725613236,go,squareblack.png,right,0.4,644.8100322857499,644.8100322857499,645.3060939237475,645.3060939237475,645.323139578104,645.7065387964249,646.2073964849114,646.3074733242393,647.3086387589574,647.3279401436448,None,0,647.3279401436448,647.3279401436448,0.00122842937707901,0.4896103963255882,0.8900764212012291,647.8248748108745,practice,1,,,,,,,,,,,,,,,,,,,,,,,,,,,,,,,,s032,001,2024-08-22_11h00.54.383,simplestop_skeleton,2022.2.2,59.73838931680416,
$currentCorrectResponse,$currentGoStim,0,0,0,0,0,2,2,0,,,,,,,,,,,,,,,,,647.8253134563565,go,squareblack.png,right,0.4,647.8424425646663,647.8424425646663,648.3413223996758,648.3413223996758,648.3581880480051,648.7417078316212,649.2444327697158,649.342373766005,650.3435297012329,650.3435297012329,right,1,650.3435297012329,650.3435297012329,0.0011845976114273071,0.49024683237075806,0.8903611972928047,650.8291276246309,practice,1,0.870058037340641,,,,,,,,,,,,,,,,,,,,,,,,,,,,,,,s032,001,2024-08-22_11h00.54.383,simplestop_skeleton,2022.2.2,59.73838931680416,
None,None,0,0,0,0,0,3,3,2,,,,,,,,,,,,,,,,,650.829576574266,go,circleblack.png,left,0.4,650.852309808135,650.852309808135,651.3446706235409,651.3446706235409,651.3613329231739,651.7449812442064,652.2456059530377,652.3456084430218,653.3486349657178,653.3650446236134,left,1,653.3650446236134,653.3650446236134,0.007917329668998718,0.4890260249376297,0.8893684521317482,653.8499725610018,practice,1,0.3412185236811638,653.869711831212,653.869711831212,,,,,,,,,,,,,,,,,,,,,,,,,,,,,s032,001,2024-08-22_11h00.54.383,simplestop_skeleton,2022.2.2,59.73838931680416,
None,None,0,0,0,0,1,0,4,1,,,,,,,,,,,,,,,,,653.8503973707557,go,circleblack.png,left,0.4,653.869711831212,653.869711831212,654.3663495481014,654.3663495481014,654.3828152492642,654.7665475085378,655.2656048685312,655.3657633811235,656.366960696876,656.3835448697209,left,1,656.3835448697209,656.3835448697209,0.0013705939054489136,0.4897388517856598,0.8902857080101967,656.8696452975273,practice,1,0.35138028115034103,,,,,,,,,,,,,,,,,,,,,,,,,,,,,,,s032,001,2024-08-22_11h00.54.383,simplestop_skeleton,2022.2.2,59.73838931680416,
None,None,0,0,0,0,1,1,5,2,,,,,,,,,,,,,,,,,656.8700792789459,go,squareblack.png,right,0.4,656.8899158164859,656.8899158164859,657.3861605972052,657.3861605972052,657.4028731957078,657.7865922152996,658.3022376149893,658.3855849504471,659.3866822347045,659.4040104299784,right,1,659.4040104299784,659.4040104299784,0.0018045827746391296,0.4901740550994873,0.8907337710261345,659.889634899795,practice,1,0.3118484541773796,,,,,,,,,,,,,,,,,,,,,,,,,,,,,,,s032,001,2024-08-22_11h00.54.383,simplestop_skeleton,2022.2.2,59.73838931680416,
None,None,0,0,0,0,1,2,6,3,,,,,,,,,,,,,,,,,659.8900641351938,stop,circleblack.png,left,0.4,659.9098160043359,659.9098160043359,660.4061417505145,660.4061417505145,660.4226994812489,660.8067908734083,661.3222928270698,661.4056797474623,662.4089697822928,662.4089697822928,left,1,662.4089697822928,662.4089697822928,0.0017291158437728882,0.48980875313282013,0.8904656395316124,662.8930673450232,practice,1,0.2796012982726097,662.912743203342,662.912743203342,,,,,,,,,,,,,,,,,,,,,,,,,,,,,s032,001,2024-08-22_11h00.54.383,simplestop_skeleton,2022.2.2,59.73838931680416,
None,None,0,0,0,0,1,3,7,3,,,,,,,,,,,,,,,,,662.8935105204582,stop,squareblack.png,right,0.35,662.912743203342,662.912743203342,663.4095850288868,663.4095850288868,663.4262443184853,663.7596662193537,664.2588736191392,664.4090108796954,665.41011095047,665.4267807453871,right,1,665.4267807453871,665.4267807453871,0.0016680806875228882,0.4898926690220833,0.8404226824641228,665.9130586907268,practice,1,0.44494257867336273,,,,,,,,,,,,,,,,,,,,,,,,,,,,,,,s032,001,2024-08-22_11h00.54.383,simplestop_skeleton,2022.2.2,59.73838931680416,
None,None,0,0,0,0,2,0,8,1,,,,,,,,,,,,,,,,,665.9135127663612,go,circleblack.png,left,0.3,665.9329404011369,665.9329404011369,666.4293085187674,666.4293085187674,666.4462979659438,666.7296241670847,667.2287552505732,667.42898632586,668.430092997849,668.4468781501055,left,1,668.4468781501055,668.4468781501055,0.0017341077327728271,0.49011722207069397,0.7903183326125145,668.9330502897501,practice,1,0.3454337567090988,,,,,,,,,,,,,,,,,,,,,,,,,,,,,,,s032,001,2024-08-22_11h00.54.383,simplestop_skeleton,2022.2.2,59.73838931680416,
$currentCorrectResponse,$currentGoStim,0,0,0,0,2,1,9,0,,,,,,,,,,,,,,,,,668.9334786310792,stop,circleblack.png,left,0.3,668.9527403116226,668.9527403116226,669.4492342025042,669.4492342025042,669.4659767895937,669.7497867271304,670.2488840147853,670.4489400610328,671.4500707387924,671.4668190032244,left,1,671.4668190032244,671.4668190032244,0.0012549608945846558,0.4899258017539978,0.7903124466538429,671.9528795406222,practice,1,0.4516478553414345,,,,,,,,,,,,,,,,,,,,,,,,,,,,,,,s032,001,2024-08-22_11h00.54.383,simplestop_skeleton,2022.2.2,59.73838931680416,
$currentCorrectResponse,$currentGoStim,0,0,0,0,2,2,10,0,,,,,,,,,,,,,,,,,671.9533007666469,go,circleblack.png,left,0.25,671.9727731198072,671.9727731198072,672.4692996740341,672.4692996740341,672.4858649596572,672.7195391952991,673.2206104621291,673.4690231531858,674.4701046347618,674.4869097918272,left,1,674.4869097918272,674.4869097918272,0.0013011693954467773,0.4899159148335457,0.7405173256993294,674.972310744226,practice,1,0.4932299852371216,,,,,,,,,,,,,,,,,,,,,,,,,,,,,,,s032,001,2024-08-22_11h00.54.383,simplestop_skeleton,2022.2.2,59.73838931680416,
None,None,0,0,0,0,2,3,11,3,,,,,,,,,,,,,,,,,674.9727431759238,go,squareblack.png,right,0.25,674.9973843321204,674.9973843321204,675.4894980564713,675.4894980564713,675.5060564503074,675.7398587167263,676.2405275404453,676.4890261143446,677.4901248440146,677.5068444162607,right,1,677.5068444162607,677.5068444162607,0.00780893862247467,0.4909493625164032,0.7410923391580582,677.9926609396935,practice,1,0.5297325775027275,,,,,,,,,,,,,,,,,,,,,,,,,,,,,,,s032,001,2024-08-22_11h00.54.383,simplestop_skeleton,2022.2.2,59.73838931680416,
$currentCorrectResponse,$currentGoStim,0,0,0,0,3,0,12,0,,,,,,,,,,,,,,,,,677.9930870905519,go,circleblack.png,left,0.25,678.0105983987451,678.0105983987451,678.5093842819333,678.5093842819333,678.5093842819333,678.7584809437394,679.2587650343776,679.5091289505363,680.511935390532,680.511935390532,left,1,680.511935390532,680.511935390532,0.0018729344010353088,0.490977019071579,0.7393613457679749,680.9963059276342,practice,1,0.4205419570207596,681.0172557011247,681.0172557011247,,,,,,,,,,,,,,,,,,,,,,,,,,,,,s032,001,2024-08-22_11h00.54.383,simplestop_skeleton,2022.2.2,59.73838931680416,
None,None,0,0,0,0,3,1,13,2,,,,,,,,,,,,,,,,,680.996747367084,go,circleblack.png,left,0.25,681.0172557011247,681.0172557011247,681.5122549533844,681.5122549533844,681.5289318338037,681.7628836408257,682.2640276998281,682.5123645812273,683.513364367187,683.5300111398101,left,1,683.5300111398101,683.5300111398101,0.0014867261052131653,0.4890325739979744,0.7398842722177505,684.0153963789344,practice,1,0.49062544107437134,,,,,,,,,,,,,,,,,,,,,,,,,,,,,,,s032,001,2024-08-22_11h00.54.383,simplestop_skeleton,2022.2.2,59.73838931680416,
$currentCorrectResponse,$currentGoStim,0,0,0,0,3,2,14,0,,,,,,,,,,,,,,,,,684.0158178955317,stop,squareblack.png,right,0.25,684.034547559917,684.034547559917,684.5326838493347,684.5326838493347,684.5494975596666,684.7827727496624,685.2834667563438,685.5335750430822,686.5348904877901,686.5348904877901,None,0,686.5348904877901,686.5348904877901,0.0022518038749694824,0.49099716544151306,0.7410398051142693,687.0197120830417,practice,1,,,,,,,,,,,,,,,,,,,,,,,,,,,,,,,,s032,001,2024-08-22_11h00.54.383,simplestop_skeleton,2022.2.2,59.73838931680416,
None,None,0,0,0,0,3,3,15,2,,,,,,,,,,,,,,,,,687.0201438739896,go,squareblack.png,right,0.3,687.039273403585,687.039273403585,687.5359080806375,687.5359080806375,687.552466057241,687.8362670615315,688.3354058638215,688.5355220362544,689.5368279963732,689.5533494725823,right,1,689.5533494725823,689.5533494725823,0.0012403875589370728,0.49022357910871506,0.7903638333082199,690.0393607914448,practice,1,0.36045924574136734,,,,,,,,,,,,,,,,,,,,,,,,,,,,,,,s032,001,2024-08-22_11h00.54.383,simplestop_skeleton,2022.2.2,59.73838931680416,
None,None,0,0,0,0,4,0,16,1,,,,,,,,,,,,,,,,,690.0397914946079,go,squareblack.png,right,0.3,690.0592839717865,690.0592839717865,690.5560460016131,690.5560460016131,690.5727310925722,690.8562769815326,691.3572675362229,691.555634342134,692.5566357672215,692.5732675343752,right,1,692.5732675343752,692.5732675343752,0.0012672767043113708,0.4899165481328964,0.7901850119233131,693.0588314160705,practice,1,0.47952475398778915,,,,,,,,,,,,,,,,,,,,,,,,,,,,,,,s032,001,2024-08-22_11h00.54.383,simplestop_skeleton,2022.2.2,59.73838931680416,
None,None,0,0,0,0,4,1,17,2,,,,,,,,,,,,,,,,,693.0592833459377,go,squareblack.png,right,0.3,693.0766616091132,693.0766616091132,693.5760547295213,693.5760547295213,693.5760547295213,693.8763089105487,694.3774512261152,694.5757736414671,695.5768203660846,695.5768203660846,right,1,695.5768203660846,695.5768203660846,0.0012010559439659119,0.49077875912189484,0.7910260930657387,696.0621443018317,practice,1,0.581721194088459,,,,,,,,,,,,,,,,,,,,,,,,,,,,,,,s032,001,2024-08-22_11h00.54.383,simplestop_skeleton,2022.2.2,59.73838931680416,
$currentCorrectResponse,$currentGoStim,0,0,0,0,4,2,18,0,,,,,,,,,,,,,,,,,696.0625817030668,go,circleblack.png,left,0.3,696.0868664011359,696.0868664011359,696.5792491286993,696.5792491286993,696.5959903821349,696.8798095434904,697.3790796175599,697.5790176317096,698.5799807906151,698.5967395454645,left,1,698.5967395454645,698.5967395454645,0.00841597467660904,0.49102820456027985,0.7908836007118225,699.0827292948961,practice,1,0.4071878343820572,,,,,,,,,,,,,,,,,,,,,,,,,,,,,,,s032,001,2024-08-22_11h00.54.383,simplestop_skeleton,2022.2.2,59.73838931680416,
None,None,0,0,0,0,4,3,19,1,,,,,,,,,,,,,,,,,699.0831566825509,go,circleblack.png,left,0.3,699.1024506539106,699.1024506539106,699.5993504971266,699.5993504971266,699.6158009022474,699.8996480032802,700.4005477800965,700.5990109890699,701.5999824479222,701.6167299076915,left,1,701.6167299076915,701.6167299076915,0.001262076199054718,0.49029965698719025,0.7903561070561409,702.1019869595766,practice,1,0.5957224145531654,,,,,,,,,,,,,,,,,,,,,,,,,,,,,,,s032,001,2024-08-22_11h00.54.383,simplestop_skeleton,2022.2.2,59.73838931680416,
None,None,0,0,0,0,5,0,20,3,,,,,,,,,,,,,,,,,702.1024341881275,go,squareblack.png,right,0.3,702.1204523071647,702.1204523071647,702.6191792264581,702.6191792264581,702.6357522308826,702.9195481091738,703.4207878038287,703.6207800284028,704.6199478581548,704.6199478581548,right,1,704.6199478581548,704.6199478581548,0.0017361566424369812,0.49084850400686264,0.7914195135235786,705.1050851419568,practice,1,0.7853667661547661,705.1234941631556,705.1234941631556,,,,,,,,,,,,,,,,,,,,,,,,,,,,,s032,001,2024-08-22_11h00.54.383,simplestop_skeleton,2022.2.2,59.73838931680416,
None,None,0,0,0,0,5,1,21,1,,,,,,,,,,,,,,,,,705.1055637970567,stop,squareblack.png,right,0.3,705.1234941631556,705.1234941631556,705.6212216615677,705.6212216615677,705.6377850398421,705.9215194508433,706.4220469295979,706.6222716271877,707.6249583810568,707.6249583810568,None,0,707.6249583810568,707.6249583810568,0.0011516287922859192,0.4889150932431221,0.7892281264066696,708.1096403971314,practice,1,,708.1297774016857,708.1297774016857,,,,,,,,,,,,,,,,,,,,,,,,,,,,,s032,001,2024-08-22_11h00.54.383,simplestop_skeleton,2022.2.2,59.73838931680416,
None,None,0,0,0,0,5,2,22,3,,,,,,,,,,,,,,,,,708.1100838109851,stop,circleblack.png,left,0.35,708.1297774016857,708.1297774016857,708.6259293407202,708.6259293407202,708.6427832394838,708.9764494299889,709.4771252200007,709.6271317973733,710.6283509805799,710.6449159830809,None,0,710.6449159830809,710.6449159830809,0.0017924755811691284,0.49009092152118683,0.8403880745172501,711.1296351328492,practice,1,,711.1492543816566,711.1492543816566,,,,,,,,,,,,,,,,,,,,,,,,,,,,,s032,001,2024-08-22_11h00.54.383,simplestop_skeleton,2022.2.2,59.73838931680416,
None,None,0,0,0,0,5,3,23,1,,,,,,,,,,,,,,,,,711.1300575733185,stop,circleblack.png,left,0.4,711.1492543816566,711.1492543816566,711.6461980044842,711.6461980044842,711.662949487567,712.0463580712676,712.5455253273249,712.6455832570791,713.6470975279808,713.6636407896876,left,1,713.6636407896876,713.6636407896876,0.0012738630175590515,0.4902147725224495,0.8904833793640137,714.1487782076001,practice,1,0.4789641723036766,,,,,,,,,,,,,,,,,,,,,,,,,,,,,,,s032,001,2024-08-22_11h00.54.383,simplestop_skeleton,2022.2.2,59.73838931680416,
,,0,0,0,0,,,,,,,,,,,,,"[{'fileName': 'circleblack.png', 'correct_response': 'left', 'condition': 'go'}, {'fileName': 'squareblack.png', 'correct_response': 'right', 'condition': 'stop'}, {'fileName': 'circleblack.png', 'correct_response': 'left', 'condition': 'go'}, {'fileName': 'squareblack.png', 'correct_response': 'right', 'condition': 'stop'}, {'fileName': 'circleblack.png', 'correct_response': 'left', 'condition': 'stop'}, {'fileName': 'circleblack.png', 'correct_response': 'left', 'condition': 'go'}, {'fileName': 'squareblack.png', 'correct_response': 'right', 'condition': 'go'}, {'fileName': 'squareblack.png', 'correct_response': 'right', 'condition': 'go'}, {'fileName': 'circleblack.png', 'correct_response': 'left', 'condition': 'stop'}, {'fileName': 'squareblack.png', 'correct_response': 'right', 'condition': 'go'}, {'fileName': 'squareblack.png', 'correct_response': 'right', 'condition': 'go'}, {'fileName': 'circleblack.png', 'correct_response': 'left', 'condition': 'go'}, {'fileName': 'squareblack.png', 'correct_response': 'right', 'condition': 'stop'}, {'fileName': 'squareblack.png', 'correct_response': 'right', 'condition': 'go'}, {'fileName': 'circleblack.png', 'correct_response': 'left', 'condition': 'stop'}, {'fileName': 'circleblack.png', 'correct_response': 'left', 'condition': 'go'}, {'fileName': 'squareblack.png', 'correct_response': 'right', 'condition': 'go'}, {'fileName': 'squareblack.png', 'correct_response': 'right', 'condition': 'go'}, {'fileName': 'circleblack.png', 'correct_response': 'left', 'condition': 'stop'}, {'fileName': 'squareblack.png', 'correct_response': 'right', 'condition': 'go'}, {'fileName': 'circleblack.png', 'correct_response': 'left', 'condition': 'go'}, {'fileName': 'circleblack.png', 'correct_response': 'left', 'condition': 'go'}, {'fileName': 'circleblack.png', 'correct_response': 'left', 'condition': 'go'}, {'fileName': 'squareblack.png', 'correct_response': 'right', 'condition': 'stop'}]",,,,,,,,,,,,,,,,,,,,,,,,,,,,,,,,,,,,714.165354155004,714.165354155004,return,2.242972806096077,,,,,,,,,,,,,,,,,,,,,,,,,s032,001,2024-08-22_11h00.54.383,simplestop_skeleton,2022.2.2,59.73838931680416,
None,None,,,,,,,,,0,0,0,0,0,0,0,1,,,,,,,,,727.7044120505452,go,squareblack.png,right,0.35,,,,,,,,,,,,,,,0.002790793776512146,0.48310819268226624,,730.2012404426932,test,1,,,,,,,,716.4348863735795,716.4348863735795,727.72495482862,728.2139634639025,728.2139634639025,728.2308681383729,728.5645388066769,729.0650875717402,729.2152343541384,730.2207968235016,right,1,0.7369420006871223,0.35,,,,,,,,,,,s032,001,2024-08-22_11h00.54.383,simplestop_skeleton,2022.2.2,59.73838931680416,
$currentCorrectResponse,$currentGoStim,,,,,,,,,0,0,0,0,0,1,1,0,,,,,,,,,730.201802931726,go,circleblack.png,left,0.35,,,,,,,,,,,,,,,0.001976519823074341,0.48918314278125763,,732.7023150473833,test,1,,,,,,,,,,730.2207968235016,730.7170084789395,730.7170084789395,730.7335642576218,731.0671776160598,731.5664366707206,731.7165781185031,732.7194416299462,left,1,0.5494996309280396,0.35,,,,,,,,,,,s032,001,2024-08-22_11h00.54.383,simplestop_skeleton,2022.2.2,59.73838931680416,
None,None,,,,,,,,,0,0,0,0,0,2,2,2,,,,,,,,,732.7027774304152,stop,squareblack.png,right,0.35,,,,,,,,,,,,,,,0.0016081631183624268,0.4895576387643814,0.8398173749446869,735.2063045576215,test,1,,,,,,,,,,732.7194416299462,733.2182924300432,733.2182924300432,733.2349849715829,733.5685394853354,734.0693113878369,734.2198654636741,735.22735144943,right,1,0.5442008674144745,0.3,,,,,,,,,,,s032,001,2024-08-22_11h00.54.383,simplestop_skeleton,2022.2.2,59.73838931680416,
None,None,,,,,,,,,0,0,0,0,0,3,3,2,,,,,,,,,735.2067420706153,stop,squareblack.png,right,0.3,,,,,,,,,,,,,,,0.002460397779941559,0.4886729195713997,0.7891676798462868,737.7078876793385,test,1,,,,,,,,,,735.22735144943,735.722368478775,735.722368478775,735.739183999598,736.022700175643,736.5235817506909,736.7234836295247,737.7254814505577,None,0,,0.35,,,,,,,,,,,s032,001,2024-08-22_11h00.54.383,simplestop_skeleton,2022.2.2,59.73838931680416,
None,None,,,,,,,,,0,0,0,0,1,0,4,1,,,,,,,,,737.7083383202553,go,circleblack.png,left,0.35,,,,,,,,,,,,,,,0.0017598196864128113,0.4895084872841835,,740.2103867381811,test,1,,,,,,,,,,737.7254814505577,738.2238925471902,738.2238925471902,738.2405496388674,738.5741162523627,739.0749221816659,739.2251353040338,740.2276409938931,left,1,0.7580353617668152,0.35,,,,,,,,,,,s032,001,2024-08-22_11h00.54.383,simplestop_skeleton,2022.2.2,59.73838931680416,
None,None,,,,,,,,,0,0,0,0,1,1,5,3,,,,,,,,,740.2108312025666,go,circleblack.png,left,0.35,,,,,,,,,,,,,,,0.001242615282535553,0.48992714285850525,,742.7145252749324,test,1,,,,,,,,,,740.2276409938931,740.726667419076,740.726667419076,740.726667419076,741.0769463330507,741.5777942761779,741.7278956621885,742.7333518117666,left,1,0.9339425563812256,0.35,,,,,,,,,,,s032,001,2024-08-22_11h00.54.383,simplestop_skeleton,2022.2.2,59.73838931680416,
None,None,,,,,,,,,0,0,0,0,1,2,6,1,,,,,,,,,742.7149759531021,go,circleblack.png,left,0.35,,,,,,,,,,,,,,,0.0013403892517089844,0.4895859435200691,,745.2163951769471,test,1,,,,,,,,,,742.7333518117666,743.2307556420565,743.2307556420565,743.2473099380732,743.5809469893575,744.0816586986184,744.2321493476629,745.2389775514603,left,1,0.8062203899025917,0.35,,,,,,,,,,,s032,001,2024-08-22_11h00.54.383,simplestop_skeleton,2022.2.2,59.73838931680416,
None,None,,,,,,,,,0,0,0,0,1,3,7,2,,,,,,,,,745.2168586552143,go,squareblack.png,right,0.35,,,,,,,,,,,,,,,0.006978809833526611,0.48905524611473083,,747.7194234952331,test,1,,,,,,,,,,745.2389775514603,745.7319983989,745.7319983989,745.748658940196,746.0826070830226,746.5829106792808,746.7336014062166,747.7376204654574,right,1,0.7712842524051666,0.35,,,,,,,,,,,s032,001,2024-08-22_11h00.54.383,simplestop_skeleton,2022.2.2,59.73838931680416,
None,None,,,,,,,,,0,0,0,0,2,0,8,2,,,,,,,,,747.7198858708143,stop,circleblack.png,left,0.35,,,,,,,,,,,,,,,0.0018653646111488342,0.4907289072871208,0.8409366607666016,750.223078481853,test,1,,,,,,,,,,747.7376204654574,748.2364081665874,748.2364081665874,748.2530218139291,748.5869904756546,749.0876216366887,749.2360795512795,750.2429048269987,left,1,0.596121110022068,0.3,,,,,,,,,,,s032,001,2024-08-22_11h00.54.383,simplestop_skeleton,2022.2.2,59.73838931680416,
None,None,,,,,,,,,0,0,0,0,2,1,9,1,,,,,,,,,750.2235370576382,go,squareblack.png,right,0.3,,,,,,,,,,,,,,,0.0017999112606048584,0.4876687601208687,,752.7257845103741,test,1,,,,,,,,,,750.2429048269987,750.7376883178949,750.7376883178949,750.7548772916198,751.0379342734814,751.5386197566986,751.7388855814934,752.7448405101895,right,1,0.6901642382144928,0.3,,,,,,,,,,,s032,001,2024-08-22_11h00.54.383,simplestop_skeleton,2022.2.2,59.73838931680416,
$currentCorrectResponse,$currentGoStim,,,,,,,,,0,0,0,0,2,2,10,0,,,,,,,,,752.7262426838279,go,squareblack.png,right,0.3,,,,,,,,,,,,,,,0.0013321936130523682,0.4899369180202484,,755.2271500378847,test,1,,,,,,,,,,752.7448405101895,753.242039039731,753.242039039731,753.2586006596684,753.5421920716763,754.0428193584085,754.2416174337268,755.2447048276663,right,1,0.6840118169784546,0.3,,,,,,,,,,,s032,001,2024-08-22_11h00.54.383,simplestop_skeleton,2022.2.2,59.73838931680416,
None,None,,,,,,,,,0,0,0,0,2,3,11,1,,,,,,,,,755.2276147305965,stop,circleblack.png,left,0.3,,,,,,,,,,,,,,,0.0020255595445632935,0.49240896850824356,0.790175661444664,757.7314044609666,test,1,,,,,,,,,,755.2447048276663,755.7431637346745,755.7431637346745,755.7431637346745,756.0438576191664,756.5440788045526,756.7443676963449,757.7506146728992,None,0,,0.35,,,,,,,,,,,s032,001,2024-08-22_11h00.54.383,simplestop_skeleton,2022.2.2,59.73838931680416,
None,None,,,,,,,,,0,0,0,0,3,0,12,2,,,,,,,,,757.7318660542369,stop,squareblack.png,right,0.35,,,,,,,,,,,,,,,0.0015827715396881104,0.4894816428422928,0.8404702469706535,760.2339103221893,test,1,,,,,,,,,,757.7506146728992,758.2471923902631,758.2471923902631,758.2641818448901,758.598128952086,759.1136423125863,759.2470708712935,760.2498090490699,right,1,0.5022091269493103,0.3,,,,,,,,,,,s032,001,2024-08-22_11h00.54.383,simplestop_skeleton,2022.2.2,59.73838931680416,
None,None,,,,,,,,,0,0,0,0,3,1,13,3,,,,,,,,,760.234347730875,go,squareblack.png,right,0.3,,,,,,,,,,,,,,,0.0012090951204299927,0.4900093525648117,,762.7354502007365,test,1,,,,,,,,,,760.2498090490699,760.7503023073077,760.7503023073077,760.7503023073077,761.0506298169494,761.5512870699167,761.7498996630311,762.7531946897507,right,1,0.6597719117999077,0.3,,,,,,,,,,,s032,001,2024-08-22_11h00.54.383,simplestop_skeleton,2022.2.2,59.73838931680416,
None,None,,,,,,,,,0,0,0,0,3,2,14,3,,,,,,,,,762.7358992770314,go,circleblack.png,left,0.3,,,,,,,,,,,,,,,0.0018294379115104675,0.49020469188690186,,765.2387565746903,test,1,,,,,,,,,,762.7531946897507,763.2541456818581,763.2541456818581,763.2679965794086,763.5518380850554,764.0522770285606,764.2692094147205,765.2550287246704,left,1,0.7519389912486076,0.3,,,,,,,,,,,s032,001,2024-08-22_11h00.54.383,simplestop_skeleton,2022.2.2,59.73838931680416,
$currentCorrectResponse,$currentGoStim,,,,,,,,,0,0,0,0,3,3,15,0,,,,,,,,,765.2392943501472,go,circleblack.png,left,0.3,,,,,,,,,,,,,,,0.0012500584125518799,0.49028003960847855,,767.7409699633718,test,1,,,,,,,,,,765.2550287246704,765.7555234879255,765.7555234879255,765.7555234879255,766.0559028834105,766.5565858781338,766.7571825236082,767.7584266364574,left,1,0.8283869251608849,0.3,,,,,,,,,,,s032,001,2024-08-22_11h00.54.383,simplestop_skeleton,2022.2.2,59.73838931680416,
None,None,,,,,,,,,0,0,0,0,4,0,16,3,,,,,,,,,767.7414369881153,stop,circleblack.png,left,0.3,,,,,,,,,,,,,,,0.0012860223650932312,0.4891752749681473,0.7897834628820419,770.2442343682051,test,1,,,,,,,,,,767.7584266364574,768.2568383589387,768.2568383589387,768.2735911160707,768.55732229352,769.0578453987837,769.2583387419581,770.2625253871083,None,0,,0.35,,,,,,,,,,,s032,001,2024-08-22_11h00.54.383,simplestop_skeleton,2022.2.2,59.73838931680416,
$currentCorrectResponse,$currentGoStim,,,,,,,,,0,0,0,0,4,1,17,0,,,,,,,,,770.2446895688772,go,circleblack.png,left,0.35,,,,,,,,,,,,,,,0.0013895705342292786,0.4894786551594734,,772.7478557378054,test,1,,,,,,,,,,770.2625253871083,770.7610294520855,770.7610294520855,770.7776671424508,771.1113514378667,771.6107543334365,771.7609727680683,772.7677143365145,left,1,0.5387764424085617,0.35,,,,,,,,,,,s032,001,2024-08-22_11h00.54.383,simplestop_skeleton,2022.2.2,59.73838931680416,
None,None,,,,,,,,,0,0,0,0,4,2,18,3,,,,,,,,,772.7482958585024,go,circleblack.png,left,0.35,,,,,,,,,,,,,,,0.0015944093465805054,0.48763176798820496,,775.2505150362849,test,1,,,,,,,,,,772.7677143365145,773.2623644918203,773.2623644918203,773.2790823951364,773.6127692237496,774.1134953796864,774.2637596949935,775.2750793173909,left,1,0.8255279138684273,0.35,,,,,,,,,,,s032,001,2024-08-22_11h00.54.383,simplestop_skeleton,2022.2.2,59.73838931680416,
None,None,,,,,,,,,0,0,0,0,4,3,19,3,,,,,,,,,775.2509657666087,go,squareblack.png,right,0.35,,,,,,,,,,,,,,,0.0075898319482803345,0.4896286427974701,,777.7518348991871,test,1,,,,,,,,,,775.2750793173909,775.7664811164141,775.7664811164141,775.7835232615471,776.1171789169312,776.6188647896051,776.7682546451688,777.7696025371552,right,1,0.707689955830574,0.35,,,,,,,,,,,s032,001,2024-08-22_11h00.54.383,simplestop_skeleton,2022.2.2,59.73838931680416,
None,None,,,,,,,,,0,0,0,0,5,0,20,1,,,,,,,,,777.7522871866822,stop,circleblack.png,left,0.35,,,,,,,,,,,,,,,0.0017739757895469666,0.48939383029937744,0.839957483112812,780.255344197154,test,1,,,,,,,,,,777.7696025371552,778.2687659412622,778.2687659412622,778.2872187048197,778.6184288561344,779.1190719678998,779.2692093625665,780.2725292891264,None,0,,0.4,,,,,,,,,,,s032,001,2024-08-22_11h00.54.383,simplestop_skeleton,2022.2.2,59.73838931680416,
None,None,,,,,,,,,0,0,0,0,5,1,21,2,,,,,,,,,780.255800075829,go,squareblack.png,right,0.4,,,,,,,,,,,,,,,0.0016557350754737854,0.49071265012025833,,782.7586954087019,test,1,,,,,,,,,,780.2725292891264,780.7723795026541,780.7723795026541,780.7723795026541,781.1720514073968,781.6721078008413,781.7721261754632,782.7782591506839,right,1,0.5881574973464012,0.4,,,,,,,,,,,s032,001,2024-08-22_11h00.54.383,simplestop_skeleton,2022.2.2,59.73838931680416,
None,None,,,,,,,,,0,0,0,0,5,2,22,3,,,,,,,,,782.7591540440917,go,squareblack.png,right,0.4,,,,,,,,,,,,,,,0.001320376992225647,0.4911099597811699,,785.2606457099319,test,1,,,,,,,,,,782.7782591506839,783.2735271602869,783.2735271602869,783.2901632934809,783.6739373654127,784.1744887456298,784.2746345698833,785.2779200747609,right,1,0.6262737363576889,0.4,,,,,,,,,,,s032,001,2024-08-22_11h00.54.383,simplestop_skeleton,2022.2.2,59.73838931680416,
None,None,,,,,,,,,0,0,0,0,5,3,23,1,,,,,,,,,785.2610964775085,stop,squareblack.png,right,0.4,,,,,,,,,,,,,,,0.0011984184384346008,0.49087418615818024,0.8909098654985428,787.7629106789827,test,1,,,,,,,,,,785.2779200747609,785.7776047363877,785.7776047363877,785.7776047363877,786.1779827624559,786.6791361346841,786.7773713096976,787.7856367006898,right,1,0.5379644483327866,0.35,,,,,,,,,,,s032,001,2024-08-22_11h00.54.383,simplestop_skeleton,2022.2.2,59.73838931680416,
None,None,,,,,,,,,0,0,0,0,6,0,24,2,,,,,,,,,787.763356178999,go,circleblack.png,left,0.35,,,,,,,,,,,,,,,0.00787360966205597,0.4903716817498207,,790.2672921195626,test,1,,,,,,,,,,787.7856367006898,788.2792666107416,788.2792666107416,788.2956607192755,788.6293129175901,789.131017178297,789.2803080901504,790.2864743992686,left,1,0.5755922570824623,0.35,,,,,,,,,,,s032,001,2024-08-22_11h00.54.383,simplestop_skeleton,2022.2.2,59.73838931680416,
None,None,,,,,,,,,0,0,0,0,6,1,25,1,,,,,,,,,790.2677566930652,go,circleblack.png,left,0.35,,,,,,,,,,,,,,,0.0014037713408470154,0.4892651289701462,,792.7686662226915,test,1,,,,,,,,,,790.2864743992686,790.78312792629,790.78312792629,790.7999528497458,791.1335608437657,791.6357692554593,791.7846459969878,792.786163546145,left,1,0.688835583627224,0.35,,,,,,,,,,,s032,001,2024-08-22_11h00.54.383,simplestop_skeleton,2022.2.2,59.73838931680416,
$currentCorrectResponse,$currentGoStim,,,,,,,,,0,0,0,0,6,2,26,0,,,,,,,,,792.7691505923867,stop,squareblack.png,right,0.35,,,,,,,,,,,,,,,0.0016155615448951721,0.4895956367254257,0.8399432897567749,795.2723558247089,test,1,,,,,,,,,,792.786163546145,793.2844528183341,793.2844528183341,793.3011316433549,793.6350242197514,794.1353630870581,794.2862464785576,795.2892560139298,None,0,,0.4,,,,,,,,,,,s032,001,2024-08-22_11h00.54.383,simplestop_skeleton,2022.2.2,59.73838931680416,
$currentCorrectResponse,$currentGoStim,,,,,,,,,0,0,0,0,6,3,27,0,,,,,,,,,795.2728474512696,stop,squareblack.png,right,0.4,,,,,,,,,,,,,,,0.0011912435293197632,0.4902007728815079,0.8905134052038193,797.7741040438414,test,1,,,,,,,,,,795.2892560139298,795.7886898964643,795.7886898964643,795.7886898964643,796.1891742497683,796.6895406022668,796.7899888008833,797.7918497100472,None,0,,0.45,,,,,,,,,,,s032,001,2024-08-22_11h00.54.383,simplestop_skeleton,2022.2.2,59.73838931680416,
None,None,,,,,,,,,0,0,0,0,7,0,28,2,,,,,,,,,797.7745820209384,stop,circleblack.png,left,0.45,,,,,,,,,,,,,,,0.0018438845872879028,0.48959624767303467,0.9401057884097099,800.2768992781639,test,1,,,,,,,,,,797.7918497100472,798.2901009246707,798.2901009246707,798.3067699670792,798.740423463285,799.2411208748817,799.2912133708596,800.2949144244194,left,1,0.454142190515995,0.4,,,,,,,,,,,s032,001,2024-08-22_11h00.54.383,simplestop_skeleton,2022.2.2,59.73838931680416,
None,None,,,,,,,,,0,0,0,0,7,1,29,1,,,,,,,,,800.2773534432054,go,squareblack.png,right,0.4,,,,,,,,,,,,,,,0.0015754923224449158,0.48876794427633286,,802.7802550420165,test,1,,,,,,,,,,800.2949144244194,800.7930468991399,800.7930468991399,800.8098973333836,801.1931632980704,801.694146618247,801.7942123264074,802.7982375249267,right,1,0.7123129069805145,0.4,,,,,,,,,,,s032,001,2024-08-22_11h00.54.383,simplestop_skeleton,2022.2.2,59.73838931680416,
None,None,,,,,,,,,0,0,0,0,7,2,30,3,,,,,,,,,802.780702598393,go,circleblack.png,left,0.4,,,,,,,,,,,,,,,0.001984909176826477,0.49038898199796677,,805.2824076637626,test,1,,,,,,,,,,802.7982375249267,803.2968493998051,803.2968493998051,803.3135907649994,803.6975614205003,804.1966729983687,804.2968286797404,805.2989468798041,left,1,0.6149020865559578,0.4,,,,,,,,,,,s032,001,2024-08-22_11h00.54.383,simplestop_skeleton,2022.2.2,59.73838931680416,
$currentCorrectResponse,$currentGoStim,,,,,,,,,0,0,0,0,7,3,31,0,,,,,,,,,805.2828671261668,stop,circleblack.png,left,0.4,,,,,,,,,,,,,,,0.0012340545654296875,0.4907195270061493,0.8899760246276855,807.7859013527632,test,1,,,,,,,,,,805.2989468798041,805.8009362593293,805.8009362593293,805.8009362593293,806.1988566890359,806.6992321833968,806.816232830286,807.8035906478763,None,0,,0.45,,,,,,,,,,,s032,001,2024-08-22_11h00.54.383,simplestop_skeleton,2022.2.2,59.73838931680416,
None,None,,,,,,,,,0,0,0,0,8,0,32,3,,,,,,,,,807.7863520234823,go,squareblack.png,right,0.45,,,,,,,,,,,,,,,0.001728154718875885,0.4903748333454132,,810.2893023863435,test,1,,,,,,,,,,807.8035906478763,808.3024279400706,808.3024279400706,808.3024279400706,808.7528641223907,809.2522464618087,809.302233055234,810.308657579124,right,1,0.6258025988936424,0.45,,,,,,,,,,,s032,001,2024-08-22_11h00.54.383,simplestop_skeleton,2022.2.2,59.73838931680416,
None,None,,,,,,,,,0,0,0,0,8,1,33,2,,,,,,,,,810.2897567823529,go,squareblack.png,right,0.45,,,,,,,,,,,,,,,0.001443721354007721,0.48790912330150604,,812.7909764349461,test,1,,,,,,,,,,810.308657579124,810.8038531839848,810.8038531839848,810.8204193562269,811.2543234080076,811.7551016062498,811.804971113801,812.8083210736513,right,1,0.5224763005971909,0.45,,,,,,,,,,,s032,001,2024-08-22_11h00.54.383,simplestop_skeleton,2022.2.2,59.73838931680416,
None,None,,,,,,,,,0,0,0,0,8,2,34,2,,,,,,,,,812.7914388328791,go,squareblack.png,right,0.45,,,,,,,,,,,,,,,0.001210816204547882,0.4905093014240265,,815.2936005219817,test,1,,,,,,,,,,812.8083210736513,813.3082680627704,813.3082680627704,813.3082680627704,813.7587321177125,814.2578427568078,814.3080524876714,815.3163873329759,right,1,0.6279061436653137,0.45,,,,,,,,,,,s032,001,2024-08-22_11h00.54.383,simplestop_skeleton,2022.2.2,59.73838931680416,
$currentCorrectResponse,$currentGoStim,,,,,,,,,0,0,0,0,8,3,35,0,,,,,,,,,815.2944894805551,go,circleblack.png,left,0.45,,,,,,,,,,,,,,,0.007437273859977722,0.4917270764708519,,817.7970523536205,test,1,,,,,,,,,,815.3163873329759,815.8093145415187,815.8093145415187,815.8260647431016,816.2599370628595,816.7608671933413,816.8106136992574,817.8145700916648,left,1,0.7059570550918579,0.45,,,,,,,,,,,s032,001,2024-08-22_11h00.54.383,simplestop_skeleton,2022.2.2,59.73838931680416,
None,None,,,,,,,,,0,0,0,0,9,0,36,1,,,,,,,,,817.7974956259131,go,squareblack.png,right,0.45,,,,,,,,,,,,,,,0.0017472431063652039,0.49020467698574066,,820.2991825640202,test,1,,,,,,,,,,817.8145700916648,818.3134608715773,818.3134608715773,818.3302476629615,818.764102704823,819.2649078667164,819.3150102421641,820.3176795467734,right,1,0.751949705183506,0.45,,,,,,,,,,,s032,001,2024-08-22_11h00.54.383,simplestop_skeleton,2022.2.2,59.73838931680416,
None,None,,,,,,,,,0,0,0,0,9,1,37,3,,,,,,,,,820.2996714189649,stop,circleblack.png,left,0.45,,,,,,,,,,,,,,,0.0019265785813331604,0.4888966828584671,0.9395386576652527,822.802199408412,test,1,,,,,,,,,,820.3176795467734,820.8148550316691,820.8148550316691,820.8315650746226,821.2653265744448,821.7662395834923,821.8159322217107,822.8196705281734,None,0,,0.5,,,,,,,,,,,s032,001,2024-08-22_11h00.54.383,simplestop_skeleton,2022.2.2,59.73838931680416,
None,None,,,,,,,,,0,0,0,0,9,2,38,2,,,,,,,,,822.8026476278901,go,circleblack.png,left,0.5,,,,,,,,,,,,,,,0.0012532472610473633,0.4906024634838104,,825.30444252491,test,1,,,,,,,,,,822.8196705281734,823.3195042163134,823.3195042163134,823.3195042163134,823.8195625469089,824.3189571648836,824.3189571648836,825.3213539272547,left,1,0.5714293643832207,0.5,,,,,,,,,,,s032,001,2024-08-22_11h00.54.383,simplestop_skeleton,2022.2.2,59.73838931680416,
$currentCorrectResponse,$currentGoStim,,,,,,,,,0,0,0,0,9,3,39,0,,,,,,,,,825.304919064045,go,circleblack.png,left,0.5,,,,,,,,,,,,,,,0.0012277215719223022,0.48944731801748276,,827.8079818710685,test,1,,,,,,,,,,825.3213539272547,825.8204821050167,825.8204821050167,825.8377560302615,826.3209752216935,826.8217559307814,826.8217559307814,827.8250701576471,left,1,0.672349363565445,0.5,,,,,,,,,,,s032,001,2024-08-22_11h00.54.383,simplestop_skeleton,2022.2.2,59.73838931680416,
None,None,,,,,,,,,0,0,0,0,10,0,40,1,,,,,,,,,827.8084958568215,go,circleblack.png,left,0.5,,,,,,,,,,,,,,,0.0012713000178337097,0.490211546421051,,830.3099256157875,test,1,,,,,,,,,,827.8250701576471,828.324666544795,828.324666544795,828.324666544795,828.8252371177077,829.3244742676616,829.3244742676616,830.3321841731668,left,1,0.6403040513396263,0.5,,,,,,,,,,,s032,001,2024-08-22_11h00.54.383,simplestop_skeleton,2022.2.2,59.73838931680416,
$currentCorrectResponse,$currentGoStim,,,,,,,,,0,0,0,0,10,1,41,0,,,,,,,,,830.3103941380978,go,squareblack.png,right,0.5,,,,,,,,,,,,,,,0.007308043539524078,0.49003662168979645,,832.8138964623213,test,1,,,,,,,,,,830.3321841731668,830.8273574560881,830.8273574560881,830.8454457223415,831.3267062231898,831.827643379569,831.827643379569,832.8315361738205,right,1,0.6209489777684212,0.5,,,,,,,,,,,s032,001,2024-08-22_11h00.54.383,simplestop_skeleton,2022.2.2,59.73838931680416,
None,None,,,,,,,,,0,0,0,0,10,2,42,3,,,,,,,,,832.8143509700894,go,circleblack.png,left,0.5,,,,,,,,,,,,,,,0.001912631094455719,0.4897167906165123,,835.3153205886483,test,1,,,,,,,,,,832.8315361738205,833.3302001655102,833.3302001655102,833.347036331892,833.830714225769,834.3298215568066,834.3298215568066,835.332297988236,left,1,0.5387289077043533,0.5,,,,,,,,,,,s032,001,2024-08-22_11h00.54.383,simplestop_skeleton,2022.2.2,59.73838931680416,
None,None,,,,,,,,,0,0,0,0,10,3,43,1,,,,,,,,,835.3157874345779,stop,circleblack.png,left,0.5,,,,,,,,,,,,,,,0.0012187063694000244,0.4906712621450424,0.9903153777122498,837.819537550211,test,1,,,,,,,,,,835.332297988236,835.831876732409,835.831876732409,835.831876732409,836.3321261256933,836.8327505812049,836.8327505812049,837.8438462466002,left,1,0.6313080042600632,0.45,,,,,,,,,,,s032,001,2024-08-22_11h00.54.383,simplestop_skeleton,2022.2.2,59.73838931680416,
$currentCorrectResponse,$currentGoStim,,,,,,,,,0,0,0,0,11,0,44,0,,,,,,,,,837.8199710398912,go,squareblack.png,right,0.45,,,,,,,,,,,,,,,0.007222071290016174,0.48975950479507446,,840.3229157477617,test,1,,,,,,,,,,837.8438462466002,838.3356608524919,838.3356608524919,838.3522164747119,838.7863148748875,839.2872038930655,839.3355068713427,840.3425854220986,right,1,0.6181401088833809,0.45,,,,,,,,,,,s032,001,2024-08-22_11h00.54.383,simplestop_skeleton,2022.2.2,59.73838931680416,
None,None,,,,,,,,,0,0,0,0,11,1,45,2,,,,,,,,,840.3233825713396,stop,squareblack.png,right,0.45,,,,,,,,,,,,,,,0.0016821622848510742,0.48756732046604156,0.9382466450333595,842.8245683088899,test,1,,,,,,,,,,840.3425854220986,840.8371528014541,840.8371528014541,840.8536726087332,841.2875465676188,841.7879604771733,841.8384541273117,842.8414512425661,None,0,,0.5,,,,,,,,,,,s032,001,2024-08-22_11h00.54.383,simplestop_skeleton,2022.2.2,59.73838931680416,
$currentCorrectResponse,$currentGoStim,,,,,,,,,0,0,0,0,11,2,46,0,,,,,,,,,842.8250292912126,stop,squareblack.png,right,0.5,,,,,,,,,,,,,,,0.001189395785331726,0.4903282970190048,0.9895670711994171,845.3274663090706,test,1,,,,,,,,,,842.8414512425661,843.3414037823677,843.3414037823677,843.3414037823677,843.8403478637338,844.3412995040417,844.3412995040417,845.3433673530817,right,1,0.549559161067009,0.45,,,,,,,,,,,s032,001,2024-08-22_11h00.54.383,simplestop_skeleton,2022.2.2,59.73838931680416,
None,None,,,,,,,,,0,0,0,0,11,3,47,3,,,,,,,,,845.32792250067,go,squareblack.png,right,0.45,,,,,,,,,,,,,,,0.001211993396282196,0.4901999235153198,,847.8294789940119,test,1,,,,,,,,,,845.3433673530817,845.8441657871008,845.8441657871008,845.8441657871008,846.2944710925221,846.7951595410705,846.8453192040324,847.8604376912117,right,1,0.8164303675293922,0.45,,,,,,,,,,,s032,001,2024-08-22_11h00.54.383,simplestop_skeleton,2022.2.2,59.73838931680416,
,,,,,,,,,,0,0,0,0,,,,,,"[{'fileName': 'circleblack.png', 'correct_response': 'left', 'condition': 'go'}, {'fileName': 'circleblack.png', 'correct_response': 'left', 'condition': 'go'}, {'fileName': 'squareblack.png', 'correct_response': 'right', 'condition': 'go'}, {'fileName': 'squareblack.png', 'correct_response': 'right', 'condition': 'stop'}, {'fileName': 'squareblack.png', 'correct_response': 'right', 'condition': 'go'}, {'fileName': 'squareblack.png', 'correct_response': 'right', 'condition': 'go'}, {'fileName': 'circleblack.png', 'correct_response': 'left', 'condition': 'stop'}, {'fileName': 'circleblack.png', 'correct_response': 'left', 'condition': 'stop'}, {'fileName': 'circleblack.png', 'correct_response': 'left', 'condition': 'go'}, {'fileName': 'squareblack.png', 'correct_response': 'right', 'condition': 'stop'}, {'fileName': 'squareblack.png', 'correct_response': 'right', 'condition': 'go'}, {'fileName': 'circleblack.png', 'correct_response': 'left', 'condition': 'go'}, {'fileName': 'circleblack.png', 'correct_response': 'left', 'condition': 'stop'}, {'fileName': 'circleblack.png', 'correct_response': 'left', 'condition': 'go'}, {'fileName': 'squareblack.png', 'correct_response': 'right', 'condition': 'go'}, {'fileName': 'squareblack.png', 'correct_response': 'right', 'condition': 'go'}, {'fileName': 'squareblack.png', 'correct_response': 'right', 'condition': 'go'}, {'fileName': 'squareblack.png', 'correct_response': 'right', 'condition': 'go'}, {'fileName': 'circleblack.png', 'correct_response': 'left', 'condition': 'go'}, {'fileName': 'squareblack.png', 'correct_response': 'right', 'condition': 'stop'}, {'fileName': 'circleblack.png', 'correct_response': 'left', 'condition': 'stop'}, {'fileName': 'circleblack.png', 'correct_response': 'left', 'condition': 'go'}, {'fileName': 'circleblack.png', 'correct_response': 'left', 'condition': 'go'}, {'fileName': 'squareblack.png', 'correct_response': 'right', 'condition': 'stop'}, {'fileName': 'squareblack.png', 'correct_response': 'right', 'condition': 'go'}, {'fileName': 'squareblack.png', 'correct_response': 'right', 'condition': 'go'}, {'fileName': 'circleblack.png', 'correct_response': 'left', 'condition': 'go'}, {'fileName': 'circleblack.png', 'correct_response': 'left', 'condition': 'go'}, {'fileName': 'circleblack.png', 'correct_response': 'left', 'condition': 'go'}, {'fileName': 'circleblack.png', 'correct_response': 'left', 'condition': 'stop'}, {'fileName': 'squareblack.png', 'correct_response': 'right', 'condition': 'stop'}, {'fileName': 'squareblack.png', 'correct_response': 'right', 'condition': 'go'}, {'fileName': 'squareblack.png', 'correct_response': 'right', 'condition': 'go'}, {'fileName': 'circleblack.png', 'correct_response': 'left', 'condition': 'stop'}, {'fileName': 'circleblack.png', 'correct_response': 'left', 'condition': 'go'}, {'fileName': 'squareblack.png', 'correct_response': 'right', 'condition': 'stop'}, {'fileName': 'circleblack.png', 'correct_response': 'left', 'condition': 'go'}, {'fileName': 'squareblack.png', 'correct_response': 'right', 'condition': 'stop'}, {'fileName': 'circleblack.png', 'correct_response': 'left', 'condition': 'go'}, {'fileName': 'circleblack.png', 'correct_response': 'left', 'condition': 'stop'}, {'fileName': 'squareblack.png', 'correct_response': 'right', 'condition': 'stop'}, {'fileName': 'circleblack.png', 'correct_response': 'left', 'condition': 'go'}, {'fileName': 'squareblack.png', 'correct_response': 'right', 'condition': 'go'}, {'fileName': 'squareblack.png', 'correct_response': 'right', 'condition': 'go'}, {'fileName': 'squareblack.png', 'correct_response': 'right', 'condition': 'go'}, {'fileName': 'circleblack.png', 'correct_response': 'left', 'condition': 'stop'}, {'fileName': 'squareblack.png', 'correct_response': 'right', 'condition': 'go'}, {'fileName': 'circleblack.png', 'correct_response': 'left', 'condition': 'go'}]",,,,,,,,,,,,,,,,,,,,,,,,,,,,,,,,,,,,,,,,,,,,,,,,,,,,,847.8604376912117,847.8604376912117,return,6.02351513504982,,,,,,,s032,001,2024-08-22_11h00.54.383,simplestop_skeleton,2022.2.2,59.73838931680416,
None,None,,,,,,,,,1,0,1,0,0,0,0,2,,,,,,,,,853.9123978018761,go,circleblack.png,left,0.45,,,,,,,,,,,,,,,0.0028422847390174866,0.49775827676057816,,856.4236350879073,test,2,,,,,,,,,,853.9332685396075,854.4367639869452,854.4367639869452,854.4367639869452,854.8871894106269,855.3876018002629,855.437797293067,856.442842386663,left,1,0.8183901011943817,0.45,,,,,,,,,,,s032,001,2024-08-22_11h00.54.383,simplestop_skeleton,2022.2.2,59.73838931680416,
None,None,,,,,,,,,1,0,1,0,0,1,1,3,,,,,,,,,856.4241874143481,go,circleblack.png,left,0.45,,,,,,,,,,,,,,,0.0014005601406097412,0.4893943518400192,,858.9248213991523,test,2,,,,,,,,,,856.442842386663,856.939486399293,856.939486399293,856.9561747312546,857.3904363363981,857.9057587757707,857.9391634985805,858.9467827603221,left,1,0.6362995132803917,0.45,,,,,,,,,,,s032,001,2024-08-22_11h00.54.383,simplestop_skeleton,2022.2.2,59.73838931680416,
None,None,,,,,,,,,1,0,1,0,0,2,2,1,,,,,,,,,858.925273783505,go,squareblack.png,right,0.45,,,,,,,,,,,,,,,0.006926335394382477,0.48948974162340164,,861.4289575368166,test,2,,,,,,,,,,858.9467827603221,859.440928786993,859.440928786993,859.4575770199299,859.8913899585605,860.3918103650212,860.4418688639998,861.4477820321918,right,1,0.6303350925445557,0.45,,,,,,,,,,,s032,001,2024-08-22_11h00.54.383,simplestop_skeleton,2022.2.2,59.73838931680416,
$currentCorrectResponse,$currentGoStim,,,,,,,,,1,0,1,0,0,3,3,0,,,,,,,,,861.4293926879764,stop,squareblack.png,right,0.45,,,,,,,,,,,,,,,0.0012291744351387024,0.48965922743082047,0.9403596892952919,863.9319188371301,test,2,,,,,,,,,,861.4477820321918,861.9449048787355,861.9449048787355,861.9615313410759,862.3955917358398,862.896029137075,862.9459105208516,863.950478836894,None,0,,0.5,,,,,,,,,,,s032,001,2024-08-22_11h00.54.383,simplestop_skeleton,2022.2.2,59.73838931680416,
None,None,,,,,,,,,1,0,1,0,1,0,4,2,,,,,,,,,863.9323559105396,go,squareblack.png,right,0.5,,,,,,,,,,,,,,,0.0013062208890914917,0.4896475374698639,,866.4330684170127,test,2,,,,,,,,,,863.950478836894,864.4478743597865,864.4478743597865,864.4645179286599,864.9485439881682,865.4474975541234,865.4474975541234,866.4500006139278,right,1,0.5397894829511642,0.5,,,,,,,,,,,s032,001,2024-08-22_11h00.54.383,simplestop_skeleton,2022.2.2,59.73838931680416,
None,None,,,,,,,,,1,0,1,0,1,1,5,1,,,,,,,,,866.433506064117,go,squareblack.png,right,0.5,,,,,,,,,,,,,,,0.0011783912777900696,0.4895939901471138,,868.9366234689951,test,2,,,,,,,,,,866.4500006139278,866.9490638449788,866.9490638449788,866.9659503698349,867.4496667385101,867.9503408148885,867.9503408148885,868.9601649343967,right,1,0.6558661162853241,0.5,,,,,,,,,,,s032,001,2024-08-22_11h00.54.383,simplestop_skeleton,2022.2.2,59.73838931680416,
None,None,,,,,,,,,1,0,1,0,1,2,6,1,,,,,,,,,868.9370708838105,stop,circleblack.png,left,0.5,,,,,,,,,,,,,,,0.008069038391113281,0.4900742769241333,0.9908184260129929,871.4386824667454,test,2,,,,,,,,,,868.9601649343967,869.4531918019056,869.4531918019056,869.4699073880911,869.9536899551749,870.4528802186251,870.4528802186251,871.4553809538484,left,1,0.5217587277293205,0.45,,,,,,,,,,,s032,001,2024-08-22_11h00.54.383,simplestop_skeleton,2022.2.2,59.73838931680416,
$currentCorrectResponse,$currentGoStim,,,,,,,,,1,0,1,0,1,3,7,0,,,,,,,,,871.4391378089786,stop,circleblack.png,left,0.45,,,,,,,,,,,,,,,0.0012356191873550415,0.4895438849925995,0.9400851279497147,873.9424588009715,test,2,,,,,,,,,,871.4553809538484,871.9553022310138,871.9553022310138,871.9553022310138,872.4050373062491,872.906086884439,872.9557534456253,873.9589831531048,left,1,0.523098923265934,0.4,,,,,,,,,,,s032,001,2024-08-22_11h00.54.383,simplestop_skeleton,2022.2.2,59.73838931680416,
None,None,,,,,,,,,1,0,1,0,2,0,8,3,,,,,,,,,873.9429196938872,go,circleblack.png,left,0.4,,,,,,,,,,,,,,,0.0013445690274238586,0.4900321960449219,,876.4445389285684,test,2,,,,,,,,,,873.9589831531048,874.4587506428361,874.4587506428361,874.4587506428361,874.8592141419649,875.3598533570766,875.460336253047,876.4628347158432,left,1,0.7728191316127777,0.4,,,,,,,,,,,s032,001,2024-08-22_11h00.54.383,simplestop_skeleton,2022.2.2,59.73838931680416,
None,None,,,,,,,,,1,0,1,0,2,1,9,3,,,,,,,,,876.4449848607183,stop,squareblack.png,right,0.4,,,,,,,,,,,,,,,0.0020145773887634277,0.4892381727695465,0.8894205540418625,878.9469895660877,test,2,,,,,,,,,,876.4628347158432,876.960092164576,876.960092164576,876.9767521321774,877.3609423041344,877.8610758110881,877.9613063037395,878.9640000537038,None,0,,0.45,,,,,,,,,,,s032,001,2024-08-22_11h00.54.383,simplestop_skeleton,2022.2.2,59.73838931680416,
None,None,,,,,,,,,1,0,1,0,2,2,10,3,,,,,,,,,878.9474333077669,go,squareblack.png,right,0.45,,,,,,,,,,,,,,,0.00121229887008667,0.4893914610147476,,881.4512306898832,test,2,,,,,,,,,,878.9640000537038,879.4629203826189,879.4629203826189,879.479565627873,879.9133418872952,880.4139511585236,880.4639677032828,881.4705594331026,right,1,0.5733608826994896,0.45,,,,,,,,,,,s032,001,2024-08-22_11h00.54.383,simplestop_skeleton,2022.2.2,59.73838931680416,
None,None,,,,,,,,,1,0,1,0,2,3,11,2,,,,,,,,,881.4516643732786,go,circleblack.png,left,0.45,,,,,,,,,,,,,,,0.001980513334274292,0.48968760669231415,,883.952648408711,test,2,,,,,,,,,,881.4705594331026,881.966973669827,881.966973669827,881.9836552962661,882.4176300615072,882.9168793261051,882.9670049101114,883.9706538468599,left,1,0.7391959801316261,0.45,,,,,,,,,,,s032,001,2024-08-22_11h00.54.383,simplestop_skeleton,2022.2.2,59.73838931680416,
None,None,,,,,,,,,1,0,1,0,3,0,12,2,,,,,,,,,883.953101798892,stop,circleblack.png,left,0.45,,,,,,,,,,,,,,,0.0016407519578933716,0.488685704767704,0.9394089877605438,886.4553451165557,test,2,,,,,,,,,,883.9706538468599,884.4684064462781,884.4684064462781,884.484993673861,884.9190469160676,885.419335462153,885.4694504514337,886.4740368947387,left,1,0.5744666084647179,0.4,,,,,,,,,,,s032,001,2024-08-22_11h00.54.383,simplestop_skeleton,2022.2.2,59.73838931680416,
$currentCorrectResponse,$currentGoStim,,,,,,,,,1,0,1,0,3,1,13,0,,,,,,,,,886.4558016657829,go,circleblack.png,left,0.4,,,,,,,,,,,,,,,0.0013844147324562073,0.48793787509202957,,888.9594209939241,test,2,,,,,,,,,,886.4740368947387,886.9711620658636,886.9711620658636,886.9878574758768,887.3715948089957,887.8721054196358,887.9721281528473,888.9791047722101,left,1,0.4103509187698364,0.4,,,,,,,,,,,s032,001,2024-08-22_11h00.54.383,simplestop_skeleton,2022.2.2,59.73838931680416,
None,None,,,,,,,,,1,0,1,0,3,2,14,2,,,,,,,,,888.9598686769605,go,squareblack.png,right,0.4,,,,,,,,,,,,,,,0.0019057393074035645,0.489370621740818,,891.4611461088061,test,2,,,,,,,,,,888.9791047722101,889.4752788618207,889.4752788618207,889.492112480104,889.8756504431367,890.3751590996981,890.4751785174012,891.4797706305981,right,1,0.6232898607850075,0.4,,,,,,,,,,,s032,001,2024-08-22_11h00.54.383,simplestop_skeleton,2022.2.2,59.73838931680416,
None,None,,,,,,,,,1,0,1,0,3,3,15,2,,,,,,,,,891.4616011455655,go,squareblack.png,right,0.4,,,,,,,,,,,,,,,0.001434430480003357,0.4880013167858124,,893.9647781401873,test,2,,,,,,,,,,891.4797706305981,891.9766644462943,891.9766644462943,891.9933817237616,892.3772023245692,892.8776326403022,892.9779445305467,893.9815226718783,right,1,0.8379250541329384,0.4,,,,,,,,,,,s032,001,2024-08-22_11h00.54.383,simplestop_skeleton,2022.2.2,59.73838931680416,
None,None,,,,,,,,,1,0,1,0,4,0,16,2,,,,,,,,,893.9652196019888,go,squareblack.png,right,0.4,,,,,,,,,,,,,,,0.0013224855065345764,0.4896841496229172,,896.4664045497775,test,2,,,,,,,,,,893.9815226718783,894.4809295609593,894.4809295609593,894.4809295609593,894.8813028559089,895.382303185761,895.4822325929999,896.4841092005372,right,1,0.8065012618899345,0.4,,,,,,,,,,,s032,001,2024-08-22_11h00.54.383,simplestop_skeleton,2022.2.2,59.73838931680416,
None,None,,,,,,,,,1,0,1,0,4,1,17,3,,,,,,,,,896.4668787568808,go,squareblack.png,right,0.4,,,,,,,,,,,,,,,0.001233018934726715,0.4889621436595917,,898.9689358398318,test,2,,,,,,,,,,896.4841092005372,896.982205837965,896.982205837965,896.9989560097456,897.3828535676003,897.883139051497,897.9835414811969,898.9921588003635,right,1,0.7724554464221001,0.4,,,,,,,,,,,s032,001,2024-08-22_11h00.54.383,simplestop_skeleton,2022.2.2,59.73838931680416,
None,None,,,,,,,,,1,0,1,0,4,2,18,2,,,,,,,,,898.969392709434,go,circleblack.png,left,0.4,,,,,,,,,,,,,,,0.008156843483448029,0.4915149286389351,,901.4732356444001,test,2,,,,,,,,,,898.9921588003635,899.4869252443314,899.4869252443314,899.5034219697118,899.8853674530983,900.3860299140215,900.486141256988,901.4923777654767,left,1,0.6957917362451553,0.4,,,,,,,,,,,s032,001,2024-08-22_11h00.54.383,simplestop_skeleton,2022.2.2,59.73838931680416,
None,None,,,,,,,,,1,0,1,0,4,3,19,1,,,,,,,,,901.473691187799,stop,squareblack.png,right,0.4,,,,,,,,,,,,,,,0.001740574836730957,0.4893695339560509,0.8900782242417336,903.9761602729559,test,2,,,,,,,,,,901.4923777654767,901.9890940412879,901.9890940412879,902.006205894053,902.3897848799825,902.8902993053198,902.9903753250837,903.9956392049789,None,0,,0.45,,,,,,,,,,,s032,001,2024-08-22_11h00.54.383,simplestop_skeleton,2022.2.2,59.73838931680416,
$currentCorrectResponse,$currentGoStim,,,,,,,,,1,0,1,0,5,0,20,0,,,,,,,,,903.9766504243016,stop,circleblack.png,left,0.45,,,,,,,,,,,,,,,0.0018988624215126038,0.48963674902915955,0.939908854663372,906.4795645624399,test,2,,,,,,,,,,903.9956392049789,904.4919891655445,904.4919891655445,904.5088136121631,904.9426574483514,905.4418548718095,905.4918392524123,906.5014891922474,left,1,0.6164591386914253,0.4,,,,,,,,,,,s032,001,2024-08-22_11h00.54.383,simplestop_skeleton,2022.2.2,59.73838931680416,
None,None,,,,,,,,,1,0,1,0,5,1,21,1,,,,,,,,,906.4800363779068,go,circleblack.png,left,0.4,,,,,,,,,,,,,,,0.0014571398496627808,0.48456427454948425,,908.9799421727657,test,2,,,,,,,,,,906.5014891922474,906.9934189841151,906.9934189841151,907.009958140552,907.3938537985086,907.8942741453648,907.994445592165,909.011104002595,left,1,0.6197157800197601,0.4,,,,,,,,,,,s032,001,2024-08-22_11h00.54.383,simplestop_skeleton,2022.2.2,59.73838931680416,
$currentCorrectResponse,$currentGoStim,,,,,,,,,1,0,1,0,5,2,22,0,,,,,,,,,908.9804541319609,go,circleblack.png,left,0.4,,,,,,,,,,,,,,,0.0012793168425559998,0.48944947868585587,,911.4842071980238,test,2,,,,,,,,,,909.011104002595,909.4959199652076,909.4959199652076,909.5127603560686,909.8964222148061,910.3969867229462,910.496983319521,911.5033990368247,left,1,0.6575145944952965,0.4,,,,,,,,,,,s032,001,2024-08-22_11h00.54.383,simplestop_skeleton,2022.2.2,59.73838931680416,
None,None,,,,,,,,,1,0,1,0,5,3,23,3,,,,,,,,,911.4846890345216,stop,squareblack.png,right,0.4,,,,,,,,,,,,,,,0.0018024817109107971,0.48959576338529587,0.8900149017572403,913.9870911985636,test,2,,,,,,,,,,911.5033990368247,912.000184610486,912.000184610486,912.0167354792356,912.4008608087897,912.9013494700193,913.0012999251485,914.0060396790504,None,0,,0.45,,,,,,,,,,,s032,001,2024-08-22_11h00.54.383,simplestop_skeleton,2022.2.2,59.73838931680416,
$currentCorrectResponse,$currentGoStim,,,,,,,,,1,0,1,0,6,0,24,0,,,,,,,,,913.9875309467316,go,squareblack.png,right,0.45,,,,,,,,,,,,,,,0.001276165246963501,0.48950111865997314,,916.4899796023965,test,2,,,,,,,,,,914.0060396790504,914.5030414387584,914.5030414387584,914.5200047567487,914.9536312744021,915.4528491124511,915.5028591677547,916.5091287866235,right,1,0.5677886307239532,0.45,,,,,,,,,,,s032,001,2024-08-22_11h00.54.383,simplestop_skeleton,2022.2.2,59.73838931680416,
None,None,,,,,,,,,1,0,1,0,6,1,25,2,,,,,,,,,916.4904255494475,go,squareblack.png,right,0.45,,,,,,,,,,,,,,,0.0013839155435562134,0.48771729320287704,,918.9911161959171,test,2,,,,,,,,,,916.5091287866235,917.0043008923531,917.0043008923531,917.0211810842156,917.4549844637513,917.9554354846478,918.0055054277182,919.0090357363224,right,1,0.7136225700378418,0.45,,,,,,,,,,,s032,001,2024-08-22_11h00.54.383,simplestop_skeleton,2022.2.2,59.73838931680416,
None,None,,,,,,,,,1,0,1,0,6,2,26,1,,,,,,,,,918.9915583580732,go,circleblack.png,left,0.45,,,,,,,,,,,,,,,0.002044498920440674,0.48974938690662384,,921.4950301423669,test,2,,,,,,,,,,919.0090357363224,919.5070192366838,919.5070192366838,919.5236991867423,919.9576433673501,920.4581158980727,920.5081030726433,921.5139865577221,left,1,0.6981964707374573,0.45,,,,,,,,,,,s032,001,2024-08-22_11h00.54.383,simplestop_skeleton,2022.2.2,59.73838931680416,
None,None,,,,,,,,,1,0,1,0,6,3,27,1,,,,,,,,,921.4954782351851,go,circleblack.png,left,0.45,,,,,,,,,,,,,,,0.0012426599860191345,0.4897995591163635,,923.9964967891574,test,2,,,,,,,,,,921.5139865577221,922.0112502500415,922.0112502500415,922.0281036347151,922.4617804288864,922.9611319229007,923.0111415162683,924.0135267972946,left,1,0.5029804110527039,0.45,,,,,,,,,,,s032,001,2024-08-22_11h00.54.383,simplestop_skeleton,2022.2.2,59.73838931680416,
None,None,,,,,,,,,1,0,1,0,7,0,28,2,,,,,,,,,923.9969683885574,go,circleblack.png,left,0.45,,,,,,,,,,,,,,,0.0012305080890655518,0.49074409157037735,,926.5003132224083,test,2,,,,,,,,,,924.0135267972946,924.5152439177036,924.5152439177036,924.5152439177036,924.9630162641406,925.4635792151093,925.5308415070176,926.5186726674438,left,1,0.502768948674202,0.45,,,,,,,,,,,s032,001,2024-08-22_11h00.54.383,simplestop_skeleton,2022.2.2,59.73838931680416,
None,None,,,,,,,,,1,0,1,0,7,1,29,1,,,,,,,,,926.5007565319538,stop,circleblack.png,left,0.45,,,,,,,,,,,,,,,0.0019041523337364197,0.48856230080127716,0.9388710483908653,929.0041352212429,test,2,,,,,,,,,,926.5186726674438,927.0168620422482,927.0168620422482,927.0333289578557,927.467358507216,927.9664455503225,928.0165298208594,929.0326421484351,left,1,0.5889519825577736,0.4,,,,,,,,,,,s032,001,2024-08-22_11h00.54.383,simplestop_skeleton,2022.2.2,59.73838931680416,
None,None,,,,,,,,,1,0,1,0,7,2,30,1,,,,,,,,,929.0045925751328,stop,squareblack.png,right,0.4,,,,,,,,,,,,,,,0.007517524063587189,0.48414598405361176,0.884652204811573,931.5050966739655,test,2,,,,,,,,,,929.0326421484351,929.518238991499,929.518238991499,929.5347928479314,929.9186155796051,930.4190976768732,930.5190858021379,931.5220668241382,right,1,0.4842173382639885,0.35,,,,,,,,,,,s032,001,2024-08-22_11h00.54.383,simplestop_skeleton,2022.2.2,59.73838931680416,
None,None,,,,,,,,,1,0,1,0,7,3,31,2,,,,,,,,,931.5055643841624,go,squareblack.png,right,0.35,,,,,,,,,,,,,,,0.001216016709804535,0.48945754021406174,,934.0088652446866,test,2,,,,,,,,,,931.5220668241382,932.0207424610853,932.0207424610853,932.037620536983,932.371261768043,932.8718653395772,933.0220368728042,934.0280098989606,right,1,0.6896449327468872,0.35,,,,,,,,,,,s032,001,2024-08-22_11h00.54.383,simplestop_skeleton,2022.2.2,59.73838931680416,
None,None,,,,,,,,,1,0,1,0,8,0,32,3,,,,,,,,,934.0093053355813,go,squareblack.png,right,0.35,,,,,,,,,,,,,,,0.0012691840529441833,0.48986800760030746,,936.5113873109221,test,2,,,,,,,,,,934.0280098989606,934.5252396389842,934.5252396389842,934.5417947024107,934.8752197399735,935.376721329987,935.5267002433538,936.5308212935925,right,1,0.6890526488423347,0.35,,,,,,,,,,,s032,001,2024-08-22_11h00.54.383,simplestop_skeleton,2022.2.2,59.73838931680416,
None,None,,,,,,,,,1,0,1,0,8,1,33,1,,,,,,,,,936.511840686202,stop,circleblack.png,left,0.35,,,,,,,,,,,,,,,0.002637803554534912,0.4876459836959839,0.8380154892802238,939.0135201588273,test,2,,,,,,,,,,936.5308212935925,937.0263098552823,937.0263098552823,937.0429926514626,937.3768618628383,937.8773201182485,938.0274039432406,939.0305409505963,None,0,,0.4,,,,,,,,,,,s032,001,2024-08-22_11h00.54.383,simplestop_skeleton,2022.2.2,59.73838931680416,
$currentCorrectResponse,$currentGoStim,,,,,,,,,1,0,1,0,8,2,34,0,,,,,,,,,939.0139615386724,go,circleblack.png,left,0.4,,,,,,,,,,,,,,,0.0015111416578292847,0.4893866330385208,,941.5173118412495,test,2,,,,,,,,,,939.0305409505963,939.5293129533529,939.5293129533529,939.5460040643811,939.9295170530677,940.4302714541554,940.5302040949464,941.5372723862529,left,1,0.4949326440691948,0.4,,,,,,,,,,,s032,001,2024-08-22_11h00.54.383,simplestop_skeleton,2022.2.2,59.73838931680416,
$currentCorrectResponse,$currentGoStim,,,,,,,,,1,0,1,0,8,3,35,0,,,,,,,,,941.5177564322948,stop,squareblack.png,right,0.4,,,,,,,,,,,,,,,0.0026150494813919067,0.4891722649335861,0.8892459645867348,944.0189966708422,test,2,,,,,,,,,,941.5372723862529,942.0335575044155,942.0335575044155,942.0498320311308,942.4331297948956,942.9330547377467,943.0330509990454,944.0367436408997,right,1,0.5615039691329002,0.35,,,,,,,,,,,s032,001,2024-08-22_11h00.54.383,simplestop_skeleton,2022.2.2,59.73838931680416,
None,None,,,,,,,,,1,0,1,0,9,0,36,2,,,,,,,,,944.019443012774,go,circleblack.png,left,0.35,,,,,,,,,,,,,,,0.0017517060041427612,0.4891274571418762,,946.5248747989535,test,2,,,,,,,,,,944.0367436408997,944.534527361393,944.534527361393,944.5513114780188,944.8851289749146,945.3855605497956,945.5358202755451,946.5426269546151,left,1,0.5878370180726051,0.35,,,,,,,,,,,s032,001,2024-08-22_11h00.54.383,simplestop_skeleton,2022.2.2,59.73838931680416,
None,None,,,,,,,,,1,0,1,0,9,1,37,1,,,,,,,,,946.5253375768661,stop,squareblack.png,right,0.35,,,,,,,,,,,,,,,0.0023902729153633118,0.4875558763742447,0.8381160497665405,949.0244490280747,test,2,,,,,,,,,,946.5426269546151,947.0387629568577,947.0387629568577,947.0553919151425,947.3894762098789,947.9049780666828,948.0385020300746,949.0433509424329,right,1,0.3395574912428856,0.3,,,,,,,,,,,s032,001,2024-08-22_11h00.54.383,simplestop_skeleton,2022.2.2,59.73838931680416,
None,None,,,,,,,,,1,0,1,0,9,2,38,3,,,,,,,,,949.0248975306749,go,circleblack.png,left,0.3,,,,,,,,,,,,,,,0.0017521306872367859,0.48834212124347687,,951.5282265543938,test,2,,,,,,,,,,949.0433509424329,949.5404571741819,949.5404571741819,949.5571586936712,949.840639680624,950.3411934748292,950.5413393080235,951.5473794043064,left,1,0.2947647124528885,0.3,,,,,,,,,,,s032,001,2024-08-22_11h00.54.383,simplestop_skeleton,2022.2.2,59.73838931680416,
None,None,,,,,,,,,1,0,1,0,9,3,39,3,,,,,,,,,951.5286722406745,stop,circleblack.png,left,0.3,,,,,,,,,,,,,,,0.001508474349975586,0.4896550700068474,0.7904072999954224,954.0311941280961,test,2,,,,,,,,,,951.5473794043064,952.0445628538728,952.0445628538728,952.0612160563469,952.3445783406496,952.8439130112529,953.0439982116222,954.0508651062846,right,0,0.3929184377193451,0.25,,,,,,,,,,,s032,001,2024-08-22_11h00.54.383,simplestop_skeleton,2022.2.2,59.73838931680416,
$currentCorrectResponse,$currentGoStim,,,,,,,,,1,0,1,0,10,0,40,0,,,,,,,,,954.0316308885813,stop,squareblack.png,right,0.25,,,,,,,,,,,,,,,0.0017507299780845642,0.4891190826892853,0.7386177480220795,956.5403364598751,test,2,,,,,,,,,,954.0508651062846,954.5484454184771,954.5484454184771,954.562473654747,954.7962782531977,955.2964694947004,955.5653069615364,956.5579859241843,None,0,,0.3,,,,,,,,,,,s032,001,2024-08-22_11h00.54.383,simplestop_skeleton,2022.2.2,59.73838931680416,
None,None,,,,,,,,,1,0,1,0,10,1,41,3,,,,,,,,,956.540777720511,go,circleblack.png,left,0.3,,,,,,,,,,,,,,,0.001814529299736023,0.4827554300427437,,959.0365572050214,test,2,,,,,,,,,,956.5579859241843,957.0498280972242,957.0498280972242,957.0664625838399,957.3502559438348,957.8493357300758,958.0495275110006,959.0560854002833,left,1,0.4351997375488281,0.3,,,,,,,,,,,s032,001,2024-08-22_11h00.54.383,simplestop_skeleton,2022.2.2,59.73838931680416,
None,None,,,,,,,,,1,0,1,0,10,2,42,1,,,,,,,,,959.0370079353452,go,squareblack.png,right,0.3,,,,,,,,,,,,,,,0.0017813891172409058,0.4879978075623512,,961.5379346981645,test,2,,,,,,,,,,959.0560854002833,959.5511957928538,959.5511957928538,959.5678737983108,959.8516087010503,960.3520336449146,960.552324257791,961.5546810850501,right,1,0.6186526492238045,0.3,,,,,,,,,,,s032,001,2024-08-22_11h00.54.383,simplestop_skeleton,2022.2.2,59.73838931680416,
None,None,,,,,,,,,1,0,1,0,10,3,43,3,,,,,,,,,961.5383789688349,go,squareblack.png,right,0.3,,,,,,,,,,,,,,,0.001182354986667633,0.4899304211139679,,964.0420914590359,test,2,,,,,,,,,,961.5546810850501,962.0541272908449,962.0541272908449,962.0541272908449,962.3542580679059,962.8549660891294,963.055041141808,964.0609945580363,right,1,0.5747636929154396,0.3,,,,,,,,,,,s032,001,2024-08-22_11h00.54.383,simplestop_skeleton,2022.2.2,59.73838931680416,
$currentCorrectResponse,$currentGoStim,,,,,,,,,1,0,1,0,11,0,44,0,,,,,,,,,964.0425630137324,go,squareblack.png,right,0.3,,,,,,,,,,,,,,,0.0013453811407089233,0.48960278183221817,,966.5454064309597,test,2,,,,,,,,,,964.0609945580363,964.5582683607936,964.5582683607936,964.5749813318253,964.8584662079811,965.3595718890429,965.5579102784395,966.5651672631502,right,1,0.5163691490888596,0.3,,,,,,,,,,,s032,001,2024-08-22_11h00.54.383,simplestop_skeleton,2022.2.2,59.73838931680416,
$currentCorrectResponse,$currentGoStim,,,,,,,,,1,0,1,0,11,1,45,0,,,,,,,,,966.5458464324474,stop,circleblack.png,left,0.3,,,,,,,,,,,,,,,0.002655528485774994,0.48757366836071014,0.7880885824561119,969.0463493689895,test,2,,,,,,,,,,966.5651672631502,967.0594851076603,967.0594851076603,967.0761330500245,967.3598333448172,967.8604655265808,968.060530282557,969.0637027621269,left,1,0.3825729936361313,0.25,,,,,,,,,,,s032,001,2024-08-22_11h00.54.383,simplestop_skeleton,2022.2.2,59.73838931680416,
$currentCorrectResponse,$currentGoStim,,,,,,,,,1,0,1,0,11,2,46,0,,,,,,,,,969.0468190386891,go,squareblack.png,right,0.25,,,,,,,,,,,,,,,0.0016907453536987305,0.489563450217247,,971.5505021959543,test,2,,,,,,,,,,969.0637027621269,969.5622919723392,969.5622919723392,969.5790515467525,969.8124890401959,970.3132107406855,970.563314691186,971.5699784010649,right,1,0.5723543092608452,0.25,,,,,,,,,,,s032,001,2024-08-22_11h00.54.383,simplestop_skeleton,2022.2.2,59.73838931680416,
None,None,,,,,,,,,1,0,1,0,11,3,47,3,,,,,,,,,971.5509445741773,go,circleblack.png,left,0.25,,,,,,,,,,,,,,,0.001853838562965393,0.4894576817750931,,974.0516848489642,test,2,,,,,,,,,,971.5699784010649,972.0664544031024,972.0664544031024,972.0831275582314,972.3167299926281,972.816236667335,973.0660300478339,974.0725862011313,left,1,0.4674350470304489,0.25,,,,,,,,,,,s032,001,2024-08-22_11h00.54.383,simplestop_skeleton,2022.2.2,59.73838931680416,
,,,,,,,,,,1,0,1,0,,,,,,,,,,,,,,,,,,,,,,,,,,,,,,,,,,,,,,,,,,,,,,,,,,,,,,,,,,,974.0725862011313,974.0725862011313,return,9.47464807331562,"[{'fileName': 'circleblack.png', 'correct_response': 'left', 'condition': 'stop'}, {'fileName': 'circleblack.png', 'correct_response': 'left', 'condition': 'stop'}, {'fileName': 'squareblack.png', 'correct_response': 'right', 'condition': 'go'}, {'fileName': 'circleblack.png', 'correct_response': 'left', 'condition': 'go'}, {'fileName': 'circleblack.png', 'correct_response': 'left', 'condition': 'go'}, {'fileName': 'squareblack.png', 'correct_response': 'right', 'condition': 'stop'}, {'fileName': 'squareblack.png', 'correct_response': 'right', 'condition': 'stop'}, {'fileName': 'squareblack.png', 'correct_response': 'right', 'condition': 'go'}, {'fileName': 'circleblack.png', 'correct_response': 'left', 'condition': 'go'}, {'fileName': 'circleblack.png', 'correct_response': 'left', 'condition': 'go'}, {'fileName': 'squareblack.png', 'correct_response': 'right', 'condition': 'go'}, {'fileName': 'squareblack.png', 'correct_response': 'right', 'condition': 'go'}, {'fileName': 'squareblack.png', 'correct_response': 'right', 'condition': 'go'}, {'fileName': 'circleblack.png', 'correct_response': 'left', 'condition': 'go'}, {'fileName': 'squareblack.png', 'correct_response': 'right', 'condition': 'go'}, {'fileName': 'circleblack.png', 'correct_response': 'left', 'condition': 'stop'}, {'fileName': 'squareblack.png', 'correct_response': 'right', 'condition': 'go'}, {'fileName': 'squareblack.png', 'correct_response': 'right', 'condition': 'stop'}, {'fileName': 'circleblack.png', 'correct_response': 'left', 'condition': 'go'}, {'fileName': 'squareblack.png', 'correct_response': 'right', 'condition': 'stop'}, {'fileName': 'circleblack.png', 'correct_response': 'left', 'condition': 'go'}, {'fileName': 'squareblack.png', 'correct_response': 'right', 'condition': 'go'}, {'fileName': 'circleblack.png', 'correct_response': 'left', 'condition': 'go'}, {'fileName': 'circleblack.png', 'correct_response': 'left', 'condition': 'stop'}, {'fileName': 'circleblack.png', 'correct_response': 'left', 'condition': 'stop'}, {'fileName': 'squareblack.png', 'correct_response': 'right', 'condition': 'go'}, {'fileName': 'circleblack.png', 'correct_response': 'left', 'condition': 'go'}, {'fileName': 'circleblack.png', 'correct_response': 'left', 'condition': 'go'}, {'fileName': 'circleblack.png', 'correct_response': 'left', 'condition': 'stop'}, {'fileName': 'squareblack.png', 'correct_response': 'right', 'condition': 'go'}, {'fileName': 'squareblack.png', 'correct_response': 'right', 'condition': 'go'}, {'fileName': 'circleblack.png', 'correct_response': 'left', 'condition': 'go'}, {'fileName': 'circleblack.png', 'correct_response': 'left', 'condition': 'go'}, {'fileName': 'squareblack.png', 'correct_response': 'right', 'condition': 'stop'}, {'fileName': 'squareblack.png', 'correct_response': 'right', 'condition': 'go'}, {'fileName': 'squareblack.png', 'correct_response': 'right', 'condition': 'stop'}, {'fileName': 'circleblack.png', 'correct_response': 'left', 'condition': 'stop'}, {'fileName': 'circleblack.png', 'correct_response': 'left', 'condition': 'stop'}, {'fileName': 'circleblack.png', 'correct_response': 'left', 'condition': 'go'}, {'fileName': 'squareblack.png', 'correct_response': 'right', 'condition': 'go'}, {'fileName': 'squareblack.png', 'correct_response': 'right', 'condition': 'stop'}, {'fileName': 'squareblack.png', 'correct_response': 'right', 'condition': 'go'}, {'fileName': 'circleblack.png', 'correct_response': 'left', 'condition': 'go'}, {'fileName': 'circleblack.png', 'correct_response': 'left', 'condition': 'go'}, {'fileName': 'circleblack.png', 'correct_response': 'left', 'condition': 'go'}, {'fileName': 'squareblack.png', 'correct_response': 'right', 'condition': 'go'}, {'fileName': 'squareblack.png', 'correct_response': 'right', 'condition': 'go'}, {'fileName': 'squareblack.png', 'correct_response': 'right', 'condition': 'stop'}]",,,,,,s032,001,2024-08-22_11h00.54.383,simplestop_skeleton,2022.2.2,59.73838931680416,
None,None,,,,,,,,,2,0,2,0,0,0,0,2,,,,,,,,,983.5879431888461,stop,circleblack.png,left,0.25,,,,,,,,,,,,,,,0.0012709572911262512,0.49885712563991547,0.7490985617041588,986.1000050529838,test,3,,,,,,,,,,983.6063414737582,984.1131474971771,984.1131474971771,984.1131474971771,984.3632568195462,984.8641777262092,985.1142698973417,986.1191455125809,None,0,,0.3,,,,,,,,,,,s032,001,2024-08-22_11h00.54.383,simplestop_skeleton,2022.2.2,59.73838931680416,
None,None,,,,,,,,,2,0,2,0,0,1,1,1,,,,,,,,,986.1005706042051,stop,circleblack.png,left,0.3,,,,,,,,,,,,,,,0.0013343766331672668,0.48956747353076935,0.7900187522172928,988.6016159877181,test,3,,,,,,,,,,986.1191455125809,986.6156871765852,986.6156871765852,986.6325344741344,986.9161567017436,987.4155756533146,987.6154280975461,988.623392522335,left,1,0.3153884783387184,0.25,,,,,,,,,,,s032,001,2024-08-22_11h00.54.383,simplestop_skeleton,2022.2.2,59.73838931680416,
None,None,,,,,,,,,2,0,2,0,0,2,2,3,,,,,,,,,988.6020671799779,go,squareblack.png,right,0.25,,,,,,,,,,,,,,,0.007136546075344086,0.48949597030878067,,991.1047229766846,test,3,,,,,,,,,,988.623392522335,989.1172272264957,989.1172272264957,989.1338373944163,989.3677061721683,989.8681524172425,990.1182169094682,991.1224383190274,right,1,0.36909014731645584,0.25,,,,,,,,,,,s032,001,2024-08-22_11h00.54.383,simplestop_skeleton,2022.2.2,59.73838931680416,
$currentCorrectResponse,$currentGoStim,,,,,,,,,2,0,2,0,0,3,3,0,,,,,,,,,991.1051894724369,go,circleblack.png,left,0.25,,,,,,,,,,,,,,,0.0018684715032577515,0.49038445949554443,,993.608699850738,test,3,,,,,,,,,,991.1224383190274,991.6216233968735,991.6216233968735,991.6380938440561,991.8714942708611,992.3728632479906,992.6211650669575,993.6301313564181,left,1,0.4925670102238655,0.25,,,,,,,,,,,s032,001,2024-08-22_11h00.54.383,simplestop_skeleton,2022.2.2,59.73838931680416,
None,None,,,,,,,,,2,0,2,0,1,0,4,3,,,,,,,,,993.6091865897179,go,circleblack.png,left,0.25,,,,,,,,,,,,,,,0.0023166462779045105,0.486061692237854,,996.109638273716,test,3,,,,,,,,,,993.6301313564181,994.1226293295622,994.1226293295622,994.1394232213497,994.3730769827962,994.8734113126993,995.123765990138,996.13158005476,left,1,0.47166169434785843,0.25,,,,,,,,,,,s032,001,2024-08-22_11h00.54.383,simplestop_skeleton,2022.2.2,59.73838931680416,
$currentCorrectResponse,$currentGoStim,,,,,,,,,2,0,2,0,1,1,5,0,,,,,,,,,996.110100261867,stop,squareblack.png,right,0.25,,,,,,,,,,,,,,,0.007067568600177765,0.4896668493747711,0.7400057017803192,998.6136761307716,test,3,,,,,,,,,,996.13158005476,996.6255921944976,996.6255921944976,996.6423343643546,996.8756587579846,997.3764257952571,997.6266803070903,998.6323720663786,None,0,,0.3,,,,,,,,,,,s032,001,2024-08-22_11h00.54.383,simplestop_skeleton,2022.2.2,59.73838931680416,
None,None,,,,,,,,,2,0,2,0,1,2,6,2,,,,,,,,,998.614112071693,stop,squareblack.png,right,0.3,,,,,,,,,,,,,,,0.001268528401851654,0.49016454815864563,0.7883702740073204,1001.1160182058811,test,3,,,,,,,,,,998.6323720663786,999.1300455108285,999.1300455108285,999.1451224312186,999.4285496994853,999.9290428608656,1000.1294977962971,1001.1327419355512,right,1,0.28224117308855057,0.25,,,,,,,,,,,s032,001,2024-08-22_11h00.54.383,simplestop_skeleton,2022.2.2,59.73838931680416,
None,None,,,,,,,,,2,0,2,0,1,3,7,1,,,,,,,,,1001.1164629533887,go,squareblack.png,right,0.25,,,,,,,,,,,,,,,0.0012379959225654602,0.490158386528492,,1003.617845878005,test,3,,,,,,,,,,1001.1327419355512,1001.6322997733951,1001.6322997733951,1001.6322997733951,1001.8825138583779,1002.3832154497504,1002.6322068423033,1003.6374628692865,right,1,0.6485659256577492,0.25,,,,,,,,,,,s032,001,2024-08-22_11h00.54.383,simplestop_skeleton,2022.2.2,59.73838931680416,
None,None,,,,,,,,,2,0,2,0,2,0,8,3,,,,,,,,,1003.6182922646403,go,circleblack.png,left,0.25,,,,,,,,,,,,,,,0.0026549622416496277,0.4886517599225044,,1006.1206611022353,test,3,,,,,,,,,,1003.6374628692865,1004.1337902024388,1004.1337902024388,1004.1504260078073,1004.3842000514269,1004.8845218867064,1005.1348790898919,1006.1376173868775,left,1,0.5224440023303032,0.25,,,,,,,,,,,s032,001,2024-08-22_11h00.54.383,simplestop_skeleton,2022.2.2,59.73838931680416,
None,None,,,,,,,,,2,0,2,0,2,1,9,3,,,,,,,,,1006.1211157739162,go,circleblack.png,left,0.25,,,,,,,,,,,,,,,0.0012391209602355957,0.4895607903599739,,1008.6236263737082,test,3,,,,,,,,,,1006.1376173868775,1006.6366559639573,1006.6366559639573,1006.653323404491,1006.8867641687393,1007.3873711377382,1007.6378123611212,1008.6414598599076,left,1,0.47058406472206116,0.25,,,,,,,,,,,s032,001,2024-08-22_11h00.54.383,simplestop_skeleton,2022.2.2,59.73838931680416,
$currentCorrectResponse,$currentGoStim,,,,,,,,,2,0,2,0,2,2,10,0,,,,,,,,,1008.6240726113319,go,squareblack.png,right,0.25,,,,,,,,,,,,,,,0.001692838966846466,0.490671306848526,,1011.1272983551025,test,3,,,,,,,,,,1008.6414598599076,1009.1407560110092,1009.1407560110092,1009.1407560110092,1009.3909187093377,1009.8901860192418,1010.1402971595526,1011.1470905467868,right,1,0.4103223383426666,0.25,,,,,,,,,,,s032,001,2024-08-22_11h00.54.383,simplestop_skeleton,2022.2.2,59.73838931680416,
None,None,,,,,,,,,2,0,2,0,2,3,11,3,,,,,,,,,1011.1277367770672,go,squareblack.png,right,0.25,,,,,,,,,,,,,,,0.0014654919505119324,0.4879463091492653,,1013.6290464103222,test,3,,,,,,,,,,1011.1470905467868,1011.6420409157872,1011.6420409157872,1011.6586853191257,1011.892377898097,1012.392823703587,1012.6432706341147,1013.6487103104591,right,1,0.5108079984784126,0.25,,,,,,,,,,,s032,001,2024-08-22_11h00.54.383,simplestop_skeleton,2022.2.2,59.73838931680416,
None,None,,,,,,,,,2,0,2,0,3,0,12,2,,,,,,,,,1013.6296835467219,go,squareblack.png,right,0.25,,,,,,,,,,,,,,,0.0022221505641937256,0.4872874990105629,,1016.1331057026982,test,3,,,,,,,,,,1013.6487103104591,1014.144960179925,1014.144960179925,1014.161594234407,1014.3950477838516,1014.8960904479027,1015.1461327970028,1016.152851626277,right,1,0.5578454360365868,0.25,,,,,,,,,,,s032,001,2024-08-22_11h00.54.383,simplestop_skeleton,2022.2.2,59.73838931680416,
None,None,,,,,,,,,2,0,2,0,3,1,13,3,,,,,,,,,1016.1335398703814,go,circleblack.png,left,0.25,,,,,,,,,,,,,,,0.0020847097039222717,0.4894440397620201,,1018.6344479992986,test,3,,,,,,,,,,1016.152851626277,1016.6491821780801,1016.6491821780801,1016.6657108664513,1016.8992529064417,1017.4001437723637,1017.6487924829125,1018.6518326848745,left,1,0.5118550807237625,0.25,,,,,,,,,,,s032,001,2024-08-22_11h00.54.383,simplestop_skeleton,2022.2.2,59.73838931680416,
$currentCorrectResponse,$currentGoStim,,,,,,,,,2,0,2,0,3,2,14,0,,,,,,,,,1018.6349024251103,go,squareblack.png,right,0.25,,,,,,,,,,,,,,,0.0016107484698295593,0.4893641248345375,,1021.1369509622455,test,3,,,,,,,,,,1018.6518326848745,1019.1502285897732,1019.1502285897732,1019.1669629141688,1019.4006429538131,1019.9010109975934,1020.1513667628169,1021.1542104333639,right,1,0.4929574206471443,0.25,,,,,,,,,,,s032,001,2024-08-22_11h00.54.383,simplestop_skeleton,2022.2.2,59.73838931680416,
$currentCorrectResponse,$currentGoStim,,,,,,,,,2,0,2,0,3,3,15,0,,,,,,,,,1021.1373918652534,stop,circleblack.png,left,0.25,,,,,,,,,,,,,,,0.0017719194293022156,0.48986562341451645,0.740008182823658,1023.6413690671325,test,3,,,,,,,,,,1021.1542104333639,1021.6532923951745,1021.6532923951745,1021.6698586344719,1021.903224080801,1022.4039751142263,1022.6544241085649,1023.661560587585,left,1,0.4015323221683502,0.2,,,,,,,,,,,s032,001,2024-08-22_11h00.54.383,simplestop_skeleton,2022.2.2,59.73838931680416,
$currentCorrectResponse,$currentGoStim,,,,,,,,,2,0,2,0,4,0,16,0,,,,,,,,,1023.6418182775378,go,squareblack.png,right,0.2,,,,,,,,,,,,,,,0.0024545490741729736,0.4889643117785454,,1026.1446788161993,test,3,,,,,,,,,,1023.661560587585,1024.1574601009488,1024.1574601009488,1024.1740105897188,1024.3575360551476,1024.85829218477,1025.1571030691266,1026.1653622686863,right,1,0.5631513223052025,0.2,,,,,,,,,,,s032,001,2024-08-22_11h00.54.383,simplestop_skeleton,2022.2.2,59.73838931680416,
None,None,,,,,,,,,2,0,2,0,4,1,17,2,,,,,,,,,1026.1451499909163,stop,squareblack.png,right,0.2,,,,,,,,,,,,,,,0.0021941065788269043,0.486688457429409,0.6868252903223038,1028.645430162549,test,3,,,,,,,,,,1026.1653622686863,1026.6587210968137,1026.6587210968137,1026.6753667891026,1026.8591148778796,1027.3593919426203,1027.6597522497177,1028.6630701571703,None,0,,0.25,,,,,,,,,,,s032,001,2024-08-22_11h00.54.383,simplestop_skeleton,2022.2.2,59.73838931680416,
None,None,,,,,,,,,2,0,2,0,4,2,18,1,,,,,,,,,1028.6458914875984,go,circleblack.png,left,0.25,,,,,,,,,,,,,,,0.0017803311347961426,0.48955924063920975,,1031.1487336456776,test,3,,,,,,,,,,1028.6630701571703,1029.1613837108016,1029.1613837108016,1029.1781021282077,1029.4116094484925,1029.9121178537607,1030.1625694930553,1031.1663388386369,left,1,0.4458414390683174,0.25,,,,,,,,,,,s032,001,2024-08-22_11h00.54.383,simplestop_skeleton,2022.2.2,59.73838931680416,
None,None,,,,,,,,,2,0,2,0,4,3,19,3,,,,,,,,,1031.1491850614548,stop,squareblack.png,right,0.25,,,,,,,,,,,,,,,0.0016559213399887085,0.4902345761656761,0.7407461404800415,1033.6521775275469,test,3,,,,,,,,,,1031.1663388386369,1031.665695875883,1031.665695875883,1031.6820201799273,1031.915799587965,1032.4162866175175,1032.666581980884,1033.6716404631734,None,0,,0.3,,,,,,,,,,,s032,001,2024-08-22_11h00.54.383,simplestop_skeleton,2022.2.2,59.73838931680416,
None,None,,,,,,,,,2,0,2,0,5,0,20,1,,,,,,,,,1033.652655892074,go,circleblack.png,left,0.3,,,,,,,,,,,,,,,0.0017934441566467285,0.4898575097322464,,1036.1535920277238,test,3,,,,,,,,,,1033.6716404631734,1034.1683874577284,1034.1683874577284,1034.185040563345,1034.4689557477832,1034.9845896065235,1035.1681787669659,1036.1713501885533,left,1,0.39408818632364273,0.3,,,,,,,,,,,s032,001,2024-08-22_11h00.54.383,simplestop_skeleton,2022.2.2,59.73838931680416,
None,None,,,,,,,,,2,0,2,0,5,1,21,3,,,,,,,,,1036.1540468931198,go,squareblack.png,right,0.3,,,,,,,,,,,,,,,0.0015720576047897339,0.48930900543928146,,1038.6565527543426,test,3,,,,,,,,,,1036.1713501885533,1036.670466274023,1036.670466274023,1036.6906640902162,1036.97025796026,1037.4705391153693,1037.6707904711366,1038.6749733760953,right,1,0.4547436311841011,0.3,,,,,,,,,,,s032,001,2024-08-22_11h00.54.383,simplestop_skeleton,2022.2.2,59.73838931680416,
None,None,,,,,,,,,2,0,2,0,5,2,22,2,,,,,,,,,1038.65699595958,go,circleblack.png,left,0.3,,,,,,,,,,,,,,,0.0017938166856765747,0.49071113765239716,,1041.159638851881,test,3,,,,,,,,,,1038.6749733760953,1039.1742453947663,1039.1742453947663,1039.1742453947663,1039.4727985411882,1039.973393753171,1040.173724129796,1041.177036896348,left,1,0.42552540451288223,0.3,,,,,,,,,,,s032,001,2024-08-22_11h00.54.383,simplestop_skeleton,2022.2.2,59.73838931680416,
$currentCorrectResponse,$currentGoStim,,,,,,,,,2,0,2,0,5,3,23,0,,,,,,,,,1041.160093344748,stop,circleblack.png,left,0.3,,,,,,,,,,,,,,,0.0012538731098175049,0.49072524160146713,0.7910646498203278,1043.6642381995916,test,3,,,,,,,,,,1041.177036896348,1041.676556430757,1041.676556430757,1041.676556430757,1041.9771096110344,1042.492897234857,1042.6761917248368,1043.687865756452,left,1,0.40509530901908875,0.25,,,,,,,,,,,s032,001,2024-08-22_11h00.54.383,simplestop_skeleton,2022.2.2,59.73838931680416,
None,None,,,,,,,,,2,0,2,0,6,0,24,2,,,,,,,,,1043.6650321111083,stop,circleblack.png,left,0.25,,,,,,,,,,,,,,,0.001831062138080597,0.4835480526089668,0.7338642776012421,1046.1646376177669,test,3,,,,,,,,,,1043.687865756452,1044.177867271006,1044.177867271006,1044.194554246962,1044.428322762251,1044.9286037236452,1045.179021641612,1046.182308100164,None,0,,0.3,,,,,,,,,,,s032,001,2024-08-22_11h00.54.383,simplestop_skeleton,2022.2.2,59.73838931680416,
None,None,,,,,,,,,2,0,2,0,6,1,25,2,,,,,,,,,1046.1650936678052,go,squareblack.png,right,0.3,,,,,,,,,,,,,,,0.0016701668500900269,0.4896320402622223,,1048.6687555611134,test,3,,,,,,,,,,1046.182308100164,1046.6808548346162,1046.6808548346162,1046.6976163685322,1046.981034077704,1047.4815838113427,1047.6819355338812,1048.6879084557295,right,1,0.5537055805325508,0.3,,,,,,,,,,,s032,001,2024-08-22_11h00.54.383,simplestop_skeleton,2022.2.2,59.73838931680416,
None,None,,,,,,,,,2,0,2,0,6,2,26,1,,,,,,,,,1048.6691984385252,go,circleblack.png,left,0.3,,,,,,,,,,,,,,,0.0018205270171165466,0.48973000794649124,,1051.1722734868526,test,3,,,,,,,,,,1048.6879084557295,1049.185089200735,1049.185089200735,1049.201575011015,1049.4850952401757,1049.9843798652291,1050.1848227977753,1051.1933607459068,left,1,0.4779048264026642,0.3,,,,,,,,,,,s032,001,2024-08-22_11h00.54.383,simplestop_skeleton,2022.2.2,59.73838931680416,
None,None,,,,,,,,,2,0,2,0,6,3,27,1,,,,,,,,,1051.1727487295866,go,circleblack.png,left,0.3,,,,,,,,,,,,,,,0.002227410674095154,0.4860451892018318,,1053.6728097051382,test,3,,,,,,,,,,1051.1933607459068,1051.6861084923148,1051.6861084923148,1051.7028268575668,1051.9871718138456,1052.4870175495744,1052.6872135549784,1053.6896431818604,left,1,0.4340871423482895,0.3,,,,,,,,,,,s032,001,2024-08-22_11h00.54.383,simplestop_skeleton,2022.2.2,59.73838931680416,
None,None,,,,,,,,,2,0,2,0,7,0,28,1,,,,,,,,,1053.6732453554869,stop,circleblack.png,left,0.3,,,,,,,,,,,,,,,0.0012508034706115723,0.4906804859638214,0.7918938025832176,1056.175769008696,test,3,,,,,,,,,,1053.6896431818604,1054.189693711698,1054.189693711698,1054.189693711698,1054.4912754446268,1055.0064150616527,1055.1899292320013,1056.193190343678,left,1,0.3966877907514572,0.25,,,,,,,,,,,s032,001,2024-08-22_11h00.54.383,simplestop_skeleton,2022.2.2,59.73838931680416,
None,None,,,,,,,,,2,0,2,0,7,1,29,2,,,,,,,,,1056.1762079447508,go,squareblack.png,right,0.25,,,,,,,,,,,,,,,0.001675620675086975,0.4894164800643921,,1058.6802109777927,test,3,,,,,,,,,,1056.193190343678,1056.6917166784406,1056.6917166784406,1056.7083372697234,1056.9418455585837,1057.4426636621356,1057.6927429363132,1058.6991092413664,right,1,0.49669044464826584,0.25,,,,,,,,,,,s032,001,2024-08-22_11h00.54.383,simplestop_skeleton,2022.2.2,59.73838931680416,
$currentCorrectResponse,$currentGoStim,,,,,,,,,2,0,2,0,7,2,30,0,,,,,,,,,1058.6806662529707,go,squareblack.png,right,0.25,,,,,,,,,,,,,,,0.0012967884540557861,0.4894116744399071,,1061.1819227859378,test,3,,,,,,,,,,1058.6991092413664,1059.196150071919,1059.196150071919,1059.212599940598,1059.4461862817407,1059.9457300528884,1060.1957579404116,1061.2000996619463,right,1,0.46796754002571106,0.25,,,,,,,,,,,s032,001,2024-08-22_11h00.54.383,simplestop_skeleton,2022.2.2,59.73838931680416,
$currentCorrectResponse,$currentGoStim,,,,,,,,,2,0,2,0,7,3,31,0,,,,,,,,,1061.18237914145,go,circleblack.png,left,0.25,,,,,,,,,,,,,,,0.0018156468868255615,0.488585501909256,,1063.68416582793,test,3,,,,,,,,,,1061.2000996619463,1061.6972494348884,1061.6972494348884,1061.7139781862497,1061.947808086872,1062.4481040760875,1062.698513314128,1063.715089596808,left,1,0.41666629910469055,0.25,,,,,,,,,,,s032,001,2024-08-22_11h00.54.383,simplestop_skeleton,2022.2.2,59.73838931680416,
None,None,,,,,,,,,2,0,2,0,8,0,32,2,,,,,,,,,1063.684618651867,go,circleblack.png,left,0.25,,,,,,,,,,,,,,,0.0013249516487121582,0.4900938719511032,,1066.1880297511816,test,3,,,,,,,,,,1063.715089596808,1064.2003376334906,1064.2003376334906,1064.2167950719595,1064.4502122998238,1064.951665006578,1065.201315894723,1066.20736566931,left,1,0.4615243226289749,0.25,,,,,,,,,,,s032,001,2024-08-22_11h00.54.383,simplestop_skeleton,2022.2.2,59.73838931680416,
None,None,,,,,,,,,2,0,2,0,8,1,33,3,,,,,,,,,1066.1884748637676,stop,squareblack.png,right,0.25,,,,,,,,,,,,,,,0.0016719549894332886,0.48988018929958344,0.7401759177446365,1068.6911824271083,test,3,,,,,,,,,,1066.20736566931,1066.704158872366,1066.704158872366,1066.7208737954497,1066.954271607101,1067.453651048243,1067.7037900090218,1068.7106995806098,right,1,0.373309001326561,0.2,,,,,,,,,,,s032,001,2024-08-22_11h00.54.383,simplestop_skeleton,2022.2.2,59.73838931680416,
None,None,,,,,,,,,2,0,2,0,8,2,34,1,,,,,,,,,1068.6916333138943,go,squareblack.png,right,0.2,,,,,,,,,,,,,,,0.0014819279313087463,0.4875662997364998,,1071.1922813132405,test,3,,,,,,,,,,1068.7106995806098,1069.2054036557674,1069.2054036557674,1069.2221174389124,1069.4064533561468,1069.906201057136,1070.2064980491996,1071.2092330157757,right,1,0.36054691672325134,0.2,,,,,,,,,,,s032,001,2024-08-22_11h00.54.383,simplestop_skeleton,2022.2.2,59.73838931680416,
None,None,,,,,,,,,2,0,2,0,8,3,35,2,,,,,,,,,1071.1927441507578,stop,squareblack.png,right,0.2,,,,,,,,,,,,,,,0.0011981576681137085,0.48993589729070663,0.6897416412830353,1073.6956758201122,test,3,,,,,,,,,,1071.2092330157757,1071.7084016501904,1071.7084016501904,1071.7084016501904,1071.9084590822458,1072.4089891910553,1072.709558710456,1073.715229973197,None,0,,0.25,,,,,,,,,,,s032,001,2024-08-22_11h00.54.383,simplestop_skeleton,2022.2.2,59.73838931680416,
$currentCorrectResponse,$currentGoStim,,,,,,,,,2,0,2,0,9,0,36,0,,,,,,,,,1073.6961166262627,stop,circleblack.png,left,0.25,,,,,,,,,,,,,,,0.0022521987557411194,0.48986872285604477,0.7399667203426361,1076.1992124021053,test,3,,,,,,,,,,1073.715229973197,1074.21235306561,1074.21235306561,1074.2290102168918,1074.4626778811216,1074.9634246900678,1075.2135081887245,1076.218379303813,None,0,,0.3,,,,,,,,,,,s032,001,2024-08-22_11h00.54.383,simplestop_skeleton,2022.2.2,59.73838931680416,
None,None,,,,,,,,,2,0,2,0,9,1,37,2,,,,,,,,,1076.1996794939041,stop,circleblack.png,left,0.3,,,,,,,,,,,,,,,0.001448892056941986,0.4895240366458893,0.7896304354071617,1078.7019008249044,test,3,,,,,,,,,,1076.218379303813,1076.7150544822216,1076.7150544822216,1076.731835976243,1077.0156380683184,1077.5162348896265,1077.7162015512586,1078.7208837643266,None,0,,0.35,,,,,,,,,,,s032,001,2024-08-22_11h00.54.383,simplestop_skeleton,2022.2.2,59.73838931680416,
None,None,,,,,,,,,2,0,2,0,9,2,38,1,,,,,,,,,1078.7023630142212,go,circleblack.png,left,0.35,,,,,,,,,,,,,,,0.0013666003942489624,0.4894309267401695,,1081.2046721354127,test,3,,,,,,,,,,1078.7208837643266,1079.218226350844,1079.218226350844,1079.2345642894506,1079.568530395627,1080.0676078498363,1080.2176114469767,1081.229512564838,left,1,0.3938850611448288,0.35,,,,,,,,,,,s032,001,2024-08-22_11h00.54.383,simplestop_skeleton,2022.2.2,59.73838931680416,
$currentCorrectResponse,$currentGoStim,,,,,,,,,2,0,2,0,9,3,39,0,,,,,,,,,1081.205127671361,go,squareblack.png,right,0.35,,,,,,,,,,,,,,,0.0075883567333221436,0.4878070577979088,,1083.7060057520866,test,3,,,,,,,,,,1081.229512564838,1081.7192841023207,1081.7192841023207,1081.7359055355191,1082.0698620006442,1082.570258282125,1082.7203828915954,1083.737237289548,right,1,0.5085540786385536,0.35,,,,,,,,,,,s032,001,2024-08-22_11h00.54.383,simplestop_skeleton,2022.2.2,59.73838931680416,
None,None,,,,,,,,,2,0,2,0,10,0,40,1,,,,,,,,,1083.7064679339528,stop,squareblack.png,right,0.35,,,,,,,,,,,,,,,0.001492515206336975,0.48969609290361404,0.8399753198027611,1086.2099029943347,test,3,,,,,,,,,,1083.737237289548,1084.222118474543,1084.222118474543,1084.2388089969754,1084.5725409910083,1085.0730649605393,1085.2232514843345,1086.22669506073,right,1,0.4514544978737831,0.3,,,,,,,,,,,s032,001,2024-08-22_11h00.54.383,simplestop_skeleton,2022.2.2,59.73838931680416,
$currentCorrectResponse,$currentGoStim,,,,,,,,,2,0,2,0,10,1,41,0,,,,,,,,,1086.210341744125,go,squareblack.png,right,0.3,,,,,,,,,,,,,,,0.0011912882328033447,0.49017591774463654,,1088.7138243615627,test,3,,,,,,,,,,1086.22669506073,1086.7263171374798,1086.7263171374798,1086.7263171374798,1087.026600919664,1087.5277526378632,1087.7260373011231,1088.7407689616084,right,1,0.4892934709787369,0.3,,,,,,,,,,,s032,001,2024-08-22_11h00.54.383,simplestop_skeleton,2022.2.2,59.73838931680416,
None,None,,,,,,,,,2,0,2,0,10,2,42,3,,,,,,,,,1088.7142912968993,go,circleblack.png,left,0.3,,,,,,,,,,,,,,,0.008309364318847656,0.48631060868501663,,1091.2157085165381,test,3,,,,,,,,,,1088.7407689616084,1089.2275761291385,1089.2275761291385,1089.2443400397897,1089.5280103459954,1090.0283961966634,1090.2286332249641,1091.2353051453829,left,1,0.5056497529149055,0.3,,,,,,,,,,,s032,001,2024-08-22_11h00.54.383,simplestop_skeleton,2022.2.2,59.73838931680416,
None,None,,,,,,,,,2,0,2,0,10,3,43,3,,,,,,,,,1091.2161707654595,go,circleblack.png,left,0.3,,,,,,,,,,,,,,,0.0014398247003555298,0.48793189972639084,,1093.717088714242,test,3,,,,,,,,,,1091.2353051453829,1091.7303573265672,1091.7303573265672,1091.7471032962203,1092.030884899199,1092.531359963119,1092.7314697131515,1093.7341041639447,left,1,0.44787896424531937,0.3,,,,,,,,,,,s032,001,2024-08-22_11h00.54.383,simplestop_skeleton,2022.2.2,59.73838931680416,
None,None,,,,,,,,,2,0,2,0,11,0,44,1,,,,,,,,,1093.7175981625915,go,circleblack.png,left,0.3,,,,,,,,,,,,,,,0.0012888908386230469,0.48971863090991974,,1096.2212024778128,test,3,,,,,,,,,,1093.7341041639447,1094.2333286628127,1094.2333286628127,1094.2333286628127,1094.5334297418594,1095.0340408161283,1095.2342547550797,1096.2405299469829,left,1,0.4563727602362633,0.3,,,,,,,,,,,s032,001,2024-08-22_11h00.54.383,simplestop_skeleton,2022.2.2,59.73838931680416,
None,None,,,,,,,,,2,0,2,0,11,1,45,3,,,,,,,,,1096.2216517552733,go,squareblack.png,right,0.3,,,,,,,,,,,,,,,0.0018330886960029602,0.48967865109443665,,1098.7246205806732,test,3,,,,,,,,,,1096.2405299469829,1096.7371878996491,1096.7371878996491,1096.7540752589703,1097.0376938730478,1097.5369485020638,1097.7369049787521,1098.7457877248526,right,1,0.4413277804851532,0.3,,,,,,,,,,,s032,001,2024-08-22_11h00.54.383,simplestop_skeleton,2022.2.2,59.73838931680416,
None,None,,,,,,,,,2,0,2,0,11,2,46,2,,,,,,,,,1098.725106664002,go,squareblack.png,right,0.3,,,,,,,,,,,,,,,0.002244822680950165,0.4862162619829178,,1101.2252816557884,test,3,,,,,,,,,,1098.7457877248526,1099.2385919764638,1099.2385919764638,1099.2552274540067,1099.5390212088823,1100.039545595646,1100.2397070899606,1101.2421667948365,right,1,0.45358626544475555,0.3,,,,,,,,,,,s032,001,2024-08-22_11h00.54.383,simplestop_skeleton,2022.2.2,59.73838931680416,
None,None,,,,,,,,,2,0,2,0,11,3,47,1,,,,,,,,,1101.2257495373487,stop,squareblack.png,right,0.3,,,,,,,,,,,,,,,0.001170046627521515,0.4896334260702133,0.7899980917572975,1103.7282570898533,test,3,,,,,,,,,,1101.2421667948365,1101.7415205836296,1101.7415205836296,1101.7415205836296,1102.0416914224625,1102.542162746191,1102.7434604391456,1103.743754081428,None,0,,0.35,,,,,,,,,,,s032,001,2024-08-22_11h00.54.383,simplestop_skeleton,2022.2.2,59.73838931680416,
