corrGoResp,shape,practiceBlocks.thisRepN,practiceBlocks.thisTrialN,practiceBlocks.thisN,practiceBlocks.thisIndex,practiceTrials.thisRepN,practiceTrials.thisTrialN,practiceTrials.thisN,practiceTrials.thisIndex,stopBlocks.thisRepN,stopBlocks.thisTrialN,stopBlocks.thisN,stopBlocks.thisIndex,testTrials.thisRepN,testTrials.thisTrialN,testTrials.thisN,testTrials.thisIndex,stopPracTrialList,Test Block: 1,welcome.started,start_exp.started,start_exp.keys,start_exp.rt,instrStopText.started,start_prac.started,StartTrialTimeStamp,trialType,goStim,correctResponse,ssd,fixation.started,rules.started,goStim.started,goResp.started,fixation.stopped,stopSignal.started,stopSignal.stopped,goStim.stopped,goResp.stopped,rules.stopped,goResp.keys,goResp.corr,text.started,rules_2.started,fixationOnset,goStimOnset,stopSignalOnset,EndTrialTimeStamp,Phase,Block,goResp.rt,text.stopped,rules_2.stopped,text_5.started,key_resp_3.started,key_resp_3.keys,key_resp_3.rt,key_resp.started,testText.started,test_fixation.started,goStim_test.started,goResp_test.started,test_fixation.stopped,stopSignal_test.started,stopSignal_test.stopped,goStim_test.stopped,goResp_test.stopped,goResp_test.keys,goResp_test.corr,goResp_test.rt,EndingSSD,text_6.started,key_resp_4.started,key_resp_4.keys,key_resp_4.rt,Test Block: 2,Test Block: 3,ending_text.started,end_resp.started,end_resp.keys,end_resp.rt,participant,session,date,expName,psychopyVersion,frameRate,
,,,,,,,,,,,,,,,,,,"[{'fileName': 'squareblack.png', 'correct_response': 'right', 'condition': 'go'}, {'fileName': 'squareblack.png', 'correct_response': 'right', 'condition': 'go'}, {'fileName': 'squareblack.png', 'correct_response': 'right', 'condition': 'go'}, {'fileName': 'squareblack.png', 'correct_response': 'right', 'condition': 'stop'}, {'fileName': 'circleblack.png', 'correct_response': 'left', 'condition': 'go'}, {'fileName': 'squareblack.png', 'correct_response': 'right', 'condition': 'go'}, {'fileName': 'squareblack.png', 'correct_response': 'right', 'condition': 'stop'}, {'fileName': 'circleblack.png', 'correct_response': 'left', 'condition': 'stop'}, {'fileName': 'circleblack.png', 'correct_response': 'left', 'condition': 'go'}, {'fileName': 'circleblack.png', 'correct_response': 'left', 'condition': 'go'}, {'fileName': 'circleblack.png', 'correct_response': 'left', 'condition': 'go'}, {'fileName': 'circleblack.png', 'correct_response': 'left', 'condition': 'stop'}, {'fileName': 'squareblack.png', 'correct_response': 'right', 'condition': 'go'}, {'fileName': 'circleblack.png', 'correct_response': 'left', 'condition': 'stop'}, {'fileName': 'circleblack.png', 'correct_response': 'left', 'condition': 'go'}, {'fileName': 'squareblack.png', 'correct_response': 'right', 'condition': 'go'}, {'fileName': 'squareblack.png', 'correct_response': 'right', 'condition': 'go'}, {'fileName': 'circleblack.png', 'correct_response': 'left', 'condition': 'stop'}, {'fileName': 'squareblack.png', 'correct_response': 'right', 'condition': 'stop'}, {'fileName': 'squareblack.png', 'correct_response': 'right', 'condition': 'stop'}, {'fileName': 'squareblack.png', 'correct_response': 'right', 'condition': 'go'}, {'fileName': 'circleblack.png', 'correct_response': 'left', 'condition': 'go'}, {'fileName': 'circleblack.png', 'correct_response': 'left', 'condition': 'go'}, {'fileName': 'circleblack.png', 'correct_response': 'left', 'condition': 'go'}]","[{'fileName': 'circleblack.png', 'correct_response': 'left', 'condition': 'go'}, {'fileName': 'squareblack.png', 'correct_response': 'right', 'condition': 'go'}, {'fileName': 'squareblack.png', 'correct_response': 'right', 'condition': 'go'}, {'fileName': 'circleblack.png', 'correct_response': 'left', 'condition': 'go'}, {'fileName': 'circleblack.png', 'correct_response': 'left', 'condition': 'go'}, {'fileName': 'squareblack.png', 'correct_response': 'right', 'condition': 'go'}, {'fileName': 'squareblack.png', 'correct_response': 'right', 'condition': 'stop'}, {'fileName': 'circleblack.png', 'correct_response': 'left', 'condition': 'stop'}, {'fileName': 'squareblack.png', 'correct_response': 'right', 'condition': 'go'}, {'fileName': 'circleblack.png', 'correct_response': 'left', 'condition': 'stop'}, {'fileName': 'circleblack.png', 'correct_response': 'left', 'condition': 'go'}, {'fileName': 'squareblack.png', 'correct_response': 'right', 'condition': 'stop'}, {'fileName': 'circleblack.png', 'correct_response': 'left', 'condition': 'go'}, {'fileName': 'circleblack.png', 'correct_response': 'left', 'condition': 'go'}, {'fileName': 'squareblack.png', 'correct_response': 'right', 'condition': 'go'}, {'fileName': 'squareblack.png', 'correct_response': 'right', 'condition': 'go'}, {'fileName': 'circleblack.png', 'correct_response': 'left', 'condition': 'stop'}, {'fileName': 'squareblack.png', 'correct_response': 'right', 'condition': 'stop'}, {'fileName': 'circleblack.png', 'correct_response': 'left', 'condition': 'go'}, {'fileName': 'circleblack.png', 'correct_response': 'left', 'condition': 'stop'}, {'fileName': 'circleblack.png', 'correct_response': 'left', 'condition': 'go'}, {'fileName': 'squareblack.png', 'correct_response': 'right', 'condition': 'stop'}, {'fileName': 'squareblack.png', 'correct_response': 'right', 'condition': 'go'}, {'fileName': 'squareblack.png', 'correct_response': 'right', 'condition': 'go'}, {'fileName': 'circleblack.png', 'correct_response': 'left', 'condition': 'go'}, {'fileName': 'squareblack.png', 'correct_response': 'right', 'condition': 'go'}, {'fileName': 'squareblack.png', 'correct_response': 'right', 'condition': 'go'}, {'fileName': 'circleblack.png', 'correct_response': 'left', 'condition': 'go'}, {'fileName': 'circleblack.png', 'correct_response': 'left', 'condition': 'go'}, {'fileName': 'squareblack.png', 'correct_response': 'right', 'condition': 'go'}, {'fileName': 'circleblack.png', 'correct_response': 'left', 'condition': 'go'}, {'fileName': 'squareblack.png', 'correct_response': 'right', 'condition': 'go'}, {'fileName': 'circleblack.png', 'correct_response': 'left', 'condition': 'stop'}, {'fileName': 'squareblack.png', 'correct_response': 'right', 'condition': 'stop'}, {'fileName': 'circleblack.png', 'correct_response': 'left', 'condition': 'stop'}, {'fileName': 'squareblack.png', 'correct_response': 'right', 'condition': 'stop'}, {'fileName': 'circleblack.png', 'correct_response': 'left', 'condition': 'go'}, {'fileName': 'squareblack.png', 'correct_response': 'right', 'condition': 'go'}, {'fileName': 'squareblack.png', 'correct_response': 'right', 'condition': 'stop'}, {'fileName': 'circleblack.png', 'correct_response': 'left', 'condition': 'go'}, {'fileName': 'squareblack.png', 'correct_response': 'right', 'condition': 'go'}, {'fileName': 'circleblack.png', 'correct_response': 'left', 'condition': 'stop'}, {'fileName': 'circleblack.png', 'correct_response': 'left', 'condition': 'go'}, {'fileName': 'squareblack.png', 'correct_response': 'right', 'condition': 'stop'}, {'fileName': 'squareblack.png', 'correct_response': 'right', 'condition': 'go'}, {'fileName': 'squareblack.png', 'correct_response': 'right', 'condition': 'go'}, {'fileName': 'circleblack.png', 'correct_response': 'left', 'condition': 'go'}, {'fileName': 'circleblack.png', 'correct_response': 'left', 'condition': 'stop'}]",20.054224178195,20.054224178195,return,5.821513067930937,,,,,,,,,,,,,,,,,,,,,,,,,,,,,,,,,,,,,,,,,,,,,,,,,,,,,,,,,,,s021,001,2024-07-26_11h38.29.939,simplestop_skeleton,2022.2.2,59.72469528687329,
$currentCorrectResponse,$currentGoStim,0,0,0,0,0,0,0,0,,,,,,,,,,,,,,,25.910966742783785,25.910966742783785,86.3805288746953,go,squareblack.png,right,0.35,86.40312204137444,86.40312204137444,86.89323603361845,86.89323603361845,86.90967971086502,87.2437577471137,87.74410434439778,87.89436388388276,88.89534533023834,88.91438722983003,None,0,88.91438722983003,88.91438722983003,0.002734057605266571,0.4866131693124771,0.836681954562664,89.41326103359461,practice,1,,,,,,,,,,,,,,,,,,,,,,,,,,,,,,,,s021,001,2024-07-26_11h38.29.939,simplestop_skeleton,2022.2.2,59.72469528687329,
None,None,0,0,0,0,0,1,1,2,,,,,,,,,,,,,,,,,89.41387994587421,go,squareblack.png,right,0.35,89.43279782310128,89.43279782310128,89.93002223968506,89.93002223968506,89.94633187353611,90.28043485060334,90.79584211856127,90.92923006787896,91.93131190910935,91.94797360524535,left,0,91.94797360524535,91.94797360524535,0.0011485479772090912,0.49017928540706635,0.8404678925871849,92.43328807502985,practice,1,0.5281721688807011,,,,,,,,,,,,,,,,,,,,,,,,,,,,,,,s021,001,2024-07-26_11h38.29.939,simplestop_skeleton,2022.2.2,59.72469528687329,
None,None,0,0,0,0,0,2,2,1,,,,,,,,,,,,,,,,,92.43371288105845,go,squareblack.png,right,0.35,92.45234923064709,92.45234923064709,92.94965247809887,92.94965247809887,92.96623021364212,93.29978896677494,93.80045096948743,93.95075332000852,94.95191279426217,94.95191279426217,None,0,94.95191279426217,94.95191279426217,0.001187402755022049,0.49034858122467995,0.840621080249548,95.43656989559531,practice,1,,95.45613462477922,95.45613462477922,,,,,,,,,,,,,,,,,,,,,,,,,,,,,s021,001,2024-07-26_11h38.29.939,simplestop_skeleton,2022.2.2,59.72469528687329,
None,None,0,0,0,0,0,3,3,2,,,,,,,,,,,,,,,,,95.43698913231492,stop,squareblack.png,right,0.35,95.45613462477922,95.45613462477922,95.95304989442229,95.95304989442229,95.96961527690291,96.30183466896415,96.80261404439807,96.95274345576763,97.95516372472048,97.95516372472048,None,0,97.95516372472048,97.95516372472048,0.001220010221004486,0.4897078424692154,0.8387965857982635,98.43985975533724,practice,1,,,,,,,,,,,,,,,,,,,,,,,,,,,,,,,,s021,001,2024-07-26_11h38.29.939,simplestop_skeleton,2022.2.2,59.72469528687329,
$currentCorrectResponse,$currentGoStim,0,0,0,0,1,0,4,0,,,,,,,,,,,,,,,,,98.4402882643044,go,circleblack.png,left,0.4,98.46413003280759,98.46413003280759,98.95627674460411,98.95627674460411,98.97313130274415,99.35704148933291,99.87249204143882,99.9560769572854,100.95871175080538,100.97510718926787,right,0,100.97510718926787,100.97510718926787,0.007918797433376312,0.4902704209089279,0.89105524122715,101.4600472599268,practice,1,0.2168666534125805,101.47998623177409,101.47998623177409,,,,,,,,,,,,,,,,,,,,,,,,,,,,,s021,001,2024-07-26_11h38.29.939,simplestop_skeleton,2022.2.2,59.72469528687329,
None,None,0,0,0,0,1,1,5,2,,,,,,,,,,,,,,,,,101.46046709641814,go,squareblack.png,right,0.4,101.47998623177409,101.47998623177409,101.97622344270349,101.97622344270349,101.99299864843488,102.37659947574139,102.87592777982354,102.97604010999203,103.97750510275364,103.994733273983,right,1,103.994733273983,103.994733273983,0.0017561949789524078,0.4900159686803818,0.8903282433748245,104.4797691963613,practice,1,0.4642261303961277,,,,,,,,,,,,,,,,,,,,,,,,,,,,,,,s021,001,2024-07-26_11h38.29.939,simplestop_skeleton,2022.2.2,59.72469528687329,
$currentCorrectResponse,$currentGoStim,0,0,0,0,1,2,6,0,,,,,,,,,,,,,,,,,104.48019715771079,stop,squareblack.png,right,0.4,104.49935411661863,104.49935411661863,104.99622115492821,104.99622115492821,105.01284798234701,105.39673304185271,105.89587122574449,105.99609242379665,106.99765969067812,107.01412430033088,right,1,107.01412430033088,107.01412430033088,0.0012374743819236755,0.49013082683086395,0.8905193507671356,107.5002235211432,practice,1,0.5280992984771729,,,,,,,,,,,,,,,,,,,,,,,,,,,,,,,s021,001,2024-07-26_11h38.29.939,simplestop_skeleton,2022.2.2,59.72469528687329,
$currentCorrectResponse,$currentGoStim,0,0,0,0,1,3,7,0,,,,,,,,,,,,,,,,,107.50065764039755,stop,circleblack.png,left,0.35,107.52022851631045,107.52022851631045,108.0164605602622,108.0164605602622,108.03312829136848,108.36665798723698,108.86593144014478,109.01601142436266,110.0181086435914,110.0347956083715,left,1,110.0347956083715,110.0347956083715,0.0018909163773059845,0.4900648854672909,0.8406321853399277,110.5198700428009,practice,1,0.3844272941350937,,,,,,,,,,,,,,,,,,,,,,,,,,,,,,,s021,001,2024-07-26_11h38.29.939,simplestop_skeleton,2022.2.2,59.72469528687329,
$currentCorrectResponse,$currentGoStim,0,0,0,0,2,0,8,0,,,,,,,,,,,,,,,,,110.52032099664211,go,circleblack.png,left,0.3,110.53888132423162,110.53888132423162,111.03660140559077,111.03660140559077,111.05296596512198,111.33682183548808,111.83765862882137,112.03590753674507,113.03942972049117,113.03942972049117,left,1,113.03942972049117,113.03942972049117,0.0012433379888534546,0.490243136882782,0.7907935902476311,113.52315134182572,practice,1,0.5845815502107143,,,,,,,,,,,,,,,,,,,,,,,,,,,,,,,s021,001,2024-07-26_11h38.29.939,simplestop_skeleton,2022.2.2,59.72469528687329,
None,None,0,0,0,0,2,1,9,3,,,,,,,,,,,,,,,,,113.52359540760517,go,circleblack.png,left,0.3,113.54284183308482,113.54284183308482,114.03981326892972,114.03981326892972,114.05683268606663,114.34004122763872,114.83914574980736,115.03939098492265,116.0412507392466,116.05803699791431,left,1,116.05803699791431,116.05803699791431,0.001254308968782425,0.4900730066001415,0.7904415652155876,116.5430400595069,practice,1,0.5095771551132202,,,,,,,,,,,,,,,,,,,,,,,,,,,,,,,s021,001,2024-07-26_11h38.29.939,simplestop_skeleton,2022.2.2,59.72469528687329,
None,None,0,0,0,0,2,2,10,3,,,,,,,,,,,,,,,,,116.54354035109282,go,circleblack.png,left,0.3,116.56263463944197,116.56263463944197,117.05956837162375,117.05956837162375,117.07629508897662,117.35973801091313,117.86091097816825,118.05946965888143,119.06155739724636,119.07806813716888,left,1,119.07806813716888,119.07806813716888,0.0012823306024074554,0.4901825375854969,0.7905970141291618,119.56311989948153,practice,1,0.5594588033854961,,,,,,,,,,,,,,,,,,,,,,,,,,,,,,,s021,001,2024-07-26_11h38.29.939,simplestop_skeleton,2022.2.2,59.72469528687329,
None,None,0,0,0,0,2,3,11,3,,,,,,,,,,,,,,,,,119.56354118138552,stop,circleblack.png,left,0.3,119.58261889219284,119.58261889219284,120.07956135645509,120.07956135645509,120.09641455486417,120.37985732033849,120.87905537337065,121.0792874544859,122.08161680400372,122.09795163199306,left,1,122.09795163199306,122.09795163199306,0.0012530051171779633,0.4901355803012848,0.790511466562748,122.58321989327669,practice,1,0.45976948365569115,,,,,,,,,,,,,,,,,,,,,,,,,,,,,,,s021,001,2024-07-26_11h38.29.939,simplestop_skeleton,2022.2.2,59.72469528687329,
None,None,0,0,0,0,3,0,12,2,,,,,,,,,,,,,,,,,122.58365714177489,go,squareblack.png,right,0.25,122.60326343774796,122.60326343774796,123.09972848370671,123.09972848370671,123.11620854213834,123.34975342079997,123.8507760129869,124.09923961386085,125.10041251406074,125.11717221140862,right,1,125.11717221140862,125.11717221140862,0.0017399415373802185,0.4900812730193138,0.7405511513352394,125.60316765680909,practice,1,0.6679258830845356,,,,,,,,,,,,,,,,,,,,,,,,,,,,,,,s021,001,2024-07-26_11h38.29.939,simplestop_skeleton,2022.2.2,59.72469528687329,
None,None,0,0,0,0,3,1,13,3,,,,,,,,,,,,,,,,,125.60359805077314,stop,circleblack.png,left,0.25,125.62328014522791,125.62328014522791,126.11944594606757,126.11944594606757,126.13629757985473,126.36984845250845,126.87059428915381,127.11926575750113,128.1202356107533,128.13705689832568,left,1,128.13705689832568,128.13705689832568,0.0019291751086711884,0.4902493692934513,0.7403220646083355,128.62302008271217,practice,1,0.675482876598835,,,,,,,,,,,,,,,,,,,,,,,,,,,,,,,s021,001,2024-07-26_11h38.29.939,simplestop_skeleton,2022.2.2,59.72469528687329,
None,None,0,0,0,0,3,2,14,2,,,,,,,,,,,,,,,,,128.62344396486878,go,circleblack.png,left,0.2,128.6428377442062,128.6428377442062,129.13975124433637,129.13975124433637,129.15623752772808,129.33987998962402,129.8391391299665,130.1392420977354,131.14090536162257,131.1579785719514,right,0,131.1579785719514,131.1579785719514,0.0012692064046859741,0.4898904412984848,0.6902537010610104,131.6430999301374,practice,1,0.3555743806064129,,,,,,,,,,,,,,,,,,,,,,,,,,,,,,,s021,001,2024-07-26_11h38.29.939,simplestop_skeleton,2022.2.2,59.72469528687329,
None,None,0,0,0,0,3,3,15,3,,,,,,,,,,,,,,,,,131.64352568238974,go,squareblack.png,right,0.2,131.66318340972066,131.66318340972066,132.15949341654778,132.15949341654778,132.17618937790394,132.3597093783319,132.8607791364193,133.1592211984098,134.16103703528643,134.1781142950058,right,1,134.1781142950058,134.1781142950058,0.001818925142288208,0.4902934171259403,0.690316267311573,134.6629963926971,practice,1,0.5200605280697346,,,,,,,,,,,,,,,,,,,,,,,,,,,,,,,s021,001,2024-07-26_11h38.29.939,simplestop_skeleton,2022.2.2,59.72469528687329,
$currentCorrectResponse,$currentGoStim,0,0,0,0,4,0,16,0,,,,,,,,,,,,,,,,,134.66341718658805,go,squareblack.png,right,0.2,134.68228446692228,134.68228446692228,135.17949736863375,135.17949736863375,135.1965189911425,135.37976617366076,135.88078805804253,136.17926945909858,137.1825638115406,137.19815334677696,right,1,137.19815334677696,137.19815334677696,0.0011866986751556396,0.490138903260231,0.6904094144701958,137.68330206349492,practice,1,0.5331707410514355,137.70361039042473,137.70361039042473,,,,,,,,,,,,,,,,,,,,,,,,,,,,,s021,001,2024-07-26_11h38.29.939,simplestop_skeleton,2022.2.2,59.72469528687329,
None,None,0,0,0,0,4,1,17,1,,,,,,,,,,,,,,,,,137.68371919170022,stop,circleblack.png,left,0.2,137.70361039042473,137.70361039042473,138.19975861161947,138.19975861161947,138.21635664254427,138.39997263625264,138.90069022029638,139.19941727072,140.20308050513268,140.21770523488522,left,1,140.21770523488522,140.21770523488522,0.001951068639755249,0.4899657182395458,0.6900911591947079,140.70337738096714,practice,1,0.5846550352871418,140.7230725698173,140.7230725698173,,,,,,,,,,,,,,,,,,,,,,,,,,,,,s021,001,2024-07-26_11h38.29.939,simplestop_skeleton,2022.2.2,59.72469528687329,
None,None,0,0,0,0,4,2,18,1,,,,,,,,,,,,,,,,,140.70381527394056,stop,squareblack.png,right,0.15,140.7230725698173,140.7230725698173,141.21948667615652,141.21948667615652,141.23620634898543,141.3697625696659,141.8702573031187,142.22066934779286,143.2217468470335,143.23831655457616,None,0,143.23831655457616,143.23831655457616,0.0016960687935352325,0.48983317613601685,0.639885563403368,143.72332632541656,practice,1,,,,,,,,,,,,,,,,,,,,,,,,,,,,,,,,s021,001,2024-07-26_11h38.29.939,simplestop_skeleton,2022.2.2,59.72469528687329,
None,None,0,0,0,0,4,3,19,1,,,,,,,,,,,,,,,,,143.7237726636231,stop,squareblack.png,right,0.2,143.74292765185237,143.74292765185237,144.2395673431456,144.2395673431456,144.2563094496727,144.43979098275304,144.93878618627787,145.23923925682902,146.24102705344558,146.25784804672003,right,1,146.25784804672003,146.25784804672003,0.00124451145529747,0.4896554499864578,0.690167985856533,146.74305038154125,practice,1,0.29074494168162346,,,,,,,,,,,,,,,,,,,,,,,,,,,,,,,s021,001,2024-07-26_11h38.29.939,simplestop_skeleton,2022.2.2,59.72469528687329,
None,None,0,0,0,0,5,0,20,1,,,,,,,,,,,,,,,,,146.7434972897172,go,squareblack.png,right,0.15,146.76281940937042,146.76281940937042,147.25948768481612,147.25948768481612,147.27621530741453,147.40973569452763,147.91072216257453,148.25920904055238,149.2605817131698,149.2774544544518,right,1,149.2774544544518,149.2774544544518,0.0012547597289085388,0.48996204882860184,0.6401165463030338,149.76299206912518,practice,1,0.5316056124866009,,,,,,,,,,,,,,,,,,,,,,,,,,,,,,,s021,001,2024-07-26_11h38.29.939,simplestop_skeleton,2022.2.2,59.72469528687329,
None,None,0,0,0,0,5,1,21,1,,,,,,,,,,,,,,,,,149.76349898055196,go,circleblack.png,left,0.15,149.78942792862654,149.78942792862654,150.27941469848156,150.27941469848156,150.29609028995037,150.42963211610913,150.9304522126913,151.2793682180345,152.28184670582414,152.2993819154799,left,1,152.2993819154799,152.2993819154799,0.008904464542865753,0.4899602122604847,0.6403767950832844,152.7833931967616,practice,1,0.5906711705029011,152.8030536659062,152.8030536659062,,,,,,,,,,,,,,,,,,,,,,,,,,,,,s021,001,2024-07-26_11h38.29.939,simplestop_skeleton,2022.2.2,59.72469528687329,
None,None,0,0,0,0,5,2,22,3,,,,,,,,,,,,,,,,,152.78380653634667,go,circleblack.png,left,0.15,152.8030536659062,152.8030536659062,153.2994845137,153.2994845137,153.31665823981166,153.44994673877954,153.9505734220147,154.29922356829047,155.30159889161587,155.30159889161587,left,1,155.30159889161587,155.30159889161587,0.0012547113001346588,0.4899975024163723,0.6400373727083206,155.78659426048398,practice,1,0.5276066698133945,155.80628990009427,155.80628990009427,,,,,,,,,,,,,,,,,,,,,,,,,,,,,s021,001,2024-07-26_11h38.29.939,simplestop_skeleton,2022.2.2,59.72469528687329,
None,None,0,0,0,0,5,3,23,2,,,,,,,,,,,,,,,,,155.78701496124268,go,circleblack.png,left,0.15,155.80628990009427,155.80628990009427,156.3033288642764,156.3033288642764,156.31979156658053,156.4531489238143,156.95300378650427,157.30264930054545,158.30373634770513,158.3203853853047,left,1,158.3203853853047,158.3203853853047,0.001261301338672638,0.49004973843693733,0.6401997171342373,158.8071352764964,practice,1,0.35228391736745834,,,,,,,,,,,,,,,,,,,,,,,,,,,,,,,s021,001,2024-07-26_11h38.29.939,simplestop_skeleton,2022.2.2,59.72469528687329,
,,0,0,0,0,,,,,,,,,,,,,"[{'fileName': 'circleblack.png', 'correct_response': 'left', 'condition': 'go'}, {'fileName': 'squareblack.png', 'correct_response': 'right', 'condition': 'stop'}, {'fileName': 'circleblack.png', 'correct_response': 'left', 'condition': 'go'}, {'fileName': 'circleblack.png', 'correct_response': 'left', 'condition': 'stop'}, {'fileName': 'circleblack.png', 'correct_response': 'left', 'condition': 'go'}, {'fileName': 'squareblack.png', 'correct_response': 'right', 'condition': 'go'}, {'fileName': 'circleblack.png', 'correct_response': 'left', 'condition': 'stop'}, {'fileName': 'circleblack.png', 'correct_response': 'left', 'condition': 'go'}, {'fileName': 'squareblack.png', 'correct_response': 'right', 'condition': 'go'}, {'fileName': 'squareblack.png', 'correct_response': 'right', 'condition': 'go'}, {'fileName': 'squareblack.png', 'correct_response': 'right', 'condition': 'go'}, {'fileName': 'squareblack.png', 'correct_response': 'right', 'condition': 'stop'}, {'fileName': 'squareblack.png', 'correct_response': 'right', 'condition': 'stop'}, {'fileName': 'circleblack.png', 'correct_response': 'left', 'condition': 'stop'}, {'fileName': 'squareblack.png', 'correct_response': 'right', 'condition': 'stop'}, {'fileName': 'squareblack.png', 'correct_response': 'right', 'condition': 'go'}, {'fileName': 'circleblack.png', 'correct_response': 'left', 'condition': 'go'}, {'fileName': 'squareblack.png', 'correct_response': 'right', 'condition': 'go'}, {'fileName': 'circleblack.png', 'correct_response': 'left', 'condition': 'go'}, {'fileName': 'squareblack.png', 'correct_response': 'right', 'condition': 'go'}, {'fileName': 'circleblack.png', 'correct_response': 'left', 'condition': 'go'}, {'fileName': 'squareblack.png', 'correct_response': 'right', 'condition': 'go'}, {'fileName': 'circleblack.png', 'correct_response': 'left', 'condition': 'stop'}, {'fileName': 'circleblack.png', 'correct_response': 'left', 'condition': 'go'}]",,,,,,,,,,,,,,,,,,,,,,,,,,,,,,,,,,,,158.8272152915597,158.8272152915597,return,1.7376842014491558,,,,,,,,,,,,,,,,,,,,,,,,,s021,001,2024-07-26_11h38.29.939,simplestop_skeleton,2022.2.2,59.72469528687329,
None,None,,,,,,,,,0,0,0,0,0,0,0,3,,,,,,,,,164.52889141440392,go,circleblack.png,left,0.15,,,,,,,,,,,,,,,0.0021226443350315094,0.49093085527420044,,167.03302278369665,test,1,,,,,,,,160.59125617146492,160.59125617146492,164.5480207502842,165.04586191102862,165.04586191102862,165.06247992441058,165.19593801349401,165.69655702635646,166.0467715896666,167.0531168691814,left,1,0.5887383781373501,0.15,,,,,,,,,,,s021,001,2024-07-26_11h38.29.939,simplestop_skeleton,2022.2.2,59.72469528687329,
None,None,,,,,,,,,0,0,0,0,0,1,1,1,,,,,,,,,167.03355756402016,go,squareblack.png,right,0.15,,,,,,,,,,,,,,,0.003030698746442795,0.48908402770757675,,169.53473418951035,test,1,,,,,,,,,,167.0531168691814,167.548592120409,167.548592120409,167.56530198454857,167.6988698542118,168.19971138238907,168.54822671040893,169.55236834287643,right,1,0.4313577674329281,0.15,,,,,,,,,,,s021,001,2024-07-26_11h38.29.939,simplestop_skeleton,2022.2.2,59.72469528687329,
$currentCorrectResponse,$currentGoStim,,,,,,,,,0,0,0,0,0,2,2,0,,,,,,,,,169.53517370671034,go,squareblack.png,right,0.15,,,,,,,,,,,,,,,0.0012050345540046692,0.49043406546115875,,172.03781849518418,test,1,,,,,,,,,,169.55236834287643,170.0514350272715,170.0514350272715,170.0514350272715,170.20151077583432,170.7024559415877,171.05091408640146,172.05529910326004,right,1,0.41754359006881714,0.15,,,,,,,,,,,s021,001,2024-07-26_11h38.29.939,simplestop_skeleton,2022.2.2,59.72469528687329,
None,None,,,,,,,,,0,0,0,0,0,3,3,3,,,,,,,,,172.03827396035194,go,circleblack.png,left,0.15,,,,,,,,,,,,,,,0.001844152808189392,0.4899321049451828,,174.540135409683,test,1,,,,,,,,,,172.05529910326004,172.55416209623218,172.55416209623218,172.57072876021266,172.70421214029193,173.20519114285707,173.55371968448162,174.55743215605617,left,1,0.4557470232248306,0.15,,,,,,,,,,,s021,001,2024-07-26_11h38.29.939,simplestop_skeleton,2022.2.2,59.72469528687329,
None,None,,,,,,,,,0,0,0,0,1,0,4,3,,,,,,,,,174.54057521373034,go,circleblack.png,left,0.15,,,,,,,,,,,,,,,0.001260131597518921,0.49043624475598335,,177.0428387671709,test,1,,,,,,,,,,174.55743215605617,175.05675089731812,175.05675089731812,175.05675089731812,175.20680506899953,175.70794861391187,176.0564686357975,177.0607854872942,left,1,0.40960725024342537,0.15,,,,,,,,,,,s021,001,2024-07-26_11h38.29.939,simplestop_skeleton,2022.2.2,59.72469528687329,
$currentCorrectResponse,$currentGoStim,,,,,,,,,0,0,0,0,1,1,5,0,,,,,,,,,177.04330306872725,go,squareblack.png,right,0.15,,,,,,,,,,,,,,,0.0016780421137809753,0.49020081758499146,,179.54756397381425,test,1,,,,,,,,,,177.0607854872942,177.5596366673708,177.5596366673708,177.576305154711,177.7096656896174,178.21054193750024,178.55928931757808,179.5641427896917,right,1,0.5255001746118069,0.15,,,,,,,,,,,s021,001,2024-07-26_11h38.29.939,simplestop_skeleton,2022.2.2,59.72469528687329,
None,None,,,,,,,,,0,0,0,0,1,2,6,3,,,,,,,,,179.54800376668572,stop,squareblack.png,right,0.15,,,,,,,,,,,,,,,0.0018289461731910706,0.48862961307168007,0.6386381015181541,182.0488930530846,test,1,,,,,,,,,,179.5641427896917,180.06257792562246,180.06257792562246,180.07933647930622,180.2124532647431,180.7135105356574,181.0619422905147,182.06654858589172,right,1,0.3755181282758713,0.1,,,,,,,,,,,s021,001,2024-07-26_11h38.29.939,simplestop_skeleton,2022.2.2,59.72469528687329,
None,None,,,,,,,,,0,0,0,0,1,3,7,2,,,,,,,,,182.04932722076774,stop,circleblack.png,left,0.1,,,,,,,,,,,,,,,0.0019096434116363525,0.4899914488196373,0.5898458622395992,184.55165046080947,test,1,,,,,,,,,,182.06654858589172,182.5650909654796,182.5650909654796,182.58176635578275,182.66511102765799,183.16579657420516,183.566366430372,184.57084629684687,None,0,,0.15,,,,,,,,,,,s021,001,2024-07-26_11h38.29.939,simplestop_skeleton,2022.2.2,59.72469528687329,
None,None,,,,,,,,,0,0,0,0,2,0,8,3,,,,,,,,,184.5520800538361,go,squareblack.png,right,0.15,,,,,,,,,,,,,,,0.0017409399151802063,0.4900280497968197,,187.05387218669057,test,1,,,,,,,,,,184.57084629684687,185.06789986416698,185.06789986416698,185.08452451229095,185.21813120692968,185.71896485611796,186.06759027019143,187.07252187281847,right,1,0.53603345900774,0.15,,,,,,,,,,,s021,001,2024-07-26_11h38.29.939,simplestop_skeleton,2022.2.2,59.72469528687329,
None,None,,,,,,,,,0,0,0,0,2,1,9,3,,,,,,,,,187.05431832373142,stop,circleblack.png,left,0.15,,,,,,,,,,,,,,,0.001929745078086853,0.4885506369173527,0.6387588158249855,189.55748414620757,test,1,,,,,,,,,,187.07252187281847,187.5694337040186,187.5694337040186,187.5859957523644,187.71960281208158,188.21997624635696,188.57120670378208,189.5763116851449,None,0,,0.2,,,,,,,,,,,s021,001,2024-07-26_11h38.29.939,simplestop_skeleton,2022.2.2,59.72469528687329,
None,None,,,,,,,,,0,0,0,0,2,2,10,2,,,,,,,,,189.5579263344407,go,circleblack.png,left,0.2,,,,,,,,,,,,,,,0.0013411715626716614,0.490052692592144,,192.06005289778113,test,1,,,,,,,,,,189.5763116851449,190.07347921654582,190.07347921654582,190.0901085101068,190.27394289895892,190.77282632142305,191.07306851819158,192.07757960632443,left,1,0.4982057400047779,0.2,,,,,,,,,,,s021,001,2024-07-26_11h38.29.939,simplestop_skeleton,2022.2.2,59.72469528687329,
None,None,,,,,,,,,0,0,0,0,2,3,11,2,,,,,,,,,192.0604909695685,stop,squareblack.png,right,0.2,,,,,,,,,,,,,,,0.0017226263880729675,0.48978880047798157,0.6899527758359909,194.56278815865517,test,1,,,,,,,,,,192.07757960632443,192.5761598609388,192.5761598609388,192.59287514165044,192.776426974684,193.27680031582713,193.5771231353283,194.58229333162308,None,0,,0.25,,,,,,,,,,,s021,001,2024-07-26_11h38.29.939,simplestop_skeleton,2022.2.2,59.72469528687329,
None,None,,,,,,,,,0,0,0,0,3,0,12,2,,,,,,,,,194.56322548910975,go,circleblack.png,left,0.25,,,,,,,,,,,,,,,0.0018702074885368347,0.48979539796710014,,197.06473094969988,test,1,,,,,,,,,,194.58229333162308,195.0789502300322,195.0789502300322,195.09567914530635,195.32931412756443,195.84501657634974,196.0786877796054,197.0842753276229,left,1,0.39543216302990913,0.25,,,,,,,,,,,s021,001,2024-07-26_11h38.29.939,simplestop_skeleton,2022.2.2,59.72469528687329,
None,None,,,,,,,,,0,0,0,0,3,1,13,1,,,,,,,,,197.065179169178,go,circleblack.png,left,0.25,,,,,,,,,,,,,,,0.0017413236200809479,0.4895019866526127,,199.5669427253306,test,1,,,,,,,,,,197.0842753276229,197.58174504712224,197.58174504712224,197.59839494153857,197.83211660012603,198.33321978524327,198.58130056783557,199.59820062294602,left,1,0.6132148131728172,0.25,,,,,,,,,,,s021,001,2024-07-26_11h38.29.939,simplestop_skeleton,2022.2.2,59.72469528687329,
None,None,,,,,,,,,0,0,0,0,3,2,14,1,,,,,,,,,199.56738920137286,go,squareblack.png,right,0.25,,,,,,,,,,,,,,,0.001654990017414093,0.48983924835920334,,202.07139931619167,test,1,,,,,,,,,,199.59820062294602,200.0830417238176,200.0830417238176,200.09984680265188,200.33339845761657,200.83378421515226,201.0843437872827,202.09030247852206,right,1,0.6461548432707787,0.25,,,,,,,,,,,s021,001,2024-07-26_11h38.29.939,simplestop_skeleton,2022.2.2,59.72469528687329,
None,None,,,,,,,,,0,0,0,0,3,3,15,1,,,,,,,,,202.07185205817223,go,squareblack.png,right,0.25,,,,,,,,,,,,,,,0.00138762965798378,0.48943043127655983,,204.57249081879854,test,1,,,,,,,,,,202.09030247852206,202.5870419330895,202.5870419330895,202.6038299240172,202.83743295818567,203.33846236765385,203.5869175195694,204.58977779373527,right,1,0.5562317930161953,0.25,,,,,,,,,,,s021,001,2024-07-26_11h38.29.939,simplestop_skeleton,2022.2.2,59.72469528687329,
None,None,,,,,,,,,0,0,0,0,4,0,16,1,,,,,,,,,204.5729526951909,stop,circleblack.png,left,0.25,,,,,,,,,,,,,,,0.0017712041735649109,0.490027479827404,0.7404090128839016,207.0768493115902,test,1,,,,,,,,,,204.58977779373527,205.08857000246644,205.08857000246644,205.08857000246644,205.33895425498486,205.8393820412457,206.0907970815897,207.09711176156998,None,0,,0.3,,,,,,,,,,,s021,001,2024-07-26_11h38.29.939,simplestop_skeleton,2022.2.2,59.72469528687329,
None,None,,,,,,,,,0,0,0,0,4,1,17,2,,,,,,,,,207.07729257270694,stop,squareblack.png,right,0.3,,,,,,,,,,,,,,,0.0025166869163513184,0.4884704723954201,0.7887779101729393,209.57825772464275,test,1,,,,,,,,,,207.09711176156998,207.5926695726812,207.5926695726812,207.6092729382217,207.89310029521585,208.39396791160107,208.59242928773165,209.5955715365708,right,1,0.5344021432101727,0.25,,,,,,,,,,,s021,001,2024-07-26_11h38.29.939,simplestop_skeleton,2022.2.2,59.72469528687329,
None,None,,,,,,,,,0,0,0,0,4,2,18,2,,,,,,,,,209.5787057876587,go,circleblack.png,left,0.25,,,,,,,,,,,,,,,0.0017374269664287567,0.48957522958517075,,212.08220410346985,test,1,,,,,,,,,,209.5955715365708,210.0940424129367,210.0940424129367,210.1106989197433,210.34468104317784,210.8449314571917,211.09606862813234,212.10084090009332,left,1,0.567274272441864,0.25,,,,,,,,,,,s021,001,2024-07-26_11h38.29.939,simplestop_skeleton,2022.2.2,59.72469528687329,
$currentCorrectResponse,$currentGoStim,,,,,,,,,0,0,0,0,4,3,19,0,,,,,,,,,212.0826434008777,stop,circleblack.png,left,0.25,,,,,,,,,,,,,,,0.001241929829120636,0.48991232365369797,0.740130215883255,214.5848461575806,test,1,,,,,,,,,,212.10084090009332,212.5982858762145,212.5982858762145,212.61505023762584,212.84854160621762,213.3492313399911,213.59944902732968,214.60375549271703,None,0,,0.3,,,,,,,,,,,s021,001,2024-07-26_11h38.29.939,simplestop_skeleton,2022.2.2,59.72469528687329,
None,None,,,,,,,,,0,0,0,0,5,0,20,2,,,,,,,,,214.58528569713235,go,circleblack.png,left,0.3,,,,,,,,,,,,,,,0.0012587569653987885,0.4902491010725498,,217.08651987090707,test,1,,,,,,,,,,214.60375549271703,215.10105515271425,215.10105515271425,215.1174971833825,215.40162494033575,215.90061201900244,216.10074872523546,217.1048847734928,left,1,0.4981595277786255,0.3,,,,,,,,,,,s021,001,2024-07-26_11h38.29.939,simplestop_skeleton,2022.2.2,59.72469528687329,
None,None,,,,,,,,,0,0,0,0,5,1,21,1,,,,,,,,,217.08695980906487,stop,squareblack.png,right,0.3,,,,,,,,,,,,,,,0.0019152536988258362,0.48931780830025673,0.7897527627646923,219.59068168327212,test,1,,,,,,,,,,217.1048847734928,217.602434579283,217.602434579283,217.6192419603467,217.90286621823907,218.4033296853304,218.6049149185419,219.60967383906245,None,0,,0.35,,,,,,,,,,,s021,001,2024-07-26_11h38.29.939,simplestop_skeleton,2022.2.2,59.72469528687329,
None,None,,,,,,,,,0,0,0,0,5,2,22,1,,,,,,,,,219.59112913534045,go,squareblack.png,right,0.35,,,,,,,,,,,,,,,0.001324974000453949,0.4897579103708267,,222.09315740317106,test,1,,,,,,,,,,219.60967383906245,220.10662991926074,220.10662991926074,220.12336779758334,220.45729571953416,220.9727281704545,221.10626112669706,222.11028772592545,right,1,0.6580548621714115,0.35,,,,,,,,,,,s021,001,2024-07-26_11h38.29.939,simplestop_skeleton,2022.2.2,59.72469528687329,
None,None,,,,,,,,,0,0,0,0,5,3,23,1,,,,,,,,,222.09359887987375,go,squareblack.png,right,0.35,,,,,,,,,,,,,,,0.001306537538766861,0.4896361231803894,,224.59603042900562,test,1,,,,,,,,,,222.11028772592545,222.60924047976732,222.60924047976732,222.62591231241822,222.9598026163876,223.45879037305713,223.60893806442618,224.61727592349052,right,1,0.38934459164738655,0.35,,,,,,,,,,,s021,001,2024-07-26_11h38.29.939,simplestop_skeleton,2022.2.2,59.72469528687329,
None,None,,,,,,,,,0,0,0,0,6,0,24,1,,,,,,,,,224.59676878526807,go,circleblack.png,left,0.35,,,,,,,,,,,,,,,0.004462867975234985,0.4866429641842842,,227.0987864844501,test,1,,,,,,,,,,224.61727592349052,225.11065217852592,225.11065217852592,225.12728905677795,225.46138136088848,225.9620776809752,226.11379466950893,227.1177520416677,left,1,0.45802875608205795,0.35,,,,,,,,,,,s021,001,2024-07-26_11h38.29.939,simplestop_skeleton,2022.2.2,59.72469528687329,
$currentCorrectResponse,$currentGoStim,,,,,,,,,0,0,0,0,6,1,25,0,,,,,,,,,227.0992264598608,go,squareblack.png,right,0.35,,,,,,,,,,,,,,,0.0016522258520126343,0.4898553565144539,,229.60113798826933,test,1,,,,,,,,,,227.1177520416677,227.61476903036237,227.61476903036237,227.63146336004138,227.96532845124602,228.46431006491184,228.61448053643107,229.61949878185987,right,1,0.48133616521954536,0.35,,,,,,,,,,,s021,001,2024-07-26_11h38.29.939,simplestop_skeleton,2022.2.2,59.72469528687329,
$currentCorrectResponse,$currentGoStim,,,,,,,,,0,0,0,0,6,2,26,0,,,,,,,,,229.60157721489668,go,squareblack.png,right,0.35,,,,,,,,,,,,,,,0.0011437833309173584,0.4903428442776203,,232.10296522453427,test,1,,,,,,,,,,229.61949878185987,230.1176521629095,230.1176521629095,230.1343238092959,230.4679400101304,230.96716449037194,231.11721704527736,232.1253259666264,right,1,0.5265913121402264,0.35,,,,,,,,,,,s021,001,2024-07-26_11h38.29.939,simplestop_skeleton,2022.2.2,59.72469528687329,
$currentCorrectResponse,$currentGoStim,,,,,,,,,0,0,0,0,6,3,27,0,,,,,,,,,232.10342229530215,go,circleblack.png,left,0.35,,,,,,,,,,,,,,,0.00745217502117157,0.49083299562335014,,234.60754111409187,test,1,,,,,,,,,,232.1253259666264,232.6204301416874,232.6204301416874,232.63705725222826,232.96932612359524,233.4698561169207,233.6200154647231,234.6268693394959,left,1,0.42061201855540276,0.35,,,,,,,,,,,s021,001,2024-07-26_11h38.29.939,simplestop_skeleton,2022.2.2,59.72469528687329,
None,None,,,,,,,,,0,0,0,0,7,0,28,3,,,,,,,,,234.6079877987504,go,circleblack.png,left,0.35,,,,,,,,,,,,,,,0.0014333054423332214,0.4890853352844715,,237.10863119363785,test,1,,,,,,,,,,234.6268693394959,235.12306547164917,235.12306547164917,235.13990093022585,235.47336431965232,235.9748269803822,236.12287171185017,237.12583434581757,left,1,0.6435930095613003,0.35,,,,,,,,,,,s021,001,2024-07-26_11h38.29.939,simplestop_skeleton,2022.2.2,59.72469528687329,
None,None,,,,,,,,,0,0,0,0,7,1,29,3,,,,,,,,,237.10907435417175,go,squareblack.png,right,0.35,,,,,,,,,,,,,,,0.001599866896867752,0.48955001309514046,,239.6125959455967,test,1,,,,,,,,,,237.12583434581757,237.62456032633781,237.62456032633781,237.64119328185916,237.97535655274987,238.47549803555012,238.62572461739182,239.63222627714276,right,1,0.5605641156435013,0.35,,,,,,,,,,,s021,001,2024-07-26_11h38.29.939,simplestop_skeleton,2022.2.2,59.72469528687329,
None,None,,,,,,,,,0,0,0,0,7,2,30,3,,,,,,,,,239.6130404099822,go,circleblack.png,left,0.35,,,,,,,,,,,,,,,0.001865636557340622,0.4898110628128052,,242.11404567584395,test,1,,,,,,,,,,239.63222627714276,240.12885554134846,240.12885554134846,240.1455022394657,240.47949028387666,240.99482471868396,241.12829123064876,242.13126742839813,left,1,0.5085088200867176,0.35,,,,,,,,,,,s021,001,2024-07-26_11h38.29.939,simplestop_skeleton,2022.2.2,59.72469528687329,
None,None,,,,,,,,,0,0,0,0,7,3,31,3,,,,,,,,,242.11448432132602,go,squareblack.png,right,0.35,,,,,,,,,,,,,,,0.0015881434082984924,0.4895412549376488,,244.6187746860087,test,1,,,,,,,,,,242.13126742839813,242.6299438662827,242.6299438662827,242.64657694846392,242.9804616868496,243.48092821985483,243.63326697051525,244.6381909251213,right,1,0.4206618182361126,0.35,,,,,,,,,,,s021,001,2024-07-26_11h38.29.939,simplestop_skeleton,2022.2.2,59.72469528687329,
$currentCorrectResponse,$currentGoStim,,,,,,,,,0,0,0,0,8,0,32,0,,,,,,,,,244.61931746453047,stop,circleblack.png,left,0.35,,,,,,,,,,,,,,,0.002507377415895462,0.4889107272028923,0.8392100110650063,247.11989203095436,test,1,,,,,,,,,,244.6381909251213,245.13420239835978,245.13420239835978,245.150661803782,245.48494341224432,246.00037606805563,246.13383954018354,247.1382331326604,left,1,0.4886094145476818,0.3,,,,,,,,,,,s021,001,2024-07-26_11h38.29.939,simplestop_skeleton,2022.2.2,59.72469528687329,
None,None,,,,,,,,,0,0,0,0,8,1,33,2,,,,,,,,,247.12033491954207,stop,squareblack.png,right,0.3,,,,,,,,,,,,,,,0.001733250916004181,0.4888082928955555,0.7899149283766747,249.62370696663857,test,1,,,,,,,,,,247.1382331326604,247.6356903910637,247.6356903910637,247.6522443704307,247.93616024032235,248.43658267706633,248.63758327811956,249.64307036995888,None,0,,0.35,,,,,,,,,,,s021,001,2024-07-26_11h38.29.939,simplestop_skeleton,2022.2.2,59.72469528687329,
None,None,,,,,,,,,0,0,0,0,8,2,34,1,,,,,,,,,249.62415359914303,stop,circleblack.png,left,0.35,,,,,,,,,,,,,,,0.0018248111009597778,0.4897071346640587,0.8405049033463001,252.1261036284268,test,1,,,,,,,,,,249.64307036995888,250.13994834199548,250.13994834199548,250.15655063465238,250.49056697636843,251.00586380809546,251.1393985338509,252.14329243078828,left,1,0.42502300441265106,0.3,,,,,,,,,,,s021,001,2024-07-26_11h38.29.939,simplestop_skeleton,2022.2.2,59.72469528687329,
None,None,,,,,,,,,0,0,0,0,8,3,35,2,,,,,,,,,252.12660955637693,stop,squareblack.png,right,0.3,,,,,,,,,,,,,,,0.001728896051645279,0.48986803367733955,0.790251363068819,254.62923135608435,test,1,,,,,,,,,,252.14329243078828,252.6423787213862,252.6423787213862,252.6423787213862,252.94266945123672,253.4433494694531,253.64353052526712,254.6484927609563,None,0,,0.35,,,,,,,,,,,s021,001,2024-07-26_11h38.29.939,simplestop_skeleton,2022.2.2,59.72469528687329,
$currentCorrectResponse,$currentGoStim,,,,,,,,,0,0,0,0,9,0,36,0,,,,,,,,,254.62966242805123,go,circleblack.png,left,0.35,,,,,,,,,,,,,,,0.0018464624881744385,0.48970192298293114,,257.1323134303093,test,1,,,,,,,,,,254.6484927609563,255.14533635228872,255.14533635228872,255.16187531128526,255.49562646076083,255.99665489047766,256.1448900215328,257.1520930416882,left,1,0.5221608616411686,0.35,,,,,,,,,,,s021,001,2024-07-26_11h38.29.939,simplestop_skeleton,2022.2.2,59.72469528687329,
None,None,,,,,,,,,0,0,0,0,9,1,37,1,,,,,,,,,257.1327665261924,go,squareblack.png,right,0.35,,,,,,,,,,,,,,,0.00243183970451355,0.4873848333954811,,259.6346681676805,test,1,,,,,,,,,,257.1520930416882,257.64657213911414,257.64657213911414,257.6633622273803,257.9969813860953,258.4975015372038,258.6477684043348,259.65365168452263,right,1,0.8037276789546013,0.35,,,,,,,,,,,s021,001,2024-07-26_11h38.29.939,simplestop_skeleton,2022.2.2,59.72469528687329,
$currentCorrectResponse,$currentGoStim,,,,,,,,,0,0,0,0,9,2,38,0,,,,,,,,,259.6351139470935,stop,squareblack.png,right,0.35,,,,,,,,,,,,,,,0.0012363642454147339,0.4901599697768688,0.8403529636561871,262.137682184577,test,1,,,,,,,,,,259.65365168452263,260.15077555552125,260.15077555552125,260.1673991456628,260.501262370497,261.001616589725,261.151859305799,262.15700152888894,None,0,,0.4,,,,,,,,,,,s021,001,2024-07-26_11h38.29.939,simplestop_skeleton,2022.2.2,59.72469528687329,
$currentCorrectResponse,$currentGoStim,,,,,,,,,0,0,0,0,9,3,39,0,,,,,,,,,262.13812429085374,go,circleblack.png,left,0.4,,,,,,,,,,,,,,,0.001995787024497986,0.48970334604382515,,264.63877998292446,test,1,,,,,,,,,,262.15700152888894,262.65364164859056,262.65364164859056,262.6704016216099,263.054037719965,263.55304623395205,263.6531848423183,264.6561518833041,left,1,0.5311836488544941,0.4,,,,,,,,,,,s021,001,2024-07-26_11h38.29.939,simplestop_skeleton,2022.2.2,59.72469528687329,
$currentCorrectResponse,$currentGoStim,,,,,,,,,0,0,0,0,10,0,40,0,,,,,,,,,264.63922775909305,go,squareblack.png,right,0.4,,,,,,,,,,,,,,,0.001571211963891983,0.4895787499845028,,267.1433018296957,test,1,,,,,,,,,,264.6561518833041,265.1549386754632,265.1549386754632,265.1715586297214,265.55580933764577,266.0557548291981,266.1559449695051,267.1625820212066,right,1,0.7845822609961033,0.4,,,,,,,,,,,s021,001,2024-07-26_11h38.29.939,simplestop_skeleton,2022.2.2,59.72469528687329,
None,None,,,,,,,,,0,0,0,0,10,1,41,2,,,,,,,,,267.143765501678,stop,circleblack.png,left,0.4,,,,,,,,,,,,,,,0.001872863620519638,0.48938818648457527,0.8896425925195217,269.6458495669067,test,1,,,,,,,,,,267.1625820212066,267.6590093076229,267.6590093076229,267.6756035499275,268.05953734368086,268.55855330452323,268.65866635739803,269.66466944664717,left,1,0.4595646373927593,0.35,,,,,,,,,,,s021,001,2024-07-26_11h38.29.939,simplestop_skeleton,2022.2.2,59.72469528687329,
None,None,,,,,,,,,0,0,0,0,10,2,42,2,,,,,,,,,269.64690866321325,go,circleblack.png,left,0.35,,,,,,,,,,,,,,,0.0017498396337032318,0.48625898361206055,,272.14847714453936,test,1,,,,,,,,,,269.66466944664717,270.1603057682514,270.1603057682514,270.176935993135,270.5108594223857,271.01125180348754,271.1642729155719,272.16762728616595,left,1,0.7333371676504612,0.35,,,,,,,,,,,s021,001,2024-07-26_11h38.29.939,simplestop_skeleton,2022.2.2,59.72469528687329,
None,None,,,,,,,,,0,0,0,0,10,3,43,1,,,,,,,,,272.1489250175655,stop,squareblack.png,right,0.35,,,,,,,,,,,,,,,0.0016783848404884338,0.48966822773218155,0.8400063253939152,274.6511828750372,test,1,,,,,,,,,,272.16762728616595,272.66439761966467,272.66439761966467,272.6812336407602,273.0147710107267,273.51537807658315,273.6655031852424,274.67039727419615,None,0,,0.4,,,,,,,,,,,s021,001,2024-07-26_11h38.29.939,simplestop_skeleton,2022.2.2,59.72469528687329,
$currentCorrectResponse,$currentGoStim,,,,,,,,,0,0,0,0,11,0,44,0,,,,,,,,,274.6516178138554,go,squareblack.png,right,0.4,,,,,,,,,,,,,,,0.0012357197701931,0.4900401942431927,,277.1527224332094,test,1,,,,,,,,,,274.67039727419615,275.16731499135494,275.16731499135494,275.1839813515544,275.56802489981055,276.06873136386275,276.16718501597643,277.1695058532059,right,1,0.7032087408006191,0.4,,,,,,,,,,,s021,001,2024-07-26_11h38.29.939,simplestop_skeleton,2022.2.2,59.72469528687329,
None,None,,,,,,,,,0,0,0,0,11,1,45,3,,,,,,,,,277.15315893664956,go,squareblack.png,right,0.4,,,,,,,,,,,,,,,0.001187104731798172,0.4896577447652817,,279.6569247804582,test,1,,,,,,,,,,277.1695058532059,277.66885690391064,277.66885690391064,277.66885690391064,278.06930603832006,278.5696737319231,278.67005963250995,279.6762199215591,right,1,0.7272078953683376,0.4,,,,,,,,,,,s021,001,2024-07-26_11h38.29.939,simplestop_skeleton,2022.2.2,59.72469528687329,
None,None,,,,,,,,,0,0,0,0,11,2,46,2,,,,,,,,,279.65736508369446,go,circleblack.png,left,0.4,,,,,,,,,,,,,,,0.0017596222460269928,0.4886018671095371,,282.15879380330443,test,1,,,,,,,,,,279.6762199215591,280.1717835627496,280.1717835627496,280.18828682228923,280.57328463718295,281.07237163186073,281.1725159659982,282.1763645298779,left,1,0.6833846122026443,0.4,,,,,,,,,,,s021,001,2024-07-26_11h38.29.939,simplestop_skeleton,2022.2.2,59.72469528687329,
None,None,,,,,,,,,0,0,0,0,11,3,47,3,,,,,,,,,282.15923761576414,stop,circleblack.png,left,0.4,,,,,,,,,,,,,,,0.0013104826211929321,0.49035562574863434,0.8906577192246914,284.66239143535495,test,1,,,,,,,,,,282.1763645298779,282.67559138312936,282.67559138312936,282.67559138312936,283.0758944898844,283.5764795280993,283.6766829304397,284.6877268888056,None,0,,0.45,,,,,,,,,,,s021,001,2024-07-26_11h38.29.939,simplestop_skeleton,2022.2.2,59.72469528687329,
,,,,,,,,,,0,0,0,0,,,,,,"[{'fileName': 'squareblack.png', 'correct_response': 'right', 'condition': 'stop'}, {'fileName': 'squareblack.png', 'correct_response': 'right', 'condition': 'go'}, {'fileName': 'circleblack.png', 'correct_response': 'left', 'condition': 'go'}, {'fileName': 'circleblack.png', 'correct_response': 'left', 'condition': 'stop'}, {'fileName': 'circleblack.png', 'correct_response': 'left', 'condition': 'go'}, {'fileName': 'circleblack.png', 'correct_response': 'left', 'condition': 'stop'}, {'fileName': 'squareblack.png', 'correct_response': 'right', 'condition': 'stop'}, {'fileName': 'squareblack.png', 'correct_response': 'right', 'condition': 'go'}, {'fileName': 'circleblack.png', 'correct_response': 'left', 'condition': 'go'}, {'fileName': 'squareblack.png', 'correct_response': 'right', 'condition': 'go'}, {'fileName': 'squareblack.png', 'correct_response': 'right', 'condition': 'go'}, {'fileName': 'circleblack.png', 'correct_response': 'left', 'condition': 'go'}, {'fileName': 'circleblack.png', 'correct_response': 'left', 'condition': 'go'}, {'fileName': 'squareblack.png', 'correct_response': 'right', 'condition': 'go'}, {'fileName': 'circleblack.png', 'correct_response': 'left', 'condition': 'go'}, {'fileName': 'squareblack.png', 'correct_response': 'right', 'condition': 'go'}, {'fileName': 'squareblack.png', 'correct_response': 'right', 'condition': 'stop'}, {'fileName': 'circleblack.png', 'correct_response': 'left', 'condition': 'go'}, {'fileName': 'circleblack.png', 'correct_response': 'left', 'condition': 'stop'}, {'fileName': 'squareblack.png', 'correct_response': 'right', 'condition': 'go'}, {'fileName': 'squareblack.png', 'correct_response': 'right', 'condition': 'go'}, {'fileName': 'circleblack.png', 'correct_response': 'left', 'condition': 'stop'}, {'fileName': 'circleblack.png', 'correct_response': 'left', 'condition': 'go'}, {'fileName': 'squareblack.png', 'correct_response': 'right', 'condition': 'stop'}, {'fileName': 'squareblack.png', 'correct_response': 'right', 'condition': 'go'}, {'fileName': 'circleblack.png', 'correct_response': 'left', 'condition': 'go'}, {'fileName': 'squareblack.png', 'correct_response': 'right', 'condition': 'go'}, {'fileName': 'circleblack.png', 'correct_response': 'left', 'condition': 'stop'}, {'fileName': 'circleblack.png', 'correct_response': 'left', 'condition': 'stop'}, {'fileName': 'squareblack.png', 'correct_response': 'right', 'condition': 'stop'}, {'fileName': 'circleblack.png', 'correct_response': 'left', 'condition': 'go'}, {'fileName': 'circleblack.png', 'correct_response': 'left', 'condition': 'go'}, {'fileName': 'circleblack.png', 'correct_response': 'left', 'condition': 'go'}, {'fileName': 'squareblack.png', 'correct_response': 'right', 'condition': 'stop'}, {'fileName': 'squareblack.png', 'correct_response': 'right', 'condition': 'go'}, {'fileName': 'squareblack.png', 'correct_response': 'right', 'condition': 'go'}, {'fileName': 'circleblack.png', 'correct_response': 'left', 'condition': 'go'}, {'fileName': 'circleblack.png', 'correct_response': 'left', 'condition': 'stop'}, {'fileName': 'circleblack.png', 'correct_response': 'left', 'condition': 'go'}, {'fileName': 'squareblack.png', 'correct_response': 'right', 'condition': 'go'}, {'fileName': 'squareblack.png', 'correct_response': 'right', 'condition': 'stop'}, {'fileName': 'circleblack.png', 'correct_response': 'left', 'condition': 'stop'}, {'fileName': 'squareblack.png', 'correct_response': 'right', 'condition': 'stop'}, {'fileName': 'squareblack.png', 'correct_response': 'right', 'condition': 'go'}, {'fileName': 'circleblack.png', 'correct_response': 'left', 'condition': 'go'}, {'fileName': 'circleblack.png', 'correct_response': 'left', 'condition': 'go'}, {'fileName': 'squareblack.png', 'correct_response': 'right', 'condition': 'go'}, {'fileName': 'squareblack.png', 'correct_response': 'right', 'condition': 'go'}]",,,,,,,,,,,,,,,,,,,,,,,,,,,,,,,,,,,,,,,,,,,,,,,,,,,,,284.6877268888056,284.6877268888056,return,14.310737524181604,,,,,,,s021,001,2024-07-26_11h38.29.939,simplestop_skeleton,2022.2.2,59.72469528687329,
$currentCorrectResponse,$currentGoStim,,,,,,,,,1,0,1,0,0,0,0,0,,,,,,,,,299.03604815900326,stop,squareblack.png,right,0.45,,,,,,,,,,,,,,,0.0017419829964637756,0.498605091124773,0.9490880221128464,301.54831364378333,test,2,,,,,,,,,,299.0544894300401,299.56087298318744,299.56087298318744,299.56087298318744,300.011524297297,300.51214465126395,300.56196988373995,301.5672151148319,None,0,,0.5,,,,,,,,,,,s021,001,2024-07-26_11h38.29.939,simplestop_skeleton,2022.2.2,59.72469528687329,
None,None,,,,,,,,,1,0,1,0,0,1,1,2,,,,,,,,,301.54884745180607,go,squareblack.png,right,0.5,,,,,,,,,,,,,,,0.001394752413034439,0.4892733804881573,,304.0491342134774,test,2,,,,,,,,,,301.5672151148319,302.0640199072659,302.0640199072659,302.0803368128836,302.56415690109134,303.0633954927325,303.0633954927325,304.06671180203557,right,1,0.40469352528452873,0.5,,,,,,,,,,,s021,001,2024-07-26_11h38.29.939,simplestop_skeleton,2022.2.2,59.72469528687329,
$currentCorrectResponse,$currentGoStim,,,,,,,,,1,0,1,0,0,2,2,0,,,,,,,,,304.0496846176684,go,circleblack.png,left,0.5,,,,,,,,,,,,,,,0.001863434910774231,0.4892437979578972,,306.5532488822937,test,2,,,,,,,,,,304.06671180203557,304.56513530761003,304.56513530761003,304.58174516633153,305.06607541814446,305.5660657249391,305.5660657249391,306.5720942877233,left,1,0.4174725152552128,0.5,,,,,,,,,,,s021,001,2024-07-26_11h38.29.939,simplestop_skeleton,2022.2.2,59.72469528687329,
None,None,,,,,,,,,1,0,1,0,0,3,3,1,,,,,,,,,306.55369102582335,stop,circleblack.png,left,0.5,,,,,,,,,,,,,,,0.001373637467622757,0.4898659773170948,0.9903177432715893,309.0546396076679,test,2,,,,,,,,,,306.5720942877233,307.0693594366312,307.0693594366312,307.08597050607204,307.5697784945369,308.06887060403824,308.06887060403824,309.07169330120087,left,1,0.5513717867434025,0.45,,,,,,,,,,,s021,001,2024-07-26_11h38.29.939,simplestop_skeleton,2022.2.2,59.72469528687329,
None,None,,,,,,,,,1,0,1,0,1,0,4,1,,,,,,,,,309.0550813302398,go,circleblack.png,left,0.45,,,,,,,,,,,,,,,0.0013162121176719666,0.48937711864709854,,311.55846655368805,test,2,,,,,,,,,,309.07169330120087,309.5705443844199,309.5705443844199,309.5873349569738,310.021238707006,310.5216301381588,310.57163605093956,311.5777571313083,left,1,0.8483252935111523,0.45,,,,,,,,,,,s021,001,2024-07-26_11h38.29.939,simplestop_skeleton,2022.2.2,59.72469528687329,
None,None,,,,,,,,,1,0,1,0,1,1,5,2,,,,,,,,,311.55890022590756,stop,circleblack.png,left,0.45,,,,,,,,,,,,,,,0.0014058277010917664,0.4897007457911968,0.9402647726237774,314.06121154129505,test,2,,,,,,,,,,311.5777571313083,312.0747534632683,312.0747534632683,312.09131948649883,312.52510523051023,313.02570145204663,313.07597678899765,314.08089535683393,None,0,,0.5,,,,,,,,,,,s021,001,2024-07-26_11h38.29.939,simplestop_skeleton,2022.2.2,59.72469528687329,
None,None,,,,,,,,,1,0,1,0,1,2,6,3,,,,,,,,,314.0616389364004,stop,squareblack.png,right,0.5,,,,,,,,,,,,,,,0.0018546469509601593,0.48967816308140755,0.990123700350523,316.5627893060446,test,2,,,,,,,,,,314.08089535683393,314.57739360257983,314.57739360257983,314.59403385967016,315.07827058434486,315.5938051305711,315.5770135335624,316.5795939080417,right,1,0.538576278835535,0.45,,,,,,,,,,,s021,001,2024-07-26_11h38.29.939,simplestop_skeleton,2022.2.2,59.72469528687329,
$currentCorrectResponse,$currentGoStim,,,,,,,,,1,0,1,0,1,3,7,0,,,,,,,,,316.5632381401956,go,squareblack.png,right,0.45,,,,,,,,,,,,,,,0.0011820271611213684,0.4895131103694439,,319.0668866112828,test,2,,,,,,,,,,316.5795939080417,317.0788863673806,317.0788863673806,317.0788863673806,317.5293505117297,318.02989399060607,318.07996213436127,319.0863047391176,right,1,0.9416336305439472,0.45,,,,,,,,,,,s021,001,2024-07-26_11h38.29.939,simplestop_skeleton,2022.2.2,59.72469528687329,
$currentCorrectResponse,$currentGoStim,,,,,,,,,1,0,1,0,2,0,8,0,,,,,,,,,319.06732823327184,go,circleblack.png,left,0.45,,,,,,,,,,,,,,,0.001958739012479782,0.4896020330488682,,321.56840232014656,test,2,,,,,,,,,,319.0863047391176,319.5830034762621,319.5830034762621,319.5997558645904,320.03349224478006,320.53400713577867,320.58424008637667,321.58552122861147,left,1,0.8572788722813129,0.45,,,,,,,,,,,s021,001,2024-07-26_11h38.29.939,simplestop_skeleton,2022.2.2,59.72469528687329,
None,None,,,,,,,,,1,0,1,0,2,1,9,1,,,,,,,,,321.56884359940886,go,squareblack.png,right,0.45,,,,,,,,,,,,,,,0.0015863552689552307,0.4909162223339081,,324.0724384970963,test,2,,,,,,,,,,321.58552122861147,322.08711233735085,322.08711233735085,322.08711233735085,322.5349041596055,323.03536036238074,323.10209745541215,324.0914536677301,right,1,0.7740526385605335,0.45,,,,,,,,,,,s021,001,2024-07-26_11h38.29.939,simplestop_skeleton,2022.2.2,59.72469528687329,
None,None,,,,,,,,,1,0,1,0,2,2,10,3,,,,,,,,,324.0728681869805,go,squareblack.png,right,0.45,,,,,,,,,,,,,,,0.0012927278876304626,0.4896622784435749,,326.5737314336002,test,2,,,,,,,,,,324.0914536677301,324.5883934274316,324.5883934274316,324.60521690547466,325.0388905592263,325.53823338449,325.58808106556535,326.5911652222276,right,1,0.5887070409953594,0.45,,,,,,,,,,,s021,001,2024-07-26_11h38.29.939,simplestop_skeleton,2022.2.2,59.72469528687329,
$currentCorrectResponse,$currentGoStim,,,,,,,,,1,0,1,0,2,3,11,0,,,,,,,,,326.574172206223,go,circleblack.png,left,0.45,,,,,,,,,,,,,,,0.0017688609659671783,0.48977671936154366,,329.0779386945069,test,2,,,,,,,,,,326.5911652222276,327.0897977165878,327.0897977165878,327.1064742691815,327.5403068177402,328.0410920456052,328.09106709063053,329.09698229655623,left,1,0.6959196254611015,0.45,,,,,,,,,,,s021,001,2024-07-26_11h38.29.939,simplestop_skeleton,2022.2.2,59.72469528687329,
$currentCorrectResponse,$currentGoStim,,,,,,,,,1,0,1,0,3,0,12,0,,,,,,,,,329.07837228477,go,circleblack.png,left,0.45,,,,,,,,,,,,,,,0.001392904669046402,0.48933346942067146,,331.579282566905,test,2,,,,,,,,,,329.09698229655623,329.59387098252773,329.59387098252773,329.61076302453876,330.044810410589,330.5455071516335,330.595405112952,331.59666307270527,left,1,0.8561007939279079,0.45,,,,,,,,,,,s021,001,2024-07-26_11h38.29.939,simplestop_skeleton,2022.2.2,59.72469528687329,
None,None,,,,,,,,,1,0,1,0,3,1,13,3,,,,,,,,,331.5797334499657,go,squareblack.png,right,0.45,,,,,,,,,,,,,,,0.0017002224922180176,0.4898950532078743,,334.0834018178284,test,2,,,,,,,,,,331.59666307270527,332.0961066670716,332.0961066670716,332.11238791048527,332.5457691475749,333.0463708527386,333.09637751057744,334.10279919207096,right,1,0.8939475454390049,0.45,,,,,,,,,,,s021,001,2024-07-26_11h38.29.939,simplestop_skeleton,2022.2.2,59.72469528687329,
None,None,,,,,,,,,1,0,1,0,3,2,14,1,,,,,,,,,334.0838628746569,go,circleblack.png,left,0.45,,,,,,,,,,,,,,,0.0016238614916801453,0.48956721648573875,,336.58476069942117,test,2,,,,,,,,,,334.10279919207096,334.5994838438928,334.5994838438928,334.61629420146346,335.0499018058181,335.5508400425315,335.59935119748116,336.6022732928395,left,1,0.734970360994339,0.45,,,,,,,,,,,s021,001,2024-07-26_11h38.29.939,simplestop_skeleton,2022.2.2,59.72469528687329,
None,None,,,,,,,,,1,0,1,0,3,3,15,2,,,,,,,,,336.5852148346603,go,squareblack.png,right,0.45,,,,,,,,,,,,,,,0.0016332939267158508,0.4898105002939701,,339.08886037766933,test,2,,,,,,,,,,336.6022732928395,337.10096891596913,337.10096891596913,337.11765921860933,337.5513629093766,338.0518181473017,338.1019762046635,339.1074774675071,right,1,0.6090070866048336,0.45,,,,,,,,,,,s021,001,2024-07-26_11h38.29.939,simplestop_skeleton,2022.2.2,59.72469528687329,
None,None,,,,,,,,,1,0,1,0,4,0,16,2,,,,,,,,,339.08932891860604,stop,squareblack.png,right,0.45,,,,,,,,,,,,,,,0.001179870218038559,0.48992469161748886,0.9403409548103809,341.5907411314547,test,2,,,,,,,,,,339.1074774675071,339.60502775758505,339.60502775758505,339.62159541994333,340.05542028322816,340.5566615201533,340.6064347550273,341.60869665816426,None,0,,0.5,,,,,,,,,,,s021,001,2024-07-26_11h38.29.939,simplestop_skeleton,2022.2.2,59.72469528687329,
None,None,,,,,,,,,1,0,1,0,4,1,17,2,,,,,,,,,341.5911902114749,go,circleblack.png,left,0.5,,,,,,,,,,,,,,,0.0018466748297214508,0.4889884516596794,,344.09446208551526,test,2,,,,,,,,,,341.60869665816426,342.1067956984043,342.1067956984043,342.12391525506973,342.6069738380611,343.1075848080218,343.1075848080218,344.113382499665,left,1,0.5628296248614788,0.5,,,,,,,,,,,s021,001,2024-07-26_11h38.29.939,simplestop_skeleton,2022.2.2,59.72469528687329,
None,None,,,,,,,,,1,0,1,0,4,2,18,1,,,,,,,,,344.09489557147026,stop,circleblack.png,left,0.5,,,,,,,,,,,,,,,0.001350950449705124,0.48970093950629234,0.9903017394244671,346.59723599627614,test,2,,,,,,,,,,344.113382499665,344.610537186265,344.610537186265,344.6272577792406,345.1110243871808,345.61172441393137,345.61172441393137,346.61658573150635,None,0,,0.55,,,,,,,,,,,s021,001,2024-07-26_11h38.29.939,simplestop_skeleton,2022.2.2,59.72469528687329,
None,None,,,,,,,,,1,0,1,0,4,3,19,3,,,,,,,,,346.5976624637842,go,squareblack.png,right,0.55,,,,,,,,,,,,,,,0.0016149021685123444,0.48976995423436165,,349.09880139678717,test,2,,,,,,,,,,346.61658573150635,347.11328752338886,347.11328752338886,347.1299016289413,347.66445426270366,348.1797278895974,348.11300687119365,349.11545353382826,right,1,0.5488680563867092,0.55,,,,,,,,,,,s021,001,2024-07-26_11h38.29.939,simplestop_skeleton,2022.2.2,59.72469528687329,
None,None,,,,,,,,,1,0,1,0,5,0,20,2,,,,,,,,,349.0992574580014,go,squareblack.png,right,0.55,,,,,,,,,,,,,,,0.001191854476928711,0.4894406609237194,,351.602979876101,test,2,,,,,,,,,,349.11545353382826,349.61459228023887,349.61459228023887,349.61459228023887,350.1653746403754,350.6659337282181,350.6157856285572,351.62247351557016,right,1,0.7867509089410305,0.55,,,,,,,,,,,s021,001,2024-07-26_11h38.29.939,simplestop_skeleton,2022.2.2,59.72469528687329,
None,None,,,,,,,,,1,0,1,0,5,1,21,3,,,,,,,,,351.6034184657037,stop,circleblack.png,left,0.55,,,,,,,,,,,,,,,0.0020819641649723053,0.48959293961524963,1.0399232506752014,354.1042524203658,test,2,,,,,,,,,,351.62247351557016,352.1187933161855,352.1187933161855,352.1354155279696,352.6693838685751,353.1689290367067,353.12034153565764,354.13544054329395,left,1,0.7326591536402702,0.5,,,,,,,,,,,s021,001,2024-07-26_11h38.29.939,simplestop_skeleton,2022.2.2,59.72469528687329,
None,None,,,,,,,,,1,0,1,0,5,2,22,1,,,,,,,,,354.1046911776066,go,circleblack.png,left,0.5,,,,,,,,,,,,,,,0.0012596212327480316,0.48950735852122307,,356.6082274802029,test,2,,,,,,,,,,354.13544054329395,354.62038895860314,354.62038895860314,354.6370231769979,355.12077195197344,355.62135967612267,355.62135967612267,356.62765266373754,left,1,0.816314373165369,0.5,,,,,,,,,,,s021,001,2024-07-26_11h38.29.939,simplestop_skeleton,2022.2.2,59.72469528687329,
None,None,,,,,,,,,1,0,1,0,5,3,23,2,,,,,,,,,356.60871275886893,stop,squareblack.png,right,0.5,,,,,,,,,,,,,,,0.00161014124751091,0.4894527494907379,0.990269023925066,359.1110617220402,test,2,,,,,,,,,,356.62765266373754,357.12472743541,357.12472743541,357.1410074532032,357.625174138695,358.12543315440416,358.12543315440416,359.13021540269256,None,0,,0.55,,,,,,,,,,,s021,001,2024-07-26_11h38.29.939,simplestop_skeleton,2022.2.2,59.72469528687329,
None,None,,,,,,,,,1,0,1,0,6,0,24,3,,,,,,,,,359.1115009598434,go,squareblack.png,right,0.55,,,,,,,,,,,,,,,0.0011789090931415558,0.4897613562643528,,361.61253602802753,test,2,,,,,,,,,,359.13021540269256,359.6272712498903,359.6272712498903,359.64383375644684,360.17786944657564,360.6782534942031,360.62856736034155,361.63051676750183,right,1,0.9928703047335148,0.55,,,,,,,,,,,s021,001,2024-07-26_11h38.29.939,simplestop_skeleton,2022.2.2,59.72469528687329,
None,None,,,,,,,,,1,0,1,0,6,1,25,1,,,,,,,,,361.6129972822964,go,circleblack.png,left,0.55,,,,,,,,,,,,,,,0.0019152089953422546,0.4891865514218807,,364.1160000227392,test,2,,,,,,,,,,361.63051676750183,362.1284603960812,362.1284603960812,362.14535358175635,362.6790828742087,363.17974243685603,363.129898134619,364.1352527625859,left,1,0.8282873444259167,0.55,,,,,,,,,,,s021,001,2024-07-26_11h38.29.939,simplestop_skeleton,2022.2.2,59.72469528687329,
None,None,,,,,,,,,1,0,1,0,6,2,26,1,,,,,,,,,364.11643631756306,go,squareblack.png,right,0.55,,,,,,,,,,,,,,,0.0016416236758232117,0.49033673107624054,,366.61802756786346,test,2,,,,,,,,,,364.1352527625859,364.632579497993,364.632579497993,364.6494811177254,365.1833073012531,365.6842325180769,365.6341691315174,366.63516096398234,right,1,0.7964676097035408,0.55,,,,,,,,,,,s021,001,2024-07-26_11h38.29.939,simplestop_skeleton,2022.2.2,59.72469528687329,
None,None,,,,,,,,,1,0,1,0,6,3,27,2,,,,,,,,,366.6184631995857,stop,circleblack.png,left,0.55,,,,,,,,,,,,,,,0.0017242692410945892,0.48994379863142967,1.0403739474713802,369.122225522995,test,2,,,,,,,,,,366.63516096398234,367.1345289647579,367.1345289647579,367.1345289647579,367.6846254467964,368.18516763299704,368.1351598203182,369.1412626616657,None,0,,0.6,,,,,,,,,,,s021,001,2024-07-26_11h38.29.939,simplestop_skeleton,2022.2.2,59.72469528687329,
None,None,,,,,,,,,1,0,1,0,7,0,28,1,,,,,,,,,369.12265521660447,stop,circleblack.png,left,0.6,,,,,,,,,,,,,,,0.0013195537030696869,0.4897172302007675,1.090208537876606,371.6234885342419,test,2,,,,,,,,,,369.1412626616657,369.63832964375615,369.63832964375615,369.65481209382415,370.2386645153165,370.7398179732263,370.6395747438073,371.6407231763005,None,0,,0.65,,,,,,,,,,,s021,001,2024-07-26_11h38.29.939,simplestop_skeleton,2022.2.2,59.72469528687329,
None,None,,,,,,,,,1,0,1,0,7,1,29,1,,,,,,,,,371.6239269413054,stop,squareblack.png,right,0.65,,,,,,,,,,,,,,,0.0016171932220458984,0.4917493760585785,1.1402852199971676,374.12743823230267,test,2,,,,,,,,,,371.6407231763005,372.13947938010097,372.13947938010097,372.13947938010097,372.7902530916035,373.2907291725278,373.140806004405,374.1466337479651,None,0,,0.7,,,,,,,,,,,s021,001,2024-07-26_11h38.29.939,simplestop_skeleton,2022.2.2,59.72469528687329,
None,None,,,,,,,,,1,0,1,0,7,2,30,2,,,,,,,,,374.12786593288183,go,circleblack.png,left,0.7,,,,,,,,,,,,,,,0.0017893873155117035,0.48989640548825264,,376.62949492037296,test,2,,,,,,,,,,374.1466337479651,374.64363869279623,374.64363869279623,374.66035605221987,375.3446128666401,375.84535866603255,375.6447254680097,376.64741606265306,left,1,1.0108518153429031,0.7,,,,,,,,,,,s021,001,2024-07-26_11h38.29.939,simplestop_skeleton,2022.2.2,59.72469528687329,
None,None,,,,,,,,,1,0,1,0,7,3,31,3,,,,,,,,,376.6299328543246,go,circleblack.png,left,0.7,,,,,,,,,,,,,,,0.001306440681219101,0.48854488134384155,,379.1326489932835,test,2,,,,,,,,,,376.64741606265306,377.145097758621,377.145097758621,377.16170743107796,377.8456858508289,378.34657395258546,378.14632761478424,379.14952029287815,left,1,0.9589802175760269,0.7,,,,,,,,,,,s021,001,2024-07-26_11h38.29.939,simplestop_skeleton,2022.2.2,59.72469528687329,
None,None,,,,,,,,,1,0,1,0,8,0,32,1,,,,,,,,,379.13308188319206,go,circleblack.png,left,0.7,,,,,,,,,,,,,,,0.0012725703418254852,0.49024146795272827,,381.63457802310586,test,2,,,,,,,,,,379.14952029287815,379.64934946224093,379.64934946224093,379.64934946224093,380.34994054958224,380.85096837580204,380.6502569168806,381.65737733989954,left,1,0.9436982683837414,0.7,,,,,,,,,,,s021,001,2024-07-26_11h38.29.939,simplestop_skeleton,2022.2.2,59.72469528687329,
None,None,,,,,,,,,1,0,1,0,8,1,33,3,,,,,,,,,381.6350205205381,stop,squareblack.png,right,0.7,,,,,,,,,,,,,,,0.007458016276359558,0.48925863206386566,1.1899291463196278,384.1385646648705,test,2,,,,,,,,,,381.65737733989954,382.15053230151534,382.15053230151534,382.16716008260846,382.85136960074306,383.3518333174288,383.1517862007022,384.1586935594678,right,1,1.0602303817868233,0.65,,,,,,,,,,,s021,001,2024-07-26_11h38.29.939,simplestop_skeleton,2022.2.2,59.72469528687329,
$currentCorrectResponse,$currentGoStim,,,,,,,,,1,0,1,0,8,2,34,0,,,,,,,,,384.13917434588075,go,squareblack.png,right,0.65,,,,,,,,,,,,,,,0.00201314315199852,0.4884861633181572,,386.6403328180313,test,2,,,,,,,,,,384.1586935594678,384.6550482213497,384.6550482213497,384.67154401913285,385.30555264651775,385.80626106262207,385.65627728402615,386.65857212245464,right,1,1.0012731850147247,0.65,,,,,,,,,,,s021,001,2024-07-26_11h38.29.939,simplestop_skeleton,2022.2.2,59.72469528687329,
None,None,,,,,,,,,1,0,1,0,8,3,35,3,,,,,,,,,386.6407779753208,go,squareblack.png,right,0.65,,,,,,,,,,,,,,,0.0012909770011901855,0.488325871527195,,389.1439028456807,test,2,,,,,,,,,,386.65857212245464,387.1560813896358,387.1560813896358,387.17273469641805,387.8067446574569,388.3074086755514,388.15716027468443,389.1614782772958,right,1,0.9566486403346062,0.65,,,,,,,,,,,s021,001,2024-07-26_11h38.29.939,simplestop_skeleton,2022.2.2,59.72469528687329,
None,None,,,,,,,,,1,0,1,0,9,0,36,2,,,,,,,,,389.144338760525,go,circleblack.png,left,0.65,,,,,,,,,,,,,,,0.0019501782953739166,0.48997869342565536,,391.6457145176828,test,2,,,,,,,,,,389.1614782772958,389.66029343754053,389.66029343754053,389.6768811605871,390.31078857928514,390.81188989430666,390.66144815832376,391.6633427850902,left,1,0.9185810908675194,0.65,,,,,,,,,,,s021,001,2024-07-26_11h38.29.939,simplestop_skeleton,2022.2.2,59.72469528687329,
None,None,,,,,,,,,1,0,1,0,9,1,37,3,,,,,,,,,391.6461820304394,stop,circleblack.png,left,0.65,,,,,,,,,,,,,,,0.0012931600213050842,0.48921018093824387,1.1398676075041294,394.1495576277375,test,2,,,,,,,,,,391.6633427850902,392.1617201305926,392.1617201305926,392.1782035380602,392.81224605068564,393.3128003664315,393.1627109386027,394.16722129285336,None,0,,0.7,,,,,,,,,,,s021,001,2024-07-26_11h38.29.939,simplestop_skeleton,2022.2.2,59.72469528687329,
None,None,,,,,,,,,1,0,1,0,9,2,38,1,,,,,,,,,394.14998830109835,go,circleblack.png,left,0.7,,,,,,,,,,,,,,,0.0012666061520576477,0.48998939990997314,,396.6512006223202,test,2,,,,,,,,,,394.16722129285336,394.6657589972019,394.6657589972019,394.6824915744364,395.3665365613997,395.8677967712283,395.66684990376234,396.67323284968734,left,1,1.185798890888691,0.7,,,,,,,,,,,s021,001,2024-07-26_11h38.29.939,simplestop_skeleton,2022.2.2,59.72469528687329,
None,None,,,,,,,,,1,0,1,0,9,3,39,2,,,,,,,,,396.6516592204571,go,squareblack.png,right,0.7,,,,,,,,,,,,,,,0.007060877978801727,0.4893963411450386,,399.1573915146291,test,2,,,,,,,,,,396.67323284968734,397.1670844145119,397.1670844145119,397.1838191077113,397.8678772263229,398.3683947250247,398.16817580908537,399.17479671165347,right,1,1.0371441058814526,0.7,,,,,,,,,,,s021,001,2024-07-26_11h38.29.939,simplestop_skeleton,2022.2.2,59.72469528687329,
None,None,,,,,,,,,1,0,1,0,10,0,40,2,,,,,,,,,399.1578836031258,stop,squareblack.png,right,0.7,,,,,,,,,,,,,,,0.001641884446144104,0.4869898073375225,1.187855888158083,401.6566220521927,test,2,,,,,,,,,,399.17479671165347,399.6713325865567,399.6713325865567,399.6879700794816,400.3725531101227,400.8879950903356,400.6727998033166,401.67436768859625,right,1,0.6896519549190998,0.65,,,,,,,,,,,s021,001,2024-07-26_11h38.29.939,simplestop_skeleton,2022.2.2,59.72469528687329,
None,None,,,,,,,,,1,0,1,0,10,1,41,3,,,,,,,,,401.65705816447735,stop,circleblack.png,left,0.65,,,,,,,,,,,,,,,0.0018389150500297546,0.4896203875541687,1.1403104327619076,404.16079776361585,test,2,,,,,,,,,,401.67436768859625,402.1727876365185,402.1727876365185,402.1895162947476,402.82355716079473,403.32389249280095,403.1737853847444,404.18069971352816,left,1,0.6067626737058163,0.6,,,,,,,,,,,s021,001,2024-07-26_11h38.29.939,simplestop_skeleton,2022.2.2,59.72469528687329,
None,None,,,,,,,,,1,0,1,0,10,2,42,3,,,,,,,,,404.1612284556031,stop,squareblack.png,right,0.6,,,,,,,,,,,,,,,0.002374202013015747,0.48885947838425636,1.089614998549223,406.6623110473156,test,2,,,,,,,,,,404.18069971352816,404.67702179029584,404.67702179029584,404.6935504414141,405.27755031362176,405.778534963727,405.6783004924655,406.67900977656245,right,1,0.7284175083041191,0.55,,,,,,,,,,,s021,001,2024-07-26_11h38.29.939,simplestop_skeleton,2022.2.2,59.72469528687329,
$currentCorrectResponse,$currentGoStim,,,,,,,,,1,0,1,0,10,3,43,0,,,,,,,,,406.66278755664825,go,squareblack.png,right,0.55,,,,,,,,,,,,,,,0.0012212544679641724,0.4896886609494686,,409.16622891277075,test,2,,,,,,,,,,406.67900977656245,407.1781608350575,407.1781608350575,407.1781608350575,407.7287582717836,408.229433234781,408.179335962981,409.1856748647988,right,1,1.1002919152379036,0.55,,,,,,,,,,,s021,001,2024-07-26_11h38.29.939,simplestop_skeleton,2022.2.2,59.72469528687329,
$currentCorrectResponse,$currentGoStim,,,,,,,,,1,0,1,0,11,0,44,0,,,,,,,,,409.1666835471988,go,circleblack.png,left,0.55,,,,,,,,,,,,,,,0.0019733086228370667,0.4896298199892044,,411.66786731407046,test,2,,,,,,,,,,409.1856748647988,409.6822101995349,409.6822101995349,409.6990438848734,410.23306730762124,410.73384726420045,410.68382941931486,411.68460113555193,left,1,0.7600280344486237,0.55,,,,,,,,,,,s021,001,2024-07-26_11h38.29.939,simplestop_skeleton,2022.2.2,59.72469528687329,
$currentCorrectResponse,$currentGoStim,,,,,,,,,1,0,1,0,11,1,45,0,,,,,,,,,411.6683311276138,go,circleblack.png,left,0.55,,,,,,,,,,,,,,,0.0012455247342586517,0.491576112806797,,414.171802893281,test,2,,,,,,,,,,411.68460113555193,412.18371964246035,412.18371964246035,412.18371964246035,412.73433968424797,413.2348089106381,413.1848513260484,414.19102999940515,left,1,0.679152350872755,0.55,,,,,,,,,,,s021,001,2024-07-26_11h38.29.939,simplestop_skeleton,2022.2.2,59.72469528687329,
$currentCorrectResponse,$currentGoStim,,,,,,,,,1,0,1,0,11,2,46,0,,,,,,,,,414.17224660143256,go,squareblack.png,right,0.55,,,,,,,,,,,,,,,0.0016314350068569183,0.4894607737660408,,416.6730740480125,test,2,,,,,,,,,,414.19102999940515,414.687809638679,414.687809638679,414.70458091050386,415.2383204065263,415.737796343863,415.6877435743809,416.68996127694845,right,1,0.6931348890066147,0.55,,,,,,,,,,,s021,001,2024-07-26_11h38.29.939,simplestop_skeleton,2022.2.2,59.72469528687329,
$currentCorrectResponse,$currentGoStim,,,,,,,,,1,0,1,0,11,3,47,0,,,,,,,,,416.6735707819462,go,squareblack.png,right,0.55,,,,,,,,,,,,,,,0.0011799260973930359,0.4894712492823601,,419.17731915041804,test,2,,,,,,,,,,416.68996127694845,417.18924374878407,417.18924374878407,417.18924374878407,417.73979771509767,418.2403719499707,418.19028002396226,419.19318018481135,right,1,0.7881812006235123,0.55,,,,,,,,,,,s021,001,2024-07-26_11h38.29.939,simplestop_skeleton,2022.2.2,59.72469528687329,
,,,,,,,,,,1,0,1,0,,,,,,,,,,,,,,,,,,,,,,,,,,,,,,,,,,,,,,,,,,,,,,,,,,,,,,,,,,,419.19318018481135,419.19318018481135,return,12.54797688871622,"[{'fileName': 'squareblack.png', 'correct_response': 'right', 'condition': 'stop'}, {'fileName': 'squareblack.png', 'correct_response': 'right', 'condition': 'go'}, {'fileName': 'circleblack.png', 'correct_response': 'left', 'condition': 'go'}, {'fileName': 'squareblack.png', 'correct_response': 'right', 'condition': 'go'}, {'fileName': 'circleblack.png', 'correct_response': 'left', 'condition': 'stop'}, {'fileName': 'squareblack.png', 'correct_response': 'right', 'condition': 'go'}, {'fileName': 'circleblack.png', 'correct_response': 'left', 'condition': 'go'}, {'fileName': 'circleblack.png', 'correct_response': 'left', 'condition': 'go'}, {'fileName': 'circleblack.png', 'correct_response': 'left', 'condition': 'stop'}, {'fileName': 'circleblack.png', 'correct_response': 'left', 'condition': 'go'}, {'fileName': 'squareblack.png', 'correct_response': 'right', 'condition': 'go'}, {'fileName': 'squareblack.png', 'correct_response': 'right', 'condition': 'stop'}, {'fileName': 'circleblack.png', 'correct_response': 'left', 'condition': 'stop'}, {'fileName': 'squareblack.png', 'correct_response': 'right', 'condition': 'go'}, {'fileName': 'squareblack.png', 'correct_response': 'right', 'condition': 'go'}, {'fileName': 'circleblack.png', 'correct_response': 'left', 'condition': 'go'}, {'fileName': 'squareblack.png', 'correct_response': 'right', 'condition': 'go'}, {'fileName': 'squareblack.png', 'correct_response': 'right', 'condition': 'go'}, {'fileName': 'squareblack.png', 'correct_response': 'right', 'condition': 'stop'}, {'fileName': 'circleblack.png', 'correct_response': 'left', 'condition': 'go'}, {'fileName': 'squareblack.png', 'correct_response': 'right', 'condition': 'stop'}, {'fileName': 'circleblack.png', 'correct_response': 'left', 'condition': 'stop'}, {'fileName': 'circleblack.png', 'correct_response': 'left', 'condition': 'go'}, {'fileName': 'circleblack.png', 'correct_response': 'left', 'condition': 'go'}, {'fileName': 'squareblack.png', 'correct_response': 'right', 'condition': 'go'}, {'fileName': 'circleblack.png', 'correct_response': 'left', 'condition': 'go'}, {'fileName': 'circleblack.png', 'correct_response': 'left', 'condition': 'go'}, {'fileName': 'circleblack.png', 'correct_response': 'left', 'condition': 'go'}, {'fileName': 'circleblack.png', 'correct_response': 'left', 'condition': 'go'}, {'fileName': 'squareblack.png', 'correct_response': 'right', 'condition': 'stop'}, {'fileName': 'squareblack.png', 'correct_response': 'right', 'condition': 'go'}, {'fileName': 'squareblack.png', 'correct_response': 'right', 'condition': 'go'}, {'fileName': 'squareblack.png', 'correct_response': 'right', 'condition': 'go'}, {'fileName': 'circleblack.png', 'correct_response': 'left', 'condition': 'stop'}, {'fileName': 'squareblack.png', 'correct_response': 'right', 'condition': 'stop'}, {'fileName': 'circleblack.png', 'correct_response': 'left', 'condition': 'stop'}, {'fileName': 'circleblack.png', 'correct_response': 'left', 'condition': 'go'}, {'fileName': 'squareblack.png', 'correct_response': 'right', 'condition': 'go'}, {'fileName': 'squareblack.png', 'correct_response': 'right', 'condition': 'go'}, {'fileName': 'circleblack.png', 'correct_response': 'left', 'condition': 'stop'}, {'fileName': 'squareblack.png', 'correct_response': 'right', 'condition': 'stop'}, {'fileName': 'squareblack.png', 'correct_response': 'right', 'condition': 'go'}, {'fileName': 'circleblack.png', 'correct_response': 'left', 'condition': 'go'}, {'fileName': 'squareblack.png', 'correct_response': 'right', 'condition': 'go'}, {'fileName': 'circleblack.png', 'correct_response': 'left', 'condition': 'go'}, {'fileName': 'circleblack.png', 'correct_response': 'left', 'condition': 'go'}, {'fileName': 'squareblack.png', 'correct_response': 'right', 'condition': 'stop'}, {'fileName': 'circleblack.png', 'correct_response': 'left', 'condition': 'stop'}]",,,,,,s021,001,2024-07-26_11h38.29.939,simplestop_skeleton,2022.2.2,59.72469528687329,
None,None,,,,,,,,,2,0,2,0,0,0,0,1,,,,,,,,,431.77475210279226,stop,squareblack.png,right,0.55,,,,,,,,,,,,,,,0.0012423284351825714,0.48967626690864563,1.0402316562831402,434.2777491621673,test,3,,,,,,,,,,431.79276778921485,432.29062489792705,432.29062489792705,432.30731323361397,432.84152882918715,433.34188816323876,433.2918719612062,434.2965728417039,right,1,0.5933774895966053,0.5,,,,,,,,,,,s021,001,2024-07-26_11h38.29.939,simplestop_skeleton,2022.2.2,59.72469528687329,
$currentCorrectResponse,$currentGoStim,,,,,,,,,2,0,2,0,0,1,1,0,,,,,,,,,434.2782842554152,go,squareblack.png,right,0.5,,,,,,,,,,,,,,,0.0013308338820934296,0.48932263627648354,,436.77869125828147,test,3,,,,,,,,,,434.2965728417039,434.79349763318896,434.79349763318896,434.81005585193634,435.29400762170553,435.7948174402118,435.7948174402118,436.8008729368448,right,1,0.7698526717722416,0.5,,,,,,,,,,,s021,001,2024-07-26_11h38.29.939,simplestop_skeleton,2022.2.2,59.72469528687329,
None,None,,,,,,,,,2,0,2,0,0,2,2,3,,,,,,,,,436.7791282981634,go,circleblack.png,left,0.5,,,,,,,,,,,,,,,0.007425393909215927,0.49019621685147285,,439.2827737890184,test,3,,,,,,,,,,436.8008729368448,437.29570714756846,437.29570714756846,437.3206986002624,437.7952304147184,438.29599841684103,438.29599841684103,439.30223297327757,left,1,0.7247725799679756,0.5,,,,,,,,,,,s021,001,2024-07-26_11h38.29.939,simplestop_skeleton,2022.2.2,59.72469528687329,
$currentCorrectResponse,$currentGoStim,,,,,,,,,2,0,2,0,0,3,3,0,,,,,,,,,439.2832045406103,go,squareblack.png,right,0.5,,,,,,,,,,,,,,,0.0017339959740638733,0.4894932247698307,,441.7841493934393,test,3,,,,,,,,,,439.30223297327757,439.79899234324694,439.79899234324694,439.8154919631779,440.2994073033333,440.8004182726145,440.8004182726145,441.80162689089775,right,1,0.7720787078142166,0.5,,,,,,,,,,,s021,001,2024-07-26_11h38.29.939,simplestop_skeleton,2022.2.2,59.72469528687329,
None,None,,,,,,,,,2,0,2,0,1,0,4,3,,,,,,,,,441.78458623215556,stop,circleblack.png,left,0.5,,,,,,,,,,,,,,,0.001751389354467392,0.4895547702908516,0.9901698566973209,444.28830052539706,test,3,,,,,,,,,,441.80162689089775,442.30022230371833,442.30022230371833,442.3175498768687,442.8008034937084,443.30142107233405,443.30142107233405,444.30746895447373,None,0,,0.55,,,,,,,,,,,s021,001,2024-07-26_11h38.29.939,simplestop_skeleton,2022.2.2,59.72469528687329,
None,None,,,,,,,,,2,0,2,0,1,1,5,1,,,,,,,,,444.2887328378856,go,squareblack.png,right,0.55,,,,,,,,,,,,,,,0.0017024464905261993,0.4897390455007553,,446.79003462195396,test,3,,,,,,,,,,444.30746895447373,444.80447011068463,444.80447011068463,444.8211385011673,445.3550353311002,445.85628854110837,445.8055573217571,446.8084193728864,right,1,0.9334213174879551,0.55,,,,,,,,,,,s021,001,2024-07-26_11h38.29.939,simplestop_skeleton,2022.2.2,59.72469528687329,
None,None,,,,,,,,,2,0,2,0,1,2,6,3,,,,,,,,,446.7904770448804,go,circleblack.png,left,0.55,,,,,,,,,,,,,,,0.0018305666744709015,0.4889891743659973,,449.29354489967227,test,3,,,,,,,,,,446.8084193728864,447.30576214566827,447.30576214566827,447.3223495669663,447.8563736155629,448.35750932246447,448.3067732490599,449.3100030645728,left,1,0.9052398279309273,0.55,,,,,,,,,,,s021,001,2024-07-26_11h38.29.939,simplestop_skeleton,2022.2.2,59.72469528687329,
None,None,,,,,,,,,2,0,2,0,1,3,7,2,,,,,,,,,449.29397731274366,go,circleblack.png,left,0.55,,,,,,,,,,,,,,,0.0012723132967948914,0.49011632800102234,,451.795452862978,test,3,,,,,,,,,,449.3100030645728,449.81004831939936,449.81004831939936,449.81004831939936,450.36052657291293,450.86176081746817,450.81102583929896,451.8131268583238,left,1,0.9518239162862301,0.55,,,,,,,,,,,s021,001,2024-07-26_11h38.29.939,simplestop_skeleton,2022.2.2,59.72469528687329,
$currentCorrectResponse,$currentGoStim,,,,,,,,,2,0,2,0,2,0,8,0,,,,,,,,,451.79591822624207,stop,circleblack.png,left,0.55,,,,,,,,,,,,,,,0.0012864023447036743,0.48907142132520676,1.0397366061806679,454.29854346066713,test,3,,,,,,,,,,451.8131268583238,452.31122002005577,452.31122002005577,452.32808208093047,452.86194748431444,453.3628693893552,453.3124576769769,454.3161774203181,None,0,,0.6,,,,,,,,,,,s021,001,2024-07-26_11h38.29.939,simplestop_skeleton,2022.2.2,59.72469528687329,
$currentCorrectResponse,$currentGoStim,,,,,,,,,2,0,2,0,2,1,9,0,,,,,,,,,454.2989739626646,go,circleblack.png,left,0.6,,,,,,,,,,,,,,,0.0012970007956027985,0.49034513905644417,,456.8008785881102,test,3,,,,,,,,,,454.3161774203181,454.8153112642467,454.8153112642467,454.8153112642467,455.4160854257643,455.916965495795,455.81685622781515,456.8227163553238,left,1,0.8108492307364941,0.6,,,,,,,,,,,s021,001,2024-07-26_11h38.29.939,simplestop_skeleton,2022.2.2,59.72469528687329,
$currentCorrectResponse,$currentGoStim,,,,,,,,,2,0,2,0,2,2,10,0,,,,,,,,,456.8013115413487,go,squareblack.png,right,0.6,,,,,,,,,,,,,,,0.007172916084527969,0.48958827555179596,,459.30499167367816,test,3,,,,,,,,,,456.8227163553238,457.31707513704896,457.31707513704896,457.3344027623534,457.91741218417883,458.41812958940864,458.31808499991894,459.32390877231956,right,1,0.9407639615237713,0.6,,,,,,,,,,,s021,001,2024-07-26_11h38.29.939,simplestop_skeleton,2022.2.2,59.72469528687329,
None,None,,,,,,,,,2,0,2,0,2,3,11,1,,,,,,,,,459.3054384253919,stop,squareblack.png,right,0.6,,,,,,,,,,,,,,,0.001183483749628067,0.48966094478964806,1.0902637988328934,461.806428540498,test,3,,,,,,,,,,459.32390877231956,459.8209639787674,459.8209639787674,459.8376398347318,460.421684358269,460.92069912701845,460.82071332633495,461.82379699870944,None,0,,0.65,,,,,,,,,,,s021,001,2024-07-26_11h38.29.939,simplestop_skeleton,2022.2.2,59.72469528687329,
None,None,,,,,,,,,2,0,2,0,3,0,12,3,,,,,,,,,461.8068731762469,stop,circleblack.png,left,0.65,,,,,,,,,,,,,,,0.0018273405730724335,0.4894857071340084,1.1401971094310284,464.3104990720749,test,3,,,,,,,,,,461.82379699870944,462.3223856240511,462.3223856240511,462.3390733934939,462.97326558455825,463.47350055351853,463.32340456545353,464.32957972958684,None,0,,0.7,,,,,,,,,,,s021,001,2024-07-26_11h38.29.939,simplestop_skeleton,2022.2.2,59.72469528687329,
None,None,,,,,,,,,2,0,2,0,3,1,13,1,,,,,,,,,464.31092923507094,go,squareblack.png,right,0.7,,,,,,,,,,,,,,,0.0016414634883403778,0.48958154395222664,,466.8118662685156,test,3,,,,,,,,,,464.32957972958684,464.8265701942146,464.8265701942146,464.8432772234082,465.5274373590946,466.028207719326,465.827641017735,466.82926841825247,right,1,0.9350603111088276,0.7,,,,,,,,,,,s021,001,2024-07-26_11h38.29.939,simplestop_skeleton,2022.2.2,59.72469528687329,
None,None,,,,,,,,,2,0,2,0,3,2,14,2,,,,,,,,,466.8123640716076,go,squareblack.png,right,0.7,,,,,,,,,,,,,,,0.0012052170932292938,0.489244993776083,,469.31510439515114,test,3,,,,,,,,,,466.82926841825247,467.32786794006824,467.32786794006824,467.3445543423295,468.0285588502884,468.5292572528124,468.3289711289108,469.33336520567536,right,1,0.9605788066983223,0.7,,,,,,,,,,,s021,001,2024-07-26_11h38.29.939,simplestop_skeleton,2022.2.2,59.72469528687329,
None,None,,,,,,,,,2,0,2,0,3,3,15,2,,,,,,,,,469.31555745750666,go,circleblack.png,left,0.7,,,,,,,,,,,,,,,0.0018872544169425964,0.49053196236491203,,471.8174987062812,test,3,,,,,,,,,,469.33336520567536,469.8320920728147,469.8320920728147,469.8486393727362,470.5326952971518,471.0339180417359,470.8331056162715,471.83538956567645,left,1,0.9449844285845757,0.7,,,,,,,,,,,s021,001,2024-07-26_11h38.29.939,simplestop_skeleton,2022.2.2,59.72469528687329,
None,None,,,,,,,,,2,0,2,0,4,0,16,1,,,,,,,,,471.8179552294314,go,squareblack.png,right,0.7,,,,,,,,,,,,,,,0.00177089124917984,0.4893038459122181,,474.3209779597819,test,3,,,,,,,,,,471.83538956567645,472.33334601297975,472.33334601297975,472.3500543832779,473.0340903364122,473.5348285622895,473.33450374379754,474.3382003083825,right,1,0.8512839116156101,0.7,,,,,,,,,,,s021,001,2024-07-26_11h38.29.939,simplestop_skeleton,2022.2.2,59.72469528687329,
None,None,,,,,,,,,2,0,2,0,4,1,17,1,,,,,,,,,474.3214097395539,go,squareblack.png,right,0.7,,,,,,,,,,,,,,,0.0011837296187877655,0.4901234395802021,,476.823104403913,test,3,,,,,,,,,,474.3382003083825,474.8376110456884,474.8376110456884,474.8376110456884,475.53839188069105,476.0394869968295,475.83897952735424,476.84072428941727,right,1,0.8953026868402958,0.7,,,,,,,,,,,s021,001,2024-07-26_11h38.29.939,simplestop_skeleton,2022.2.2,59.72469528687329,
None,None,,,,,,,,,2,0,2,0,4,2,18,1,,,,,,,,,476.82354982569814,stop,squareblack.png,right,0.7,,,,,,,,,,,,,,,0.0012879595160484314,0.4891691319644451,1.1898447312414646,479.3265492506325,test,3,,,,,,,,,,476.84072428941727,477.3388985581696,477.3388985581696,477.35557490214705,478.03956547006965,478.54029377922416,478.3401604928076,479.344083763659,None,0,,0.75,,,,,,,,,,,s021,001,2024-07-26_11h38.29.939,simplestop_skeleton,2022.2.2,59.72469528687329,
None,None,,,,,,,,,2,0,2,0,4,3,19,2,,,,,,,,,479.32699047774076,go,circleblack.png,left,0.75,,,,,,,,,,,,,,,0.0019617825746536255,0.49006693810224533,,481.8285289146006,test,3,,,,,,,,,,479.344083763659,479.843081086874,479.843081086874,479.8597807213664,480.5940581522882,481.0945374108851,480.84403412789106,481.8459179662168,left,1,1.1773717738687992,0.75,,,,,,,,,,,s021,001,2024-07-26_11h38.29.939,simplestop_skeleton,2022.2.2,59.72469528687329,
None,None,,,,,,,,,2,0,2,0,5,0,20,2,,,,,,,,,481.8289955854416,stop,squareblack.png,right,0.75,,,,,,,,,,,,,,,0.0017508268356323242,0.48951708897948265,1.2405041716992855,484.3313856571913,test,3,,,,,,,,,,481.8459179662168,482.3444996587932,482.3444996587932,482.3611387833953,483.09534810110927,483.5959966182709,483.34557274356484,484.34868836030364,right,1,0.6801165714859962,0.7,,,,,,,,,,,s021,001,2024-07-26_11h38.29.939,simplestop_skeleton,2022.2.2,59.72469528687329,
None,None,,,,,,,,,2,0,2,0,5,1,21,2,,,,,,,,,484.3318353705108,stop,circleblack.png,left,0.7,,,,,,,,,,,,,,,0.0017276927828788757,0.4894595891237259,1.1902519427239895,486.83533780649304,test,3,,,,,,,,,,484.34868836030364,484.84716027602553,484.84716027602553,484.8639554642141,485.54800409823656,486.0489804111421,485.84827360883355,486.85445560514927,left,1,0.7480152696371078,0.65,,,,,,,,,,,s021,001,2024-07-26_11h38.29.939,simplestop_skeleton,2022.2.2,59.72469528687329,
$currentCorrectResponse,$currentGoStim,,,,,,,,,2,0,2,0,5,2,22,0,,,,,,,,,486.8357725031674,go,circleblack.png,left,0.65,,,,,,,,,,,,,,,0.0013749636709690094,0.4896807037293911,,489.3368107602,test,3,,,,,,,,,,486.85445560514927,487.3514597080648,487.3514597080648,487.36815302446485,488.00218400359154,488.50121926516294,488.35275565460324,489.35410177335143,left,1,0.8314694799482822,0.65,,,,,,,,,,,s021,001,2024-07-26_11h38.29.939,simplestop_skeleton,2022.2.2,59.72469528687329,
$currentCorrectResponse,$currentGoStim,,,,,,,,,2,0,2,0,5,3,23,0,,,,,,,,,489.33727613836527,go,circleblack.png,left,0.65,,,,,,,,,,,,,,,0.0012842454016208649,0.4892471693456173,,491.84036330506206,test,3,,,,,,,,,,489.35410177335143,489.8527228347957,489.8527228347957,489.86937775462866,490.50328289344907,491.00411493703723,490.8537683188915,491.8580879755318,left,1,0.8965108133852482,0.65,,,,,,,,,,,s021,001,2024-07-26_11h38.29.939,simplestop_skeleton,2022.2.2,59.72469528687329,
$currentCorrectResponse,$currentGoStim,,,,,,,,,2,0,2,0,6,0,24,0,,,,,,,,,491.8407993465662,go,squareblack.png,right,0.65,,,,,,,,,,,,,,,0.001695103943347931,0.49024656042456627,,494.3421411961317,test,3,,,,,,,,,,491.8580879755318,492.35680409148335,492.35680409148335,492.3734729811549,493.0079145245254,493.5234084390104,493.35676457360387,494.3595749847591,right,1,0.6389318779110909,0.65,,,,,,,,,,,s021,001,2024-07-26_11h38.29.939,simplestop_skeleton,2022.2.2,59.72469528687329,
None,None,,,,,,,,,2,0,2,0,6,1,25,1,,,,,,,,,494.3425835222006,go,circleblack.png,left,0.65,,,,,,,,,,,,,,,0.0017677024006843567,0.4900677613914013,,496.846618976444,test,3,,,,,,,,,,494.3595749847591,494.8585044629872,494.8585044629872,494.8585044629872,495.50896010920405,496.00942327827215,495.8593883998692,496.86565801873803,left,1,0.6784315593540668,0.65,,,,,,,,,,,s021,001,2024-07-26_11h38.29.939,simplestop_skeleton,2022.2.2,59.72469528687329,
None,None,,,,,,,,,2,0,2,0,6,2,26,3,,,,,,,,,496.8470680192113,go,circleblack.png,left,0.65,,,,,,,,,,,,,,,0.001375976949930191,0.48945531994104385,,499.3480695337057,test,3,,,,,,,,,,496.86565801873803,497.36246997117996,497.36246997117996,497.37896237149835,498.0130326785147,498.5139072611928,498.36359442025423,499.36522617191076,left,1,0.8604833595454693,0.65,,,,,,,,,,,s021,001,2024-07-26_11h38.29.939,simplestop_skeleton,2022.2.2,59.72469528687329,
None,None,,,,,,,,,2,0,2,0,6,3,27,3,,,,,,,,,499.34855008125305,go,circleblack.png,left,0.65,,,,,,,,,,,,,,,0.0013043805956840515,0.48894184455275536,,501.85138930007815,test,3,,,,,,,,,,499.36522617191076,499.8636902756989,499.8636902756989,499.8804333284497,500.51433204114437,501.01516384258866,500.86474865302444,501.86812411248684,left,1,0.929864164441824,0.65,,,,,,,,,,,s021,001,2024-07-26_11h38.29.939,simplestop_skeleton,2022.2.2,59.72469528687329,
None,None,,,,,,,,,2,0,2,0,7,0,28,2,,,,,,,,,501.8518300279975,go,circleblack.png,left,0.65,,,,,,,,,,,,,,,0.0012666881084442139,0.4900865778326988,,504.3532895296812,test,3,,,,,,,,,,501.86812411248684,502.3680012114346,502.3680012114346,502.3680012114346,503.0185379013419,503.51953296363354,503.36902191489935,504.37612196803093,left,1,0.9389110542833805,0.65,,,,,,,,,,,s021,001,2024-07-26_11h38.29.939,simplestop_skeleton,2022.2.2,59.72469528687329,
None,None,,,,,,,,,2,0,2,0,7,1,29,3,,,,,,,,,504.35374319553375,stop,squareblack.png,right,0.65,,,,,,,,,,,,,,,0.007428452372550964,0.4893126077950001,1.1401299349963665,506.85686980187893,test,3,,,,,,,,,,504.37612196803093,504.8692466542125,504.8692466542125,504.88592386618257,505.5198996476829,506.02078323066235,505.8703278154135,506.8737433627248,right,1,0.8046290054917336,0.6,,,,,,,,,,,s021,001,2024-07-26_11h38.29.939,simplestop_skeleton,2022.2.2,59.72469528687329,
None,None,,,,,,,,,2,0,2,0,7,2,30,2,,,,,,,,,506.85729962959886,go,squareblack.png,right,0.6,,,,,,,,,,,,,,,0.0012877210974693298,0.49002978950738907,,509.3590495698154,test,3,,,,,,,,,,506.8737433627248,507.373250041157,507.373250041157,507.373250041157,507.9741668961942,508.4750597588718,508.3750776462257,509.3763082548976,right,1,0.881035003811121,0.6,,,,,,,,,,,s021,001,2024-07-26_11h38.29.939,simplestop_skeleton,2022.2.2,59.72469528687329,
None,None,,,,,,,,,2,0,2,0,7,3,31,1,,,,,,,,,509.3594946153462,go,squareblack.png,right,0.6,,,,,,,,,,,,,,,0.00123615562915802,0.48912226781249046,,511.8622241951525,test,3,,,,,,,,,,509.3763082548976,509.8747913092375,509.8747913092375,509.8915380835533,510.47543178871274,510.9760203547776,510.8759378865361,511.8794653043151,right,1,0.9194881729781628,0.6,,,,,,,,,,,s021,001,2024-07-26_11h38.29.939,simplestop_skeleton,2022.2.2,59.72469528687329,
None,None,,,,,,,,,2,0,2,0,8,0,32,1,,,,,,,,,511.86265920847654,go,squareblack.png,right,0.6,,,,,,,,,,,,,,,0.001194484531879425,0.49043305590748787,,514.3645016737282,test,3,,,,,,,,,,511.8794653043151,512.3788675218821,512.3788675218821,512.3788675218821,512.979469049722,513.480722732842,513.3801485933363,514.3878526389599,right,1,0.8822703398764133,0.6,,,,,,,,,,,s021,001,2024-07-26_11h38.29.939,simplestop_skeleton,2022.2.2,59.72469528687329,
$currentCorrectResponse,$currentGoStim,,,,,,,,,2,0,2,0,8,1,33,0,,,,,,,,,514.3649607673287,stop,circleblack.png,left,0.6,,,,,,,,,,,,,,,0.008054502308368683,0.48911047354340553,1.0897835418581963,516.8679205067456,test,3,,,,,,,,,,514.3878526389599,514.8803232125938,514.8803232125938,514.8969127722085,515.481124740094,515.9816677607596,515.881513800472,516.8855501413345,left,1,0.6496303677558899,0.55,,,,,,,,,,,s021,001,2024-07-26_11h38.29.939,simplestop_skeleton,2022.2.2,59.72469528687329,
None,None,,,,,,,,,2,0,2,0,8,2,34,3,,,,,,,,,516.8684063702822,stop,squareblack.png,right,0.55,,,,,,,,,,,,,,,0.0017574243247509003,0.4900328367948532,1.040783379226923,519.3712879791856,test,3,,,,,,,,,,516.8855501413345,517.3846568316221,517.3846568316221,517.4011848159134,517.9353340603411,518.4355343803763,518.3854731023312,519.3909472934902,None,0,,0.6,,,,,,,,,,,s021,001,2024-07-26_11h38.29.939,simplestop_skeleton,2022.2.2,59.72469528687329,
None,None,,,,,,,,,2,0,2,0,8,3,35,2,,,,,,,,,519.3717321194708,stop,circleblack.png,left,0.6,,,,,,,,,,,,,,,0.0018881671130657196,0.48966260626912117,1.0907247588038445,521.872672252357,test,3,,,,,,,,,,519.3909472934902,519.8871589414775,519.8871589414775,519.9039115905762,520.487860545516,520.9869944415987,520.8869197592139,521.8898031227291,None,0,,0.65,,,,,,,,,,,s021,001,2024-07-26_11h38.29.939,simplestop_skeleton,2022.2.2,59.72469528687329,
$currentCorrectResponse,$currentGoStim,,,,,,,,,2,0,2,0,9,0,36,0,,,,,,,,,521.873130787164,go,circleblack.png,left,0.65,,,,,,,,,,,,,,,0.0012411698698997498,0.4900103770196438,,524.3764469102025,test,3,,,,,,,,,,521.8898031227291,522.3886874057353,522.3886874057353,522.3886874057353,523.039201259613,523.5398346222937,523.3897590339184,524.3959327116609,left,1,0.9021543264389038,0.65,,,,,,,,,,,s021,001,2024-07-26_11h38.29.939,simplestop_skeleton,2022.2.2,59.72469528687329,
None,None,,,,,,,,,2,0,2,0,9,1,37,2,,,,,,,,,524.3769146688282,go,squareblack.png,right,0.65,,,,,,,,,,,,,,,0.0025449395179748535,0.48901990056037903,,526.8781158812344,test,3,,,,,,,,,,524.3959327116609,524.8926448151469,524.8926448151469,524.9095295928419,525.5434117615223,526.0447803474963,525.8943810872734,526.8948552832007,right,1,0.9998131208121777,0.65,,,,,,,,,,,s021,001,2024-07-26_11h38.29.939,simplestop_skeleton,2022.2.2,59.72469528687329,
None,None,,,,,,,,,2,0,2,0,9,2,38,3,,,,,,,,,526.8785459250212,go,squareblack.png,right,0.65,,,,,,,,,,,,,,,0.0012954585254192352,0.4896025247871876,,529.3811343051493,test,3,,,,,,,,,,526.8948552832007,527.394080221653,527.394080221653,527.394080221653,528.0447072982788,528.5456060804427,528.3951273597777,529.4005598463118,right,1,0.873883530497551,0.65,,,,,,,,,,,s021,001,2024-07-26_11h38.29.939,simplestop_skeleton,2022.2.2,59.72469528687329,
None,None,,,,,,,,,2,0,2,0,9,3,39,3,,,,,,,,,529.3815683536232,stop,circleblack.png,left,0.65,,,,,,,,,,,,,,,0.0019930675625801086,0.48805978149175644,1.139752585440874,531.8852408118546,test,3,,,,,,,,,,529.4005598463118,529.8968784064054,529.8968784064054,529.9135069996119,530.5494582466781,531.0647601746023,530.8979371450841,531.9045005403459,left,1,0.81462162733078,0.6,,,,,,,,,,,s021,001,2024-07-26_11h38.29.939,simplestop_skeleton,2022.2.2,59.72469528687329,
None,None,,,,,,,,,2,0,2,0,10,0,40,2,,,,,,,,,531.8856737166643,stop,squareblack.png,right,0.6,,,,,,,,,,,,,,,0.0016832910478115082,0.4894801080226898,1.0900377072393894,534.3879765942693,test,3,,,,,,,,,,531.9045005403459,532.4010784886777,532.4010784886777,532.4175852611661,533.0017248317599,533.5023760311306,533.4020648039877,534.4068289734423,None,0,,0.65,,,,,,,,,,,s021,001,2024-07-26_11h38.29.939,simplestop_skeleton,2022.2.2,59.72469528687329,
None,None,,,,,,,,,2,0,2,0,10,1,41,3,,,,,,,,,534.3884169012308,go,squareblack.png,right,0.65,,,,,,,,,,,,,,,0.0013426803052425385,0.489499818533659,,536.8892553113401,test,3,,,,,,,,,,534.4068289734423,534.9040641114116,534.9040641114116,534.9203579239547,535.5543999373913,536.0554042644799,535.9051929302514,536.9076527021825,right,1,0.9277920536696911,0.65,,,,,,,,,,,s021,001,2024-07-26_11h38.29.939,simplestop_skeleton,2022.2.2,59.72469528687329,
None,None,,,,,,,,,2,0,2,0,10,2,42,3,,,,,,,,,536.8897067531943,go,circleblack.png,left,0.65,,,,,,,,,,,,,,,0.001902855932712555,0.4892398752272129,,539.391847062856,test,3,,,,,,,,,,536.9076527021825,537.4051854424179,537.4051854424179,537.4218683466315,538.0558311156929,538.5567009523511,538.4061709977686,539.4100253172219,left,1,0.9302125535905361,0.65,,,,,,,,,,,s021,001,2024-07-26_11h38.29.939,simplestop_skeleton,2022.2.2,59.72469528687329,
$currentCorrectResponse,$currentGoStim,,,,,,,,,2,0,2,0,10,3,43,0,,,,,,,,,539.3923137150705,go,squareblack.png,right,0.65,,,,,,,,,,,,,,,0.0016906186938285828,0.4891289658844471,,541.8960978798568,test,3,,,,,,,,,,539.4100253172219,539.9078030996025,539.9078030996025,539.9246930778027,540.5587862543762,541.0591273568571,540.9090913422406,541.9177802689373,right,1,0.9684320837259293,0.65,,,,,,,,,,,s021,001,2024-07-26_11h38.29.939,simplestop_skeleton,2022.2.2,59.72469528687329,
None,None,,,,,,,,,2,0,2,0,11,0,44,2,,,,,,,,,541.8965306803584,go,circleblack.png,left,0.65,,,,,,,,,,,,,,,0.0023952126502990723,0.48715831711888313,,544.397642403841,test,3,,,,,,,,,,541.9177802689373,542.4121966585517,542.4121966585517,542.4288033954799,543.0627928264439,543.5637276284397,543.4131398126483,544.41422316432,left,1,1.0440479591488838,0.65,,,,,,,,,,,s021,001,2024-07-26_11h38.29.939,simplestop_skeleton,2022.2.2,59.72469528687329,
None,None,,,,,,,,,2,0,2,0,11,1,45,1,,,,,,,,,544.3980866670609,go,circleblack.png,left,0.65,,,,,,,,,,,,,,,0.0012914501130580902,0.4896104112267494,,546.9001190625131,test,3,,,,,,,,,,544.41422316432,544.9133555106819,544.9133555106819,544.9133555106819,545.5641650520265,546.0646527148783,545.9145237803459,546.9177087396383,left,1,1.0865258015692234,0.65,,,,,,,,,,,s021,001,2024-07-26_11h38.29.939,simplestop_skeleton,2022.2.2,59.72469528687329,
None,None,,,,,,,,,2,0,2,0,11,2,46,1,,,,,,,,,546.9005810208619,stop,squareblack.png,right,0.65,,,,,,,,,,,,,,,0.0015925392508506775,0.48911406099796295,1.1398919746279716,549.4046793654561,test,3,,,,,,,,,,546.9177087396383,547.4161772280931,547.4161772280931,547.4328429177403,548.0669807121158,548.5673389732838,548.4172681681812,549.4243575520813,None,0,,0.7,,,,,,,,,,,s021,001,2024-07-26_11h38.29.939,simplestop_skeleton,2022.2.2,59.72469528687329,
$currentCorrectResponse,$currentGoStim,,,,,,,,,2,0,2,0,11,3,47,0,,,,,,,,,549.4051469303668,stop,circleblack.png,left,0.7,,,,,,,,,,,,,,,0.0026442892849445343,0.4891881085932255,1.1900745332241058,551.9059236943722,test,3,,,,,,,,,,549.4243575520813,549.9202803857625,549.9202803857625,549.9373744390905,550.6214289963245,551.136989466846,550.9200608432293,551.9258622974157,left,1,0.8289358653128147,0.65,,,,,,,,,,,s021,001,2024-07-26_11h38.29.939,simplestop_skeleton,2022.2.2,59.72469528687329,
