corrGoResp,shape,practiceBlocks.thisRepN,practiceBlocks.thisTrialN,practiceBlocks.thisN,practiceBlocks.thisIndex,practiceTrials.thisRepN,practiceTrials.thisTrialN,practiceTrials.thisN,practiceTrials.thisIndex,stopBlocks.thisRepN,stopBlocks.thisTrialN,stopBlocks.thisN,stopBlocks.thisIndex,testTrials.thisRepN,testTrials.thisTrialN,testTrials.thisN,testTrials.thisIndex,stopPracTrialList,Test Block: 1,welcome.started,start_exp.started,start_exp.keys,start_exp.rt,instrStopText.started,start_prac.started,StartTrialTimeStamp,trialType,goStim,correctResponse,ssd,fixation.started,rules.started,goStim.started,goResp.started,fixation.stopped,stopSignal.started,stopSignal.stopped,goStim.stopped,goResp.stopped,rules.stopped,goResp.keys,goResp.corr,text.started,rules_2.started,fixationOnset,goStimOnset,stopSignalOnset,EndTrialTimeStamp,Phase,Block,goResp.rt,text.stopped,rules_2.stopped,text_5.started,key_resp_3.started,key_resp_3.keys,key_resp_3.rt,key_resp.started,testText.started,test_fixation.started,test_fixation.stopped,goStim_test.started,goResp_test.started,stopSignal_test.started,stopSignal_test.stopped,goStim_test.stopped,goResp_test.stopped,goResp_test.keys,goResp_test.corr,goResp_test.rt,EndingSSD,text_6.started,key_resp_4.started,key_resp_4.keys,Test Block: 2,key_resp_4.rt,Test Block: 3,ending_text.started,end_resp.started,end_resp.keys,end_resp.rt,participant,session,date,expName,psychopyVersion,frameRate,
,,,,,,,,,,,,,,,,,,"[{'fileName': 'squareblack.png', 'correct_response': 'right', 'condition': 'go'}, {'fileName': 'circleblack.png', 'correct_response': 'left', 'condition': 'go'}, {'fileName': 'circleblack.png', 'correct_response': 'left', 'condition': 'go'}, {'fileName': 'circleblack.png', 'correct_response': 'left', 'condition': 'go'}, {'fileName': 'squareblack.png', 'correct_response': 'right', 'condition': 'go'}, {'fileName': 'squareblack.png', 'correct_response': 'right', 'condition': 'stop'}, {'fileName': 'circleblack.png', 'correct_response': 'left', 'condition': 'stop'}, {'fileName': 'squareblack.png', 'correct_response': 'right', 'condition': 'stop'}, {'fileName': 'squareblack.png', 'correct_response': 'right', 'condition': 'go'}, {'fileName': 'circleblack.png', 'correct_response': 'left', 'condition': 'stop'}, {'fileName': 'squareblack.png', 'correct_response': 'right', 'condition': 'go'}, {'fileName': 'circleblack.png', 'correct_response': 'left', 'condition': 'go'}, {'fileName': 'squareblack.png', 'correct_response': 'right', 'condition': 'stop'}, {'fileName': 'squareblack.png', 'correct_response': 'right', 'condition': 'go'}, {'fileName': 'squareblack.png', 'correct_response': 'right', 'condition': 'go'}, {'fileName': 'squareblack.png', 'correct_response': 'right', 'condition': 'go'}, {'fileName': 'circleblack.png', 'correct_response': 'left', 'condition': 'go'}, {'fileName': 'squareblack.png', 'correct_response': 'right', 'condition': 'stop'}, {'fileName': 'circleblack.png', 'correct_response': 'left', 'condition': 'stop'}, {'fileName': 'circleblack.png', 'correct_response': 'left', 'condition': 'go'}, {'fileName': 'squareblack.png', 'correct_response': 'right', 'condition': 'go'}, {'fileName': 'circleblack.png', 'correct_response': 'left', 'condition': 'stop'}, {'fileName': 'circleblack.png', 'correct_response': 'left', 'condition': 'go'}, {'fileName': 'circleblack.png', 'correct_response': 'left', 'condition': 'go'}]","[{'fileName': 'circleblack.png', 'correct_response': 'left', 'condition': 'go'}, {'fileName': 'squareblack.png', 'correct_response': 'right', 'condition': 'stop'}, {'fileName': 'squareblack.png', 'correct_response': 'right', 'condition': 'go'}, {'fileName': 'circleblack.png', 'correct_response': 'left', 'condition': 'go'}, {'fileName': 'circleblack.png', 'correct_response': 'left', 'condition': 'go'}, {'fileName': 'squareblack.png', 'correct_response': 'right', 'condition': 'go'}, {'fileName': 'squareblack.png', 'correct_response': 'right', 'condition': 'go'}, {'fileName': 'squareblack.png', 'correct_response': 'right', 'condition': 'stop'}, {'fileName': 'circleblack.png', 'correct_response': 'left', 'condition': 'stop'}, {'fileName': 'circleblack.png', 'correct_response': 'left', 'condition': 'stop'}, {'fileName': 'circleblack.png', 'correct_response': 'left', 'condition': 'go'}, {'fileName': 'squareblack.png', 'correct_response': 'right', 'condition': 'go'}, {'fileName': 'circleblack.png', 'correct_response': 'left', 'condition': 'go'}, {'fileName': 'squareblack.png', 'correct_response': 'right', 'condition': 'go'}, {'fileName': 'squareblack.png', 'correct_response': 'right', 'condition': 'go'}, {'fileName': 'circleblack.png', 'correct_response': 'left', 'condition': 'stop'}, {'fileName': 'circleblack.png', 'correct_response': 'left', 'condition': 'stop'}, {'fileName': 'circleblack.png', 'correct_response': 'left', 'condition': 'go'}, {'fileName': 'squareblack.png', 'correct_response': 'right', 'condition': 'stop'}, {'fileName': 'squareblack.png', 'correct_response': 'right', 'condition': 'stop'}, {'fileName': 'squareblack.png', 'correct_response': 'right', 'condition': 'go'}, {'fileName': 'circleblack.png', 'correct_response': 'left', 'condition': 'go'}, {'fileName': 'circleblack.png', 'correct_response': 'left', 'condition': 'go'}, {'fileName': 'squareblack.png', 'correct_response': 'right', 'condition': 'go'}, {'fileName': 'circleblack.png', 'correct_response': 'left', 'condition': 'go'}, {'fileName': 'squareblack.png', 'correct_response': 'right', 'condition': 'go'}, {'fileName': 'circleblack.png', 'correct_response': 'left', 'condition': 'go'}, {'fileName': 'squareblack.png', 'correct_response': 'right', 'condition': 'go'}, {'fileName': 'squareblack.png', 'correct_response': 'right', 'condition': 'go'}, {'fileName': 'circleblack.png', 'correct_response': 'left', 'condition': 'stop'}, {'fileName': 'squareblack.png', 'correct_response': 'right', 'condition': 'go'}, {'fileName': 'squareblack.png', 'correct_response': 'right', 'condition': 'stop'}, {'fileName': 'circleblack.png', 'correct_response': 'left', 'condition': 'stop'}, {'fileName': 'circleblack.png', 'correct_response': 'left', 'condition': 'go'}, {'fileName': 'circleblack.png', 'correct_response': 'left', 'condition': 'go'}, {'fileName': 'squareblack.png', 'correct_response': 'right', 'condition': 'stop'}, {'fileName': 'squareblack.png', 'correct_response': 'right', 'condition': 'go'}, {'fileName': 'circleblack.png', 'correct_response': 'left', 'condition': 'go'}, {'fileName': 'circleblack.png', 'correct_response': 'left', 'condition': 'stop'}, {'fileName': 'circleblack.png', 'correct_response': 'left', 'condition': 'go'}, {'fileName': 'circleblack.png', 'correct_response': 'left', 'condition': 'go'}, {'fileName': 'circleblack.png', 'correct_response': 'left', 'condition': 'go'}, {'fileName': 'squareblack.png', 'correct_response': 'right', 'condition': 'go'}, {'fileName': 'squareblack.png', 'correct_response': 'right', 'condition': 'stop'}, {'fileName': 'squareblack.png', 'correct_response': 'right', 'condition': 'go'}, {'fileName': 'squareblack.png', 'correct_response': 'right', 'condition': 'go'}, {'fileName': 'squareblack.png', 'correct_response': 'right', 'condition': 'stop'}, {'fileName': 'circleblack.png', 'correct_response': 'left', 'condition': 'stop'}]",3311.0987791605294,3311.0987791605294,return,2.4668650552630424,,,,,,,,,,,,,,,,,,,,,,,,,,,,,,,,,,,,,,,,,,,,,,,,,,,,,,,,,,,s013,001,2024-07-24_14h52.17.189,simplestop_skeleton,2022.2.2,59.963618685599975,
None,None,0,0,0,0,0,0,0,3,,,,,,,,,,,,,,,3313.6113346889615,3313.6113346889615,3429.717871326953,go,squareblack.png,right,0.35,3429.740172494203,3429.740172494203,3430.232813619077,3430.232813619077,3430.249468676746,3430.583089504391,3431.083718262613,3431.2338214330375,3432.234917294234,3432.2543473802507,None,0,3432.2543473802507,3432.2543473802507,0.002383418381214142,0.48866991326212883,0.8392982371151447,3432.7528754249215,practice,1,,,,,,,,,,,,,,,,,,,,,,,,,,,,,,,,s013,001,2024-07-24_14h52.17.189,simplestop_skeleton,2022.2.2,59.963618685599975,
None,None,0,0,0,0,0,1,1,3,,,,,,,,,,,,,,,,,3432.7534044273198,go,circleblack.png,left,0.35,3432.7780187427998,3432.7780187427998,3433.2695368267596,3433.2695368267596,3433.286002829671,3433.6199913807213,3434.1204526163638,3434.2703154981136,3435.2717023529112,3435.288496978581,left,1,3435.288496978581,3435.288496978581,0.0077912285923957825,0.4903542660176754,0.8404853418469429,3435.773274574429,practice,1,1.1229068748652935,3435.7928614132106,3435.7928614132106,,,,,,,,,,,,,,,,,,,,,,,,,,,,,s013,001,2024-07-24_14h52.17.189,simplestop_skeleton,2022.2.2,59.963618685599975,
$currentCorrectResponse,$currentGoStim,0,0,0,0,0,2,2,0,,,,,,,,,,,,,,,,,3435.7737177349627,go,circleblack.png,left,0.35,3435.7928614132106,3435.7928614132106,3436.2896314002573,3436.2896314002573,3436.3063187859952,3436.639893889427,3437.1407379209995,3437.2901366129518,3438.291848678142,3438.291848678142,left,1,3438.291848678142,3438.291848678142,0.001301247626543045,0.4899267852306366,0.8406301960349083,3438.776597213,practice,1,0.6097212582826614,3438.7965053915977,3438.7965053915977,,,,,,,,,,,,,,,,,,,,,,,,,,,,,s013,001,2024-07-24_14h52.17.189,simplestop_skeleton,2022.2.2,59.963618685599975,
None,None,0,0,0,0,0,3,3,2,,,,,,,,,,,,,,,,,3438.777019035071,go,circleblack.png,left,0.35,3438.7965053915977,3438.7965053915977,3439.2929614186287,3439.2929614186287,3439.309429001063,3439.643204692751,3440.1440330147743,3440.2934827655554,3441.2951617985964,3441.3116650879383,left,1,3441.3116650879383,3441.3116650879383,0.00148116797208786,0.48957984521985054,0.839837770909071,3441.7964011095464,practice,1,0.5794612504541874,3441.8165687806904,3441.8165687806904,,,,,,,,,,,,,,,,,,,,,,,,,,,,,s013,001,2024-07-24_14h52.17.189,simplestop_skeleton,2022.2.2,59.963618685599975,
$currentCorrectResponse,$currentGoStim,0,0,0,0,1,0,4,0,,,,,,,,,,,,,,,,,3441.7968462109566,go,squareblack.png,right,0.35,3441.8165687806904,3441.8165687806904,3442.312849611044,3442.312849611044,3442.329534396529,3442.663401659578,3443.16261709854,3443.3133519031107,3444.315176077187,3444.3319991864264,right,1,3444.3319991864264,3444.3319991864264,0.0017539896070957184,0.48989729955792427,0.840396624058485,3444.816456887871,practice,1,0.4871286377310753,3444.836162466556,3444.836162466556,,,,,,,,,,,,,,,,,,,,,,,,,,,,,s013,001,2024-07-24_14h52.17.189,simplestop_skeleton,2022.2.2,59.963618685599975,
None,None,0,0,0,0,1,1,5,1,,,,,,,,,,,,,,,,,3444.816877488047,stop,squareblack.png,right,0.35,3444.836162466556,3444.836162466556,3445.3328304328024,3445.3328304328024,3445.34944197163,3445.6831641606987,3446.183109074831,3446.3329576067626,3447.3348513506353,3447.3514752425253,left,0,3447.3514752425253,3447.3514752425253,0.0012333393096923828,0.4898841306567192,0.8402362391352654,3447.836463190615,practice,1,0.40910300239920616,3447.856523528695,3447.856523528695,,,,,,,,,,,,,,,,,,,,,,,,,,,,,s013,001,2024-07-24_14h52.17.189,simplestop_skeleton,2022.2.2,59.963618685599975,
None,None,0,0,0,0,1,2,6,1,,,,,,,,,,,,,,,,,3447.8369458429515,stop,circleblack.png,left,0.3,3447.856523528695,3447.856523528695,3448.3525544144213,3448.3525544144213,3448.36952201277,3448.652877740562,3449.15380788967,3449.3537317849696,3450.3553137890995,3450.371715437621,None,0,3450.371715437621,3450.371715437621,0.0018075667321681976,0.489827424287796,0.7901758067309856,3450.8566187396646,practice,1,,3450.8766317367554,3450.8766317367554,,,,,,,,,,,,,,,,,,,,,,,,,,,,,s013,001,2024-07-24_14h52.17.189,simplestop_skeleton,2022.2.2,59.963618685599975,
None,None,0,0,0,0,1,3,7,1,,,,,,,,,,,,,,,,,3450.8570464625955,stop,squareblack.png,right,0.35,3450.8766317367554,3450.8766317367554,3451.3728008940816,3451.3728008940816,3451.3898981176317,3451.7231778390706,3452.2232566289604,3452.3735102154315,3453.3754092417657,3453.391758687794,left,0,3453.391758687794,3453.391758687794,0.0016509294509887695,0.4897219128906727,0.8402966670691967,3453.8766582757235,practice,1,0.40657514333724976,3453.89584961161,3453.89584961161,,,,,,,,,,,,,,,,,,,,,,,,,,,,,s013,001,2024-07-24_14h52.17.189,simplestop_skeleton,2022.2.2,59.963618685599975,
None,None,0,0,0,0,2,0,8,2,,,,,,,,,,,,,,,,,3453.8770758733153,go,squareblack.png,right,0.3,3453.89584961161,3453.89584961161,3454.3927379213274,3454.3927379213274,3454.40975285694,3454.6932394579053,3455.19380749017,3455.394307296723,3456.395295523107,3456.395295523107,right,1,3456.395295523107,3456.395295523107,0.001210290938615799,0.4901920147240162,0.7904638759791851,3456.8798629678786,practice,1,0.7773260921239853,3456.8997051417828,3456.8997051417828,,,,,,,,,,,,,,,,,,,,,,,,,,,,,s013,001,2024-07-24_14h52.17.189,simplestop_skeleton,2022.2.2,59.963618685599975,
None,None,0,0,0,0,2,1,9,2,,,,,,,,,,,,,,,,,3456.8802834302187,stop,circleblack.png,left,0.3,3456.8997051417828,3456.8997051417828,3457.396319720894,3457.396319720894,3457.413245290518,3457.696529533714,3458.1970837786794,3458.3974710330367,3459.398412644863,3459.415201302618,left,1,3459.415201302618,3459.415201302618,0.0018484815955162048,0.4902833253145218,0.790494978427887,3459.899980865419,practice,1,0.6409542709589005,,,,,,,,,,,,,,,,,,,,,,,,,,,,,,,s013,001,2024-07-24_14h52.17.189,simplestop_skeleton,2022.2.2,59.963618685599975,
None,None,0,0,0,0,2,2,10,1,,,,,,,,,,,,,,,,,3459.900399528444,go,squareblack.png,right,0.25,3459.9200141206384,3459.9200141206384,3460.4163471236825,3460.4163471236825,3460.432754125446,3460.6663441881537,3461.1669574677944,3461.417456332594,3462.4190911129117,3462.4353714622557,right,1,3462.4353714622557,3462.4353714622557,0.0016965381801128387,0.49014031514525414,0.7400694005191326,3462.935227032751,practice,1,0.6760553307831287,,,,,,,,,,,,,,,,,,,,,,,,,,,,,,,s013,001,2024-07-24_14h52.17.189,simplestop_skeleton,2022.2.2,59.963618685599975,
None,None,0,0,0,0,2,3,11,3,,,,,,,,,,,,,,,,,3462.935653217137,go,circleblack.png,left,0.25,3462.9529316574335,3462.9529316574335,3463.4530507326126,3463.4530507326126,3463.4530507326126,3463.7031184248626,3464.202437542379,3464.453248281032,3465.4551543183625,3465.4551543183625,left,1,3465.4551543183625,3465.4551543183625,0.0018011070787906647,0.49149075150489807,0.7420694082975388,3465.9395578317344,practice,1,0.48512229695916176,3465.959534857422,3465.959534857422,,,,,,,,,,,,,,,,,,,,,,,,,,,,,s013,001,2024-07-24_14h52.17.189,simplestop_skeleton,2022.2.2,59.963618685599975,
$currentCorrectResponse,$currentGoStim,0,0,0,0,3,0,12,0,,,,,,,,,,,,,,,,,3465.939970191568,stop,squareblack.png,right,0.25,3465.959534857422,3465.959534857422,3466.4561490230262,3466.4561490230262,3466.472827207297,3466.7065924592316,3467.2069766633213,3467.45726319775,3468.458484880626,3468.4751643687487,None,0,3468.4751643687487,3468.4751643687487,0.0017771348357200623,0.4901707358658314,0.7405239418148994,3468.9599494487047,practice,1,,3468.9794636704028,3468.9794636704028,,,,,,,,,,,,,,,,,,,,,,,,,,,,,s013,001,2024-07-24_14h52.17.189,simplestop_skeleton,2022.2.2,59.963618685599975,
$currentCorrectResponse,$currentGoStim,0,0,0,0,3,1,13,0,,,,,,,,,,,,,,,,,3468.960368808359,go,squareblack.png,right,0.3,3468.9794636704028,3468.9794636704028,3469.476061798632,3469.476061798632,3469.4929054901004,3469.7790170162916,3470.2937861531973,3470.4772529155016,3471.478465847671,3471.478465847671,right,1,3471.478465847671,3471.478465847671,0.0011788643896579742,0.4901006296277046,0.7905860133469105,3471.9630398638546,practice,1,1.0969322584569454,3471.98228828609,3471.98228828609,,,,,,,,,,,,,,,,,,,,,,,,,,,,,s013,001,2024-07-24_14h52.17.189,simplestop_skeleton,2022.2.2,59.963618685599975,
None,None,0,0,0,0,3,2,14,3,,,,,,,,,,,,,,,,,3471.963454890996,go,squareblack.png,right,0.3,3471.98228828609,3471.98228828609,3472.4798615016043,3472.4798615016043,3472.4963919855654,3472.779610093683,3473.2802592031658,3473.479926791042,3474.4815993383527,3474.4815993383527,right,1,3474.4815993383527,3474.4815993383527,0.0012624189257621765,0.4903867654502392,0.7905950993299484,3474.9664122350514,practice,1,0.612681407481432,3474.9859879799187,3474.9859879799187,,,,,,,,,,,,,,,,,,,,,,,,,,,,,s013,001,2024-07-24_14h52.17.189,simplestop_skeleton,2022.2.2,59.963618685599975,
None,None,0,0,0,0,3,3,15,1,,,,,,,,,,,,,,,,,3474.9668292179704,go,squareblack.png,right,0.3,3474.9859879799187,3474.9859879799187,3475.482718307525,3475.482718307525,3475.4996265396476,3475.782934229821,3476.283593684435,3476.4833918511868,3477.4849598258734,3477.4849598258734,right,1,3477.4849598258734,3477.4849598258734,0.0012014135718345642,0.48994699865579605,0.7902498953044415,3477.9699127934873,practice,1,0.5692934058606625,3477.9898405894637,3477.9898405894637,,,,,,,,,,,,,,,,,,,,,,,,,,,,,s013,001,2024-07-24_14h52.17.189,simplestop_skeleton,2022.2.2,59.963618685599975,
None,None,0,0,0,0,4,0,16,2,,,,,,,,,,,,,,,,,3477.970327358693,go,circleblack.png,left,0.3,3477.9898405894637,3477.9898405894637,3478.4859967678785,3478.4859967678785,3478.5028322152793,3478.786602925509,3479.287557359785,3479.486440178007,3480.4882978983223,3480.5048301666975,left,1,3480.5048301666975,3480.5048301666975,0.0018948093056678772,0.4899342842400074,0.7903632186353207,3480.989829108119,practice,1,0.4183795414865017,,,,,,,,,,,,,,,,,,,,,,,,,,,,,,,s013,001,2024-07-24_14h52.17.189,simplestop_skeleton,2022.2.2,59.963618685599975,
None,None,0,0,0,0,4,1,17,2,,,,,,,,,,,,,,,,,3480.990262940526,stop,squareblack.png,right,0.3,3481.009697943926,3481.009697943926,3481.506038788706,3481.506038788706,3481.522745013237,3481.806610889733,3482.3070271275938,3482.50736194849,3483.508441314101,3483.525359828025,None,0,3483.525359828025,3483.525359828025,0.0018036551773548126,0.49006127193570137,0.7905227802693844,3484.0100791975856,practice,1,,3484.0300744585693,3484.0300744585693,,,,,,,,,,,,,,,,,,,,,,,,,,,,,s013,001,2024-07-24_14h52.17.189,simplestop_skeleton,2022.2.2,59.963618685599975,
None,None,0,0,0,0,4,2,18,3,,,,,,,,,,,,,,,,,3484.0105112306774,stop,circleblack.png,left,0.35,3484.0300744585693,3484.0300744585693,3484.526418440044,3484.526418440044,3484.5427911691368,3484.876432593912,3485.3766160830855,3485.5265469811857,3486.528201829642,3486.54480708763,left,1,3486.54480708763,3486.54480708763,0.0017251260578632355,0.4896526448428631,0.8402492590248585,3487.029727715999,practice,1,0.4025551304221153,3487.0498459003866,3487.0498459003866,,,,,,,,,,,,,,,,,,,,,,,,,,,,,s013,001,2024-07-24_14h52.17.189,simplestop_skeleton,2022.2.2,59.963618685599975,
None,None,0,0,0,0,4,3,19,3,,,,,,,,,,,,,,,,,3487.0301464274526,go,circleblack.png,left,0.3,3487.0498459003866,3487.0498459003866,3487.5459088757634,3487.5459088757634,3487.5628853812814,3487.846339650452,3488.346964340657,3488.5459969453514,3489.548578001559,3489.5649778060615,left,1,3489.5649778060615,3489.5649778060615,0.0013981014490127563,0.48977164551615715,0.7898707427084446,3490.0498650334775,practice,1,0.6735600829124451,3490.069664403796,3490.069664403796,,,,,,,,,,,,,,,,,,,,,,,,,,,,,s013,001,2024-07-24_14h52.17.189,simplestop_skeleton,2022.2.2,59.963618685599975,
None,None,0,0,0,0,5,0,20,2,,,,,,,,,,,,,,,,,3490.050309661776,go,squareblack.png,right,0.3,3490.069664403796,3490.069664403796,3490.5660572461784,3490.5660572461784,3490.582610923797,3490.866277746856,3491.3672480285168,3491.566653072834,3492.568174175918,3492.5846811309457,right,1,3492.5846811309457,3492.5846811309457,0.001717735081911087,0.4900141656398773,0.7903282307088375,3493.069567102939,practice,1,0.545444518327713,3493.089532442391,3493.089532442391,,,,,,,,,,,,,,,,,,,,,,,,,,,,,s013,001,2024-07-24_14h52.17.189,simplestop_skeleton,2022.2.2,59.963618685599975,
$currentCorrectResponse,$currentGoStim,0,0,0,0,5,1,21,0,,,,,,,,,,,,,,,,,3493.069985628128,stop,circleblack.png,left,0.3,3493.089532442391,3493.089532442391,3493.586112651974,3493.586112651974,3493.6026335842907,3493.8861351273954,3494.3868501484394,3494.5870878845453,3495.5883882939816,3495.605031784624,None,0,3495.605031784624,3495.605031784624,0.0018785148859024048,0.4900840222835541,0.7903856486082077,3496.0899311602116,practice,1,,,,,,,,,,,,,,,,,,,,,,,,,,,,,,,,s013,001,2024-07-24_14h52.17.189,simplestop_skeleton,2022.2.2,59.963618685599975,
None,None,0,0,0,0,5,2,22,1,,,,,,,,,,,,,,,,,3496.090366587043,go,circleblack.png,left,0.35,3496.1094071939588,3496.1094071939588,3496.6061243899167,3496.6061243899167,3496.622713301331,3496.956648297608,3497.457026910037,3497.6058405153453,3498.6084308326244,3498.6084308326244,left,1,3498.6084308326244,3498.6084308326244,0.0012799948453903198,0.4901183284819126,0.8403736799955368,3499.09330464527,practice,1,0.6778353676199913,3499.1129016913474,3499.1129016913474,,,,,,,,,,,,,,,,,,,,,,,,,,,,,s013,001,2024-07-24_14h52.17.189,simplestop_skeleton,2022.2.2,59.963618685599975,
$currentCorrectResponse,$currentGoStim,0,0,0,0,5,3,23,0,,,,,,,,,,,,,,,,,3499.093838136643,go,circleblack.png,left,0.35,3499.1129016913474,3499.1129016913474,3499.6094900406897,3499.6094900406897,3499.6262629777193,3499.95972744748,3500.4603129550815,3500.6105071268976,3501.6115161404014,3501.6284869760275,left,1,3501.6284869760275,3501.6284869760275,0.0013169758021831512,0.4898674227297306,0.840327400714159,3502.1129581891,practice,1,0.7557595372200012,,,,,,,,,,,,,,,,,,,,,,,,,,,,,,,s013,001,2024-07-24_14h52.17.189,simplestop_skeleton,2022.2.2,59.963618685599975,
,,0,0,0,0,,,,,,,,,,,,,"[{'fileName': 'squareblack.png', 'correct_response': 'right', 'condition': 'go'}, {'fileName': 'circleblack.png', 'correct_response': 'left', 'condition': 'go'}, {'fileName': 'squareblack.png', 'correct_response': 'right', 'condition': 'go'}, {'fileName': 'circleblack.png', 'correct_response': 'left', 'condition': 'go'}, {'fileName': 'squareblack.png', 'correct_response': 'right', 'condition': 'go'}, {'fileName': 'circleblack.png', 'correct_response': 'left', 'condition': 'stop'}, {'fileName': 'squareblack.png', 'correct_response': 'right', 'condition': 'stop'}, {'fileName': 'squareblack.png', 'correct_response': 'right', 'condition': 'stop'}, {'fileName': 'circleblack.png', 'correct_response': 'left', 'condition': 'go'}, {'fileName': 'circleblack.png', 'correct_response': 'left', 'condition': 'stop'}, {'fileName': 'squareblack.png', 'correct_response': 'right', 'condition': 'go'}, {'fileName': 'circleblack.png', 'correct_response': 'left', 'condition': 'go'}, {'fileName': 'squareblack.png', 'correct_response': 'right', 'condition': 'go'}, {'fileName': 'circleblack.png', 'correct_response': 'left', 'condition': 'go'}, {'fileName': 'squareblack.png', 'correct_response': 'right', 'condition': 'stop'}, {'fileName': 'squareblack.png', 'correct_response': 'right', 'condition': 'go'}, {'fileName': 'squareblack.png', 'correct_response': 'right', 'condition': 'go'}, {'fileName': 'circleblack.png', 'correct_response': 'left', 'condition': 'go'}, {'fileName': 'circleblack.png', 'correct_response': 'left', 'condition': 'go'}, {'fileName': 'squareblack.png', 'correct_response': 'right', 'condition': 'go'}, {'fileName': 'circleblack.png', 'correct_response': 'left', 'condition': 'stop'}, {'fileName': 'circleblack.png', 'correct_response': 'left', 'condition': 'go'}, {'fileName': 'circleblack.png', 'correct_response': 'left', 'condition': 'stop'}, {'fileName': 'squareblack.png', 'correct_response': 'right', 'condition': 'stop'}]",,,,,,,,,,,,,,,,,,,,,,,,,,,,,,,,,,,,3502.1445068977773,3502.1445068977773,return,8.216024100780487,,,,,,,,,,,,,,,,,,,,,,,,,s013,001,2024-07-24_14h52.17.189,simplestop_skeleton,2022.2.2,59.963618685599975,
None,None,,,,,,,,,0,0,0,0,0,0,0,1,,,,,,,,,3527.365401249379,go,circleblack.png,left,0.35,,,,,,,,,,,,,,,0.002136755734682083,0.49868663772940636,,3529.877567715943,test,1,,,,,,,,3510.3880063667893,3510.3880063667893,3527.384848985821,3527.890972800553,3527.890972800553,3527.890972800553,3528.2242850251496,3528.724809065461,3528.89158128947,3529.8970854878426,left,1,1.142939768731594,0.35,,,,,,,,,,,s013,001,2024-07-24_14h52.17.189,simplestop_skeleton,2022.2.2,59.963618685599975,
None,None,,,,,,,,,0,0,0,0,0,1,1,3,,,,,,,,,3529.8781260736287,stop,squareblack.png,right,0.35,,,,,,,,,,,,,,,0.001770608127117157,0.4893980287015438,0.8398903720080853,3532.380398605019,test,1,,,,,,,,,,3529.8970854878426,3530.41015573591,3530.3935030139983,3530.3935030139983,3530.7437027283013,3531.2442381195724,3531.3942718468606,3532.3992935344577,right,1,0.5347022190690041,0.3,,,,,,,,,,,s013,001,2024-07-24_14h52.17.189,simplestop_skeleton,2022.2.2,59.963618685599975,
None,None,,,,,,,,,0,0,0,0,0,2,2,3,,,,,,,,,3532.3808315508068,go,squareblack.png,right,0.3,,,,,,,,,,,,,,,0.0013160333037376404,0.4894510433077812,,3534.8829030171037,test,1,,,,,,,,,,3532.3992935344577,3532.9127780757844,3532.8961054086685,3532.8961054086685,3533.196509294212,3533.6957079917192,3533.896757233888,3534.902233660221,right,1,0.505337331444025,0.3,,,,,,,,,,,s013,001,2024-07-24_14h52.17.189,simplestop_skeleton,2022.2.2,59.963618685599975,
None,None,,,,,,,,,0,0,0,0,0,3,3,3,,,,,,,,,3534.883361738175,go,circleblack.png,left,0.3,,,,,,,,,,,,,,,0.0018825158476829529,0.4894248843193054,,3537.385874222964,test,1,,,,,,,,,,3534.902233660221,3535.4154534712434,3535.3988237939775,3535.3988237939775,3535.699299842119,3536.200088676065,3536.3991967588663,3537.404932308942,left,1,0.5447415038943291,0.3,,,,,,,,,,,s013,001,2024-07-24_14h52.17.189,simplestop_skeleton,2022.2.2,59.963618685599975,
None,None,,,,,,,,,0,0,0,0,1,0,4,1,,,,,,,,,3537.3863073326647,go,circleblack.png,left,0.3,,,,,,,,,,,,,,,0.0014464333653450012,0.4893326535820961,,3539.888335827738,test,1,,,,,,,,,,3537.404932308942,3537.9182918928564,3537.9014722667634,3537.9014722667634,3538.2019038125873,3538.7025943398476,3538.9026975110173,3539.907655853778,left,1,0.6065288484096527,0.3,,,,,,,,,,,s013,001,2024-07-24_14h52.17.189,simplestop_skeleton,2022.2.2,59.963618685599975,
None,None,,,,,,,,,0,0,0,0,1,1,5,1,,,,,,,,,3539.8887789323926,go,squareblack.png,right,0.3,,,,,,,,,,,,,,,0.0017217881977558136,0.489678505808115,,3542.391092900187,test,1,,,,,,,,,,3539.907655853778,3540.421361632645,3540.4044441208243,3540.4044441208243,3540.7046793848276,3541.205246783793,3541.4057095088065,3542.4097573310137,right,1,0.6397339105606079,0.3,,,,,,,,,,,s013,001,2024-07-24_14h52.17.189,simplestop_skeleton,2022.2.2,59.963618685599975,
None,None,,,,,,,,,0,0,0,0,1,2,6,2,,,,,,,,,3542.3915249332786,go,squareblack.png,right,0.3,,,,,,,,,,,,,,,0.0012410283088684082,0.48979780077934265,,3544.8939069509506,test,1,,,,,,,,,,3542.4097573310137,3542.923910263926,3542.907278429717,3542.907278429717,3543.207557089627,3543.7086436674,3543.908119831234,3544.912650965154,right,1,0.7990052811801434,0.3,,,,,,,,,,,s013,001,2024-07-24_14h52.17.189,simplestop_skeleton,2022.2.2,59.963618685599975,
None,None,,,,,,,,,0,0,0,0,1,3,7,3,,,,,,,,,3544.894344892353,stop,squareblack.png,right,0.3,,,,,,,,,,,,,,,0.0013436339795589447,0.48975732550024986,0.7900022603571415,3547.3967332541943,test,1,,,,,,,,,,3544.912650965154,3545.426523886621,3545.410101354122,3545.410101354122,3545.7101297192276,3546.2110659331083,3546.411085318774,3547.415993962437,None,0,,0.35,,,,,,,,,,,s013,001,2024-07-24_14h52.17.189,simplestop_skeleton,2022.2.2,59.963618685599975,
None,None,,,,,,,,,0,0,0,0,2,0,8,1,,,,,,,,,3547.397170934826,stop,circleblack.png,left,0.35,,,,,,,,,,,,,,,0.0018368922173976898,0.48972463980317116,0.840323057025671,3549.899314701557,test,1,,,,,,,,,,3547.415993962437,3547.9292100667953,3547.912984237075,3547.912984237075,3548.263266492635,3548.7622564062476,3548.9130741395056,3549.9184103123844,left,1,0.516219399869442,0.3,,,,,,,,,,,s013,001,2024-07-24_14h52.17.189,simplestop_skeleton,2022.2.2,59.963618685599975,
None,None,,,,,,,,,0,0,0,0,2,1,9,1,,,,,,,,,3549.8997462317348,stop,circleblack.png,left,0.3,,,,,,,,,,,,,,,0.0013252049684524536,0.4896702282130718,0.7902324572205544,3552.4019153639674,test,1,,,,,,,,,,3549.9184103123844,3550.4320665076375,3550.415510479361,3550.415510479361,3550.7156532742083,3551.2162948437035,3551.416568841785,3552.4208469241858,None,0,,0.35,,,,,,,,,,,s013,001,2024-07-24_14h52.17.189,simplestop_skeleton,2022.2.2,59.963618685599975,
$currentCorrectResponse,$currentGoStim,,,,,,,,,0,0,0,0,2,2,10,0,,,,,,,,,3552.402357041836,go,circleblack.png,left,0.35,,,,,,,,,,,,,,,0.0013323649764060974,0.48981838673353195,,3554.9047844447196,test,1,,,,,,,,,,3552.4208469241858,3552.934743888676,3552.918095432222,3552.918095432222,3553.2684088908136,3553.769337847829,3553.9194679930806,3554.923785559833,left,1,0.7603324577212334,0.35,,,,,,,,,,,s013,001,2024-07-24_14h52.17.189,simplestop_skeleton,2022.2.2,59.963618685599975,
None,None,,,,,,,,,0,0,0,0,2,3,11,1,,,,,,,,,3554.9052236042917,go,squareblack.png,right,0.35,,,,,,,,,,,,,,,0.0016666613519191742,0.48979584872722626,,3557.4075364656746,test,1,,,,,,,,,,3554.923785559833,3555.437445320189,3555.4208790399134,3555.4208790399134,3555.7711510695517,3556.271688532084,3556.421793036163,3557.4269188046455,right,1,0.8148254193365574,0.35,,,,,,,,,,,s013,001,2024-07-24_14h52.17.189,simplestop_skeleton,2022.2.2,59.963618685599975,
$currentCorrectResponse,$currentGoStim,,,,,,,,,0,0,0,0,3,0,12,0,,,,,,,,,3557.4079737216234,go,circleblack.png,left,0.35,,,,,,,,,,,,,,,0.001826997846364975,0.4894355796277523,,3559.9103338830173,test,1,,,,,,,,,,3557.4269188046455,3557.9402133747935,3557.923616193235,3557.923616193235,3558.273901704699,3558.77450511232,3558.9246456362307,3559.929588716477,left,1,0.786816194653511,0.35,,,,,,,,,,,s013,001,2024-07-24_14h52.17.189,simplestop_skeleton,2022.2.2,59.963618685599975,
$currentCorrectResponse,$currentGoStim,,,,,,,,,0,0,0,0,3,1,13,0,,,,,,,,,3559.9107849895954,go,squareblack.png,right,0.35,,,,,,,,,,,,,,,0.0016695335507392883,0.48986705765128136,,3562.413372453302,test,1,,,,,,,,,,3559.929588716477,3560.443271268159,3560.426923789084,3560.426923789084,3560.776875630021,3561.277889251709,3561.4274852238595,3562.4325043931603,right,1,0.7728160358965397,0.35,,,,,,,,,,,s013,001,2024-07-24_14h52.17.189,simplestop_skeleton,2022.2.2,59.963618685599975,
$currentCorrectResponse,$currentGoStim,,,,,,,,,0,0,0,0,3,2,14,0,,,,,,,,,3562.4138053804636,go,squareblack.png,right,0.35,,,,,,,,,,,,,,,0.0013784505426883698,0.4894706457853317,,3564.916176047176,test,1,,,,,,,,,,3562.4325043931603,3562.9459834732115,3562.929094068706,3562.929094068706,3563.2795843072236,3563.780136331916,3563.9305440336466,3564.935888070613,right,1,0.7813168540596962,0.35,,,,,,,,,,,s013,001,2024-07-24_14h52.17.189,simplestop_skeleton,2022.2.2,59.963618685599975,
None,None,,,,,,,,,0,0,0,0,3,3,15,1,,,,,,,,,3564.916609238833,stop,circleblack.png,left,0.35,,,,,,,,,,,,,,,0.0019254013895988464,0.48938147723674774,0.8397663161158562,3567.4188809506595,test,1,,,,,,,,,,3564.935888070613,3565.4485878124833,3565.4322081431746,3565.4322081431746,3565.782405015081,3566.2828884981573,3566.432597938925,3567.4376807808876,left,1,0.5723781734704971,0.3,,,,,,,,,,,s013,001,2024-07-24_14h52.17.189,simplestop_skeleton,2022.2.2,59.963618685599975,
$currentCorrectResponse,$currentGoStim,,,,,,,,,0,0,0,0,4,0,16,0,,,,,,,,,3567.4193262681365,stop,circleblack.png,left,0.3,,,,,,,,,,,,,,,0.001387041062116623,0.4896969757974148,0.7898532375693321,3569.921733856201,test,1,,,,,,,,,,3567.4376807808876,3567.9515129178762,3567.9347563162446,3567.9347563162446,3568.2352259084582,3568.7357036694884,3568.9359220191836,3569.9404306039214,None,0,,0.35,,,,,,,,,,,s013,001,2024-07-24_14h52.17.189,simplestop_skeleton,2022.2.2,59.963618685599975,
None,None,,,,,,,,,0,0,0,0,4,1,17,1,,,,,,,,,3569.9221887774765,go,circleblack.png,left,0.35,,,,,,,,,,,,,,,0.0013426020741462708,0.489667609333992,,3572.424225334078,test,1,,,,,,,,,,3569.9404306039214,3570.4542113393545,3570.4373442977667,3570.4373442977667,3570.7877751886845,3571.288484673947,3571.4386162273586,3572.4487077891827,left,1,0.5981359146535397,0.35,,,,,,,,,,,s013,001,2024-07-24_14h52.17.189,simplestop_skeleton,2022.2.2,59.963618685599975,
$currentCorrectResponse,$currentGoStim,,,,,,,,,0,0,0,0,4,2,18,0,,,,,,,,,3572.4246767163277,stop,squareblack.png,right,0.35,,,,,,,,,,,,,,,0.0074469298124313354,0.48918893560767174,0.8396909795701504,3574.927035406232,test,1,,,,,,,,,,3572.4487077891827,3572.956777729094,3572.9402422867715,3572.9402422867715,3573.2907419689,3573.791301909834,3573.9412950463593,3574.9456408135593,None,0,,0.4,,,,,,,,,,,s013,001,2024-07-24_14h52.17.189,simplestop_skeleton,2022.2.2,59.963618685599975,
None,None,,,,,,,,,0,0,0,0,4,3,19,2,,,,,,,,,3574.927487593144,stop,squareblack.png,right,0.4,,,,,,,,,,,,,,,0.0013807304203510284,0.48985908925533295,0.8902529627084732,3577.430010702461,test,1,,,,,,,,,,3574.9456408135593,3575.4596419259906,3575.442936822772,3575.442936822772,3575.843760173768,3576.3441423363984,3576.4442217722535,3577.4486871920526,None,0,,0.45,,,,,,,,,,,s013,001,2024-07-24_14h52.17.189,simplestop_skeleton,2022.2.2,59.963618685599975,
None,None,,,,,,,,,0,0,0,0,5,0,20,2,,,,,,,,,3577.430449448526,go,squareblack.png,right,0.45,,,,,,,,,,,,,,,0.0013129524886608124,0.48954709991812706,,3579.9324267841876,test,1,,,,,,,,,,3577.4486871920526,3577.962669722736,3577.94614091143,3577.94614091143,3578.396225672215,3578.8963945917785,3578.9455787688494,3579.952026374638,right,1,0.6345650814473629,0.45,,,,,,,,,,,s013,001,2024-07-24_14h52.17.189,simplestop_skeleton,2022.2.2,59.963618685599975,
None,None,,,,,,,,,0,0,0,0,5,1,21,2,,,,,,,,,3579.932927954942,go,circleblack.png,left,0.45,,,,,,,,,,,,,,,0.0020473413169384003,0.4895218126475811,,3582.4349986314774,test,1,,,,,,,,,,3579.952026374638,3580.465258087963,3580.448371704668,3580.448371704668,3580.898932505399,3581.399429023266,3581.449452985078,3582.4529777280986,left,1,0.7571645751595497,0.45,,,,,,,,,,,s013,001,2024-07-24_14h52.17.189,simplestop_skeleton,2022.2.2,59.963618685599975,
None,None,,,,,,,,,0,0,0,0,5,2,22,1,,,,,,,,,3582.4354316443205,go,circleblack.png,left,0.45,,,,,,,,,,,,,,,0.0012744739651679993,0.48979874700307846,,3584.9379807412624,test,1,,,,,,,,,,3582.4529777280986,3582.967880833894,3582.9511844702065,3582.9511844702065,3583.4017618224025,3583.9009326063097,3583.9517014101148,3584.9570218622684,left,1,0.5762794874608517,0.45,,,,,,,,,,,s013,001,2024-07-24_14h52.17.189,simplestop_skeleton,2022.2.2,59.963618685599975,
$currentCorrectResponse,$currentGoStim,,,,,,,,,0,0,0,0,5,3,23,0,,,,,,,,,3584.9384242221713,go,squareblack.png,right,0.45,,,,,,,,,,,,,,,0.0016090832650661469,0.49003810808062553,,3587.4407884143293,test,1,,,,,,,,,,3584.9570218622684,3585.470671299845,3585.453884884715,3585.453884884715,3585.904727909714,3586.403638958931,3586.454714946449,3587.460519146174,right,1,0.7152943983674049,0.45,,,,,,,,,,,s013,001,2024-07-24_14h52.17.189,simplestop_skeleton,2022.2.2,59.963618685599975,
None,None,,,,,,,,,0,0,0,0,6,0,24,1,,,,,,,,,3587.44122627005,go,circleblack.png,left,0.45,,,,,,,,,,,,,,,0.0018755458295345306,0.48948603868484497,,3589.9435334801674,test,1,,,,,,,,,,3587.460519146174,3587.9736314825714,3587.956780422479,3587.956780422479,3588.40735790506,3588.907883722335,3588.9579558074474,3589.962912969291,left,1,0.7094753496348858,0.45,,,,,,,,,,,s013,001,2024-07-24_14h52.17.189,simplestop_skeleton,2022.2.2,59.963618685599975,
None,None,,,,,,,,,0,0,0,0,6,1,25,2,,,,,,,,,3589.943974804133,go,squareblack.png,right,0.45,,,,,,,,,,,,,,,0.0016639456152915955,0.48957549408078194,,3592.44639929384,test,1,,,,,,,,,,3589.962912969291,3590.476330958307,3590.4595955498517,3590.4595955498517,3590.910139668733,3591.4106095843017,3591.4609740003943,3592.465726118535,right,1,0.7351230569183826,0.45,,,,,,,,,,,s013,001,2024-07-24_14h52.17.189,simplestop_skeleton,2022.2.2,59.963618685599975,
None,None,,,,,,,,,0,0,0,0,6,2,26,3,,,,,,,,,3592.4468446038663,go,circleblack.png,left,0.45,,,,,,,,,,,,,,,0.0018744096159934998,0.4895784929394722,,3594.94935695827,test,1,,,,,,,,,,3592.465726118535,3592.9789549298584,3592.9622987136245,3592.9622987136245,3593.412900786847,3593.913829740137,3593.9633711650968,3594.968390673399,left,1,0.8056398294866085,0.45,,,,,,,,,,,s013,001,2024-07-24_14h52.17.189,simplestop_skeleton,2022.2.2,59.963618685599975,
None,None,,,,,,,,,0,0,0,0,6,3,27,1,,,,,,,,,3594.9497934430838,go,squareblack.png,right,0.45,,,,,,,,,,,,,,,0.001668352633714676,0.489593543112278,,3597.4517010636628,test,1,,,,,,,,,,3594.968390673399,3595.4817563965917,3595.4651399366558,3595.4651399366558,3595.9157006144524,3596.41623301059,3596.4662430249155,3597.47054425627,right,1,0.9071662835776806,0.45,,,,,,,,,,,s013,001,2024-07-24_14h52.17.189,simplestop_skeleton,2022.2.2,59.963618685599975,
$currentCorrectResponse,$currentGoStim,,,,,,,,,0,0,0,0,7,0,28,0,,,,,,,,,3597.4521658569574,go,squareblack.png,right,0.45,,,,,,,,,,,,,,,0.0012266114354133606,0.4899987764656544,,3599.9548492617905,test,1,,,,,,,,,,3597.47054425627,3597.9849144630134,3597.9679939337075,3597.9679939337075,3598.418308906257,3598.9188191965222,3598.967778339982,3599.974199041724,right,1,0.6649605967104435,0.45,,,,,,,,,,,s013,001,2024-07-24_14h52.17.189,simplestop_skeleton,2022.2.2,59.963618685599975,
None,None,,,,,,,,,0,0,0,0,7,1,29,3,,,,,,,,,3599.955296318978,stop,circleblack.png,left,0.45,,,,,,,,,,,,,,,0.002051837742328644,0.4894498400390148,0.9401944950222969,3602.4574235081673,test,1,,,,,,,,,,3599.974199041724,3600.4872400015593,3600.4704723618925,3600.4704723618925,3600.9211371950805,3601.4210974127054,3601.4709247127175,3602.47667427361,left,1,0.5019019991159439,0.4,,,,,,,,,,,s013,001,2024-07-24_14h52.17.189,simplestop_skeleton,2022.2.2,59.963618685599975,
None,None,,,,,,,,,0,0,0,0,7,2,30,3,,,,,,,,,3602.457850560546,go,squareblack.png,right,0.4,,,,,,,,,,,,,,,0.001762479543685913,0.4895525723695755,,3604.9600681960583,test,1,,,,,,,,,,3602.47667427361,3602.990105587989,3602.973185747862,3602.973185747862,3603.373683657497,3603.8742145635188,3603.974344048649,3604.979026168585,right,1,0.8289981633424759,0.4,,,,,,,,,,,s013,001,2024-07-24_14h52.17.189,simplestop_skeleton,2022.2.2,59.963618685599975,
None,None,,,,,,,,,0,0,0,0,7,3,31,2,,,,,,,,,3604.9605246447027,stop,squareblack.png,right,0.4,,,,,,,,,,,,,,,0.0012678653001785278,0.48997556418180466,0.8901577703654766,3607.4631094895303,test,1,,,,,,,,,,3604.979026168585,3605.4927646405995,3605.4763454534113,3605.4763454534113,3605.876864492893,3606.3771560676396,3606.47717115283,3607.482231862843,None,0,,0.45,,,,,,,,,,,s013,001,2024-07-24_14h52.17.189,simplestop_skeleton,2022.2.2,59.963618685599975,
$currentCorrectResponse,$currentGoStim,,,,,,,,,0,0,0,0,8,0,32,0,,,,,,,,,3607.4635588675737,stop,circleblack.png,left,0.45,,,,,,,,,,,,,,,0.0018518641591072083,0.48947107046842575,0.9401330724358559,3609.9655251018703,test,1,,,,,,,,,,3607.482231862843,3607.995709463954,3607.979037810117,3607.979037810117,3608.4294081516564,3608.9286626689136,3608.9793164394796,3609.9854670874774,left,1,0.5694010965526104,0.4,,,,,,,,,,,s013,001,2024-07-24_14h52.17.189,simplestop_skeleton,2022.2.2,59.963618685599975,
None,None,,,,,,,,,0,0,0,0,8,1,33,1,,,,,,,,,3609.9659629389644,go,circleblack.png,left,0.4,,,,,,,,,,,,,,,0.001651424914598465,0.48912297561764717,,3612.4682636596262,test,1,,,,,,,,,,3609.9854670874774,3610.4983314573765,3610.481612108648,3610.481612108648,3610.881920527667,3611.381280723959,3611.482232604176,3612.4871208406985,left,1,0.5181551277637482,0.4,,,,,,,,,,,s013,001,2024-07-24_14h52.17.189,simplestop_skeleton,2022.2.2,59.963618685599975,
None,None,,,,,,,,,0,0,0,0,8,2,34,3,,,,,,,,,3612.4686932601035,go,circleblack.png,left,0.4,,,,,,,,,,,,,,,0.001269843429327011,0.49015112221241,,3614.971158593893,test,1,,,,,,,,,,3612.4871208406985,3613.0009830519557,3612.9844019003212,3612.9844019003212,3613.384706169367,3613.885642334819,3613.9841667823493,3614.990533262491,left,1,0.6340538710355759,0.4,,,,,,,,,,,s013,001,2024-07-24_14h52.17.189,simplestop_skeleton,2022.2.2,59.963618685599975,
None,None,,,,,,,,,0,0,0,0,8,3,35,2,,,,,,,,,3614.9715979099274,stop,squareblack.png,right,0.4,,,,,,,,,,,,,,,0.0018038749694824219,0.48965829983353615,0.8903047144412994,3617.474161673337,test,1,,,,,,,,,,3614.990533262491,3615.5039864070714,3615.487150080502,3615.487150080502,3615.8877049274743,3616.3881736136973,3616.487650629133,3617.493078518659,right,1,0.6357898227870464,0.35,,,,,,,,,,,s013,001,2024-07-24_14h52.17.189,simplestop_skeleton,2022.2.2,59.963618685599975,
None,None,,,,,,,,,0,0,0,0,9,0,36,2,,,,,,,,,3617.4746052846313,go,squareblack.png,right,0.35,,,,,,,,,,,,,,,0.0013644024729728699,0.48929638043046,,3619.976708047092,test,1,,,,,,,,,,3617.493078518659,3618.006554633379,3617.989927146584,3617.989927146584,3618.340629067272,3618.840825956315,3618.9911494106054,3619.9962926730514,right,1,0.7515179850161076,0.35,,,,,,,,,,,s013,001,2024-07-24_14h52.17.189,simplestop_skeleton,2022.2.2,59.963618685599975,
None,None,,,,,,,,,0,0,0,0,9,1,37,2,,,,,,,,,3619.977148670703,go,circleblack.png,left,0.35,,,,,,,,,,,,,,,0.0020360350608825684,0.4892851188778877,,3622.4793531261384,test,1,,,,,,,,,,3619.9962926730514,3620.5092741325498,3620.4925333745778,3620.4925333745778,3620.842939991504,3621.343889415264,3621.493142757565,3622.498219180852,left,1,0.601287491619587,0.35,,,,,,,,,,,s013,001,2024-07-24_14h52.17.189,simplestop_skeleton,2022.2.2,59.963618685599975,
None,None,,,,,,,,,0,0,0,0,9,2,38,3,,,,,,,,,3622.479798670858,stop,circleblack.png,left,0.35,,,,,,,,,,,,,,,0.001356370747089386,0.48992500826716423,0.8400136902928352,3624.982251673937,test,1,,,,,,,,,,3622.498219180852,3623.012083914131,3622.9953661970794,3622.9953661970794,3623.3456517010927,3623.8469581380486,3623.9959969595075,3625.0013604201376,left,1,0.48473285511136055,0.3,,,,,,,,,,,s013,001,2024-07-24_14h52.17.189,simplestop_skeleton,2022.2.2,59.963618685599975,
$currentCorrectResponse,$currentGoStim,,,,,,,,,0,0,0,0,9,3,39,0,,,,,,,,,3624.982689663768,go,circleblack.png,left,0.3,,,,,,,,,,,,,,,0.0013927780091762543,0.4895930737257004,,3627.484775226563,test,1,,,,,,,,,,3625.0013604201376,3625.5148809067905,3625.498353295028,3625.498353295028,3625.7985232509673,3626.299475044012,3626.4991986341774,3627.504308924079,left,1,0.6128644607961178,0.3,,,,,,,,,,,s013,001,2024-07-24_14h52.17.189,simplestop_skeleton,2022.2.2,59.963618685599975,
None,None,,,,,,,,,0,0,0,0,10,0,40,3,,,,,,,,,3627.4852029383183,go,circleblack.png,left,0.3,,,,,,,,,,,,,,,0.0014242380857467651,0.48960499092936516,,3629.987691897899,test,1,,,,,,,,,,3627.504308924079,3628.017913915217,3628.0010513029993,3628.0010513029993,3628.301630951464,3628.801856223494,3629.001683730632,3630.006656702608,left,1,0.5848830714821815,0.3,,,,,,,,,,,s013,001,2024-07-24_14h52.17.189,simplestop_skeleton,2022.2.2,59.963618685599975,
None,None,,,,,,,,,0,0,0,0,10,1,41,2,,,,,,,,,3629.988138064742,go,circleblack.png,left,0.3,,,,,,,,,,,,,,,0.0014409497380256653,0.489693321287632,,3632.4909127913415,test,1,,,,,,,,,,3630.006656702608,3630.5205670185387,3630.5036859065294,3630.5036859065294,3630.8042335920036,3631.3047838658094,3631.5050282105803,3632.5146980658174,left,1,0.805278979241848,0.3,,,,,,,,,,,s013,001,2024-07-24_14h52.17.189,simplestop_skeleton,2022.2.2,59.963618685599975,
None,None,,,,,,,,,0,0,0,0,10,2,42,3,,,,,,,,,3632.4913582876325,go,squareblack.png,right,0.3,,,,,,,,,,,,,,,0.007167994976043701,0.48956868425011635,,3634.993509154767,test,1,,,,,,,,,,3632.5146980658174,3633.023172106594,3633.006724011153,3633.006724011153,3633.3070359937847,3633.8074670620263,3634.007658198476,3635.012348778546,right,1,0.7691440209746361,0.3,,,,,,,,,,,s013,001,2024-07-24_14h52.17.189,simplestop_skeleton,2022.2.2,59.963618685599975,
$currentCorrectResponse,$currentGoStim,,,,,,,,,0,0,0,0,10,3,43,0,,,,,,,,,3634.993947684765,stop,squareblack.png,right,0.3,,,,,,,,,,,,,,,0.0013155192136764526,0.48975731804966927,0.7897384837269783,3637.495944354683,test,1,,,,,,,,,,3635.012348778546,3635.5259403176606,3635.509550701827,3635.509550701827,3635.8095572032034,3636.3101150654256,3636.510668184608,3637.514565642923,None,0,,0.35,,,,,,,,,,,s013,001,2024-07-24_14h52.17.189,simplestop_skeleton,2022.2.2,59.963618685599975,
None,None,,,,,,,,,0,0,0,0,11,0,44,2,,,,,,,,,3637.496395599097,go,squareblack.png,right,0.35,,,,,,,,,,,,,,,0.0012566857039928436,0.4898996464908123,,3639.9995459206402,test,1,,,,,,,,,,3637.514565642923,3638.0289670191705,3638.0119482167065,3638.0119482167065,3638.3627679795027,3638.8629635088146,3639.0131956115365,3640.018783867359,right,1,0.9623050130903721,0.35,,,,,,,,,,,s013,001,2024-07-24_14h52.17.189,simplestop_skeleton,2022.2.2,59.963618685599975,
None,None,,,,,,,,,0,0,0,0,11,1,45,2,,,,,,,,,3639.999986741692,go,squareblack.png,right,0.35,,,,,,,,,,,,,,,0.0014502182602882385,0.4887075610458851,,3642.501406852156,test,1,,,,,,,,,,3640.018783867359,3640.5313816703856,3640.5145799927413,3640.5145799927413,3640.8649594709277,3641.3657140284777,3641.5157305710018,3642.520048175007,right,1,0.7988036274909973,0.35,,,,,,,,,,,s013,001,2024-07-24_14h52.17.189,simplestop_skeleton,2022.2.2,59.963618685599975,
$currentCorrectResponse,$currentGoStim,,,,,,,,,0,0,0,0,11,2,46,0,,,,,,,,,3642.5018443875015,stop,squareblack.png,right,0.35,,,,,,,,,,,,,,,0.0012239255011081696,0.48973535001277924,0.8403469063341618,3645.0040496885777,test,1,,,,,,,,,,3642.520048175007,3643.0341097973287,3643.0175143517554,3643.0175143517554,3643.367759499699,3643.868481244892,3644.0185054019094,3645.0295190662146,None,0,,0.4,,,,,,,,,,,s013,001,2024-07-24_14h52.17.189,simplestop_skeleton,2022.2.2,59.963618685599975,
None,None,,,,,,,,,0,0,0,0,11,3,47,3,,,,,,,,,3645.0044836886227,stop,circleblack.png,left,0.4,,,,,,,,,,,,,,,0.008672181516885757,0.489910326898098,0.8904105201363564,3647.506885059178,test,1,,,,,,,,,,3645.0295190662146,3645.5371954403818,3645.5202616117895,3645.5202616117895,3645.920744858682,3646.4214438945055,3646.5215534567833,3647.5272384919226,None,0,,0.45,,,,,,,,,,,s013,001,2024-07-24_14h52.17.189,simplestop_skeleton,2022.2.2,59.963618685599975,
,,,,,,,,,,0,0,0,0,,,,,,"[{'fileName': 'squareblack.png', 'correct_response': 'right', 'condition': 'go'}, {'fileName': 'squareblack.png', 'correct_response': 'right', 'condition': 'go'}, {'fileName': 'squareblack.png', 'correct_response': 'right', 'condition': 'go'}, {'fileName': 'squareblack.png', 'correct_response': 'right', 'condition': 'stop'}, {'fileName': 'circleblack.png', 'correct_response': 'left', 'condition': 'go'}, {'fileName': 'circleblack.png', 'correct_response': 'left', 'condition': 'stop'}, {'fileName': 'squareblack.png', 'correct_response': 'right', 'condition': 'go'}, {'fileName': 'circleblack.png', 'correct_response': 'left', 'condition': 'go'}, {'fileName': 'circleblack.png', 'correct_response': 'left', 'condition': 'stop'}, {'fileName': 'circleblack.png', 'correct_response': 'left', 'condition': 'go'}, {'fileName': 'squareblack.png', 'correct_response': 'right', 'condition': 'stop'}, {'fileName': 'circleblack.png', 'correct_response': 'left', 'condition': 'go'}, {'fileName': 'circleblack.png', 'correct_response': 'left', 'condition': 'go'}, {'fileName': 'circleblack.png', 'correct_response': 'left', 'condition': 'go'}, {'fileName': 'squareblack.png', 'correct_response': 'right', 'condition': 'stop'}, {'fileName': 'squareblack.png', 'correct_response': 'right', 'condition': 'go'}, {'fileName': 'circleblack.png', 'correct_response': 'left', 'condition': 'go'}, {'fileName': 'circleblack.png', 'correct_response': 'left', 'condition': 'stop'}, {'fileName': 'squareblack.png', 'correct_response': 'right', 'condition': 'go'}, {'fileName': 'squareblack.png', 'correct_response': 'right', 'condition': 'go'}, {'fileName': 'squareblack.png', 'correct_response': 'right', 'condition': 'go'}, {'fileName': 'circleblack.png', 'correct_response': 'left', 'condition': 'go'}, {'fileName': 'circleblack.png', 'correct_response': 'left', 'condition': 'stop'}, {'fileName': 'squareblack.png', 'correct_response': 'right', 'condition': 'stop'}, {'fileName': 'circleblack.png', 'correct_response': 'left', 'condition': 'go'}, {'fileName': 'squareblack.png', 'correct_response': 'right', 'condition': 'stop'}, {'fileName': 'squareblack.png', 'correct_response': 'right', 'condition': 'go'}, {'fileName': 'circleblack.png', 'correct_response': 'left', 'condition': 'go'}, {'fileName': 'circleblack.png', 'correct_response': 'left', 'condition': 'go'}, {'fileName': 'squareblack.png', 'correct_response': 'right', 'condition': 'go'}, {'fileName': 'circleblack.png', 'correct_response': 'left', 'condition': 'stop'}, {'fileName': 'squareblack.png', 'correct_response': 'right', 'condition': 'stop'}, {'fileName': 'squareblack.png', 'correct_response': 'right', 'condition': 'go'}, {'fileName': 'circleblack.png', 'correct_response': 'left', 'condition': 'stop'}, {'fileName': 'circleblack.png', 'correct_response': 'left', 'condition': 'go'}, {'fileName': 'squareblack.png', 'correct_response': 'right', 'condition': 'go'}, {'fileName': 'circleblack.png', 'correct_response': 'left', 'condition': 'go'}, {'fileName': 'circleblack.png', 'correct_response': 'left', 'condition': 'go'}, {'fileName': 'squareblack.png', 'correct_response': 'right', 'condition': 'go'}, {'fileName': 'squareblack.png', 'correct_response': 'right', 'condition': 'go'}, {'fileName': 'circleblack.png', 'correct_response': 'left', 'condition': 'stop'}, {'fileName': 'circleblack.png', 'correct_response': 'left', 'condition': 'stop'}, {'fileName': 'squareblack.png', 'correct_response': 'right', 'condition': 'stop'}, {'fileName': 'squareblack.png', 'correct_response': 'right', 'condition': 'go'}, {'fileName': 'circleblack.png', 'correct_response': 'left', 'condition': 'go'}, {'fileName': 'squareblack.png', 'correct_response': 'right', 'condition': 'go'}, {'fileName': 'circleblack.png', 'correct_response': 'left', 'condition': 'go'}, {'fileName': 'squareblack.png', 'correct_response': 'right', 'condition': 'stop'}]",,,,,,,,,,,,,,,,,,,,,,,,,,,,,,,,,,,,,,,,,,,,,,,,,,,,,3647.5272384919226,3647.5272384919226,None,,,,,,,,s013,001,2024-07-24_14h52.17.189,simplestop_skeleton,2022.2.2,59.963618685599975,
None,None,,,,,,,,,1,0,1,0,0,0,0,2,,,,,,,,,3707.5381809063256,go,squareblack.png,right,0.45,,,,,,,,,,,,,,,0.0022514238953590393,0.4914514273405075,,3710.042588401586,test,2,,,,,,,,,,3707.557485613972,3708.0726711563766,3708.055888518691,3708.055888518691,3708.5068621449172,3709.007011115551,3709.0570246577263,3710.061364468187,None,0,,0.45,,,,,,,,,,,s013,001,2024-07-24_14h52.17.189,simplestop_skeleton,2022.2.2,59.963618685599975,
None,None,,,,,,,,,1,0,1,0,0,1,1,2,,,,,,,,,3710.043123677373,go,squareblack.png,right,0.45,,,,,,,,,,,,,,,0.001332014799118042,0.4898272044956684,,3712.5458362475038,test,2,,,,,,,,,,3710.061364468187,3710.575546953827,3710.558729533106,3710.558729533106,3711.0092461034656,3711.509421519935,3711.5591092407703,3712.564647193998,right,1,0.462874636054039,0.45,,,,,,,,,,,s013,001,2024-07-24_14h52.17.189,simplestop_skeleton,2022.2.2,59.963618685599975,
None,None,,,,,,,,,1,0,1,0,0,2,2,3,,,,,,,,,3712.5462636612356,go,squareblack.png,right,0.45,,,,,,,,,,,,,,,0.0013609640300273895,0.489526130259037,,3715.0488566569984,test,2,,,,,,,,,,3712.564647193998,3713.078111872077,3713.0616300478578,3713.0616300478578,3713.5121761597693,3714.0124054923654,3714.0619712769985,3715.0679392516613,right,1,0.5178170725703239,0.45,,,,,,,,,,,s013,001,2024-07-24_14h52.17.189,simplestop_skeleton,2022.2.2,59.963618685599975,
None,None,,,,,,,,,1,0,1,0,0,3,3,1,,,,,,,,,3715.0492900945246,stop,squareblack.png,right,0.45,,,,,,,,,,,,,,,0.0013868249952793121,0.4891543611884117,0.9393510706722736,3717.55101557076,test,2,,,,,,,,,,3715.0679392516613,3715.580911166966,3715.564415473491,3715.564415473491,3716.0147211030126,3716.5153693519533,3716.565330889076,3717.5758463591337,None,0,,0.5,,,,,,,,,,,s013,001,2024-07-24_14h52.17.189,simplestop_skeleton,2022.2.2,59.963618685599975,
$currentCorrectResponse,$currentGoStim,,,,,,,,,1,0,1,0,1,0,4,0,,,,,,,,,3717.551451575011,go,circleblack.png,left,0.5,,,,,,,,,,,,,,,0.008006755262613297,0.48988813534379005,,3720.0541257448494,test,2,,,,,,,,,,3717.5758463591337,3718.0836195386946,3718.0670553706586,3718.0670553706586,3718.5675082057714,3719.0677851438522,3719.0677851438522,3720.0731279291213,left,1,0.5384598337113857,0.5,,,,,,,,,,,s013,001,2024-07-24_14h52.17.189,simplestop_skeleton,2022.2.2,59.963618685599975,
$currentCorrectResponse,$currentGoStim,,,,,,,,,1,0,1,0,1,1,5,0,,,,,,,,,3720.0545726269484,stop,circleblack.png,left,0.5,,,,,,,,,,,,,,,0.0014452636241912842,0.4892738461494446,0.9900679849088192,3722.5566937476397,test,2,,,,,,,,,,3720.0731279291213,3720.586525082588,3720.56970275566,3720.56970275566,3721.0704739652574,3721.569515712559,3721.569515712559,3722.576261200011,left,1,0.6368288584053516,0.45,,,,,,,,,,,s013,001,2024-07-24_14h52.17.189,simplestop_skeleton,2022.2.2,59.963618685599975,
None,None,,,,,,,,,1,0,1,0,1,2,6,3,,,,,,,,,3722.5571229979396,go,squareblack.png,right,0.45,,,,,,,,,,,,,,,0.0019531920552253723,0.48934588953852654,,3725.0596844665706,test,2,,,,,,,,,,3722.576261200011,3723.089315764606,3723.072806149721,3723.072806149721,3723.523488149047,3724.0235429517925,3724.073655549437,3725.0794132575393,right,1,0.7979757003486156,0.45,,,,,,,,,,,s013,001,2024-07-24_14h52.17.189,simplestop_skeleton,2022.2.2,59.963618685599975,
None,None,,,,,,,,,1,0,1,0,1,3,7,3,,,,,,,,,3725.060122076422,go,circleblack.png,left,0.45,,,,,,,,,,,,,,,0.0026520490646362305,0.48909516260027885,,3727.561710484326,test,2,,,,,,,,,,3725.0794132575393,3725.591920055449,3725.57500128448,3725.57500128448,3726.0258587375283,3726.5264462567866,3726.5762713104486,3727.5796640068293,left,1,0.7853705286979675,0.45,,,,,,,,,,,s013,001,2024-07-24_14h52.17.189,simplestop_skeleton,2022.2.2,59.963618685599975,
$currentCorrectResponse,$currentGoStim,,,,,,,,,1,0,1,0,2,0,8,0,,,,,,,,,3727.5621365718544,stop,circleblack.png,left,0.45,,,,,,,,,,,,,,,0.001264873892068863,0.48975878581404686,0.9403585009276867,3730.064575776458,test,2,,,,,,,,,,3727.5796640068293,3728.094516288489,3728.0783011056483,3728.0783011056483,3728.5285018235445,3729.0288812220097,3729.0790043845773,3730.0820508748293,None,0,,0.5,,,,,,,,,,,s013,001,2024-07-24_14h52.17.189,simplestop_skeleton,2022.2.2,59.963618685599975,
None,None,,,,,,,,,1,0,1,0,2,1,9,3,,,,,,,,,3730.0650080665946,go,circleblack.png,left,0.5,,,,,,,,,,,,,,,0.0013122223317623138,0.49005502462387085,,3732.5679125785828,test,2,,,,,,,,,,3730.0820508748293,3730.597649395466,3730.580818235874,3730.580818235874,3731.0814407393336,3731.582033418119,3731.582033418119,3732.587087109685,left,1,0.8117014169692993,0.5,,,,,,,,,,,s013,001,2024-07-24_14h52.17.189,simplestop_skeleton,2022.2.2,59.963618685599975,
$currentCorrectResponse,$currentGoStim,,,,,,,,,1,0,1,0,2,2,10,0,,,,,,,,,3732.568342830986,stop,squareblack.png,right,0.5,,,,,,,,,,,,,,,0.0017376281321048737,0.48932628706097603,0.9902142807841301,3735.07034958899,test,2,,,,,,,,,,3732.587087109685,3733.1002985090017,3733.0834640711546,3733.0834640711546,3733.584239076823,3734.0842724740505,3734.0842724740505,3735.0896404087543,right,1,0.5866107046604156,0.45,,,,,,,,,,,s013,001,2024-07-24_14h52.17.189,simplestop_skeleton,2022.2.2,59.963618685599975,
None,None,,,,,,,,,1,0,1,0,2,3,11,3,,,,,,,,,3735.070783574134,go,circleblack.png,left,0.45,,,,,,,,,,,,,,,0.0018256232142448425,0.4895973354578018,,3737.5727660916746,test,2,,,,,,,,,,3735.0896404087543,3735.6029318124056,3735.5861541219056,3735.5861541219056,3736.036711871624,3736.537294175476,3736.5873987041414,3737.5906136855483,left,1,0.8100273795425892,0.45,,,,,,,,,,,s013,001,2024-07-24_14h52.17.189,simplestop_skeleton,2022.2.2,59.963618685599975,
None,None,,,,,,,,,1,0,1,0,3,0,12,3,,,,,,,,,3737.57319585979,go,circleblack.png,left,0.45,,,,,,,,,,,,,,,0.0012585930526256561,0.4890473932027817,,3740.075750477612,test,2,,,,,,,,,,3737.5906136855483,3738.1051649712026,3738.0884605310857,3738.0884605310857,3738.539515912533,3739.040100697428,3739.0902457609773,3740.0944820418954,left,1,0.6766959950327873,0.45,,,,,,,,,,,s013,001,2024-07-24_14h52.17.189,simplestop_skeleton,2022.2.2,59.963618685599975,
None,None,,,,,,,,,1,0,1,0,3,1,13,1,,,,,,,,,3740.0761927850544,go,circleblack.png,left,0.45,,,,,,,,,,,,,,,0.0013154558837413788,0.4901287518441677,,3742.578648388386,test,2,,,,,,,,,,3740.0944820418954,3740.6085168085992,3740.591852761805,3740.591852761805,3741.04243722558,3741.542823217809,3741.59295053035,3742.597815643996,left,1,0.7840215601027012,0.45,,,,,,,,,,,s013,001,2024-07-24_14h52.17.189,simplestop_skeleton,2022.2.2,59.963618685599975,
None,None,,,,,,,,,1,0,1,0,3,2,14,1,,,,,,,,,3742.5791019052267,stop,squareblack.png,right,0.45,,,,,,,,,,,,,,,0.001627512276172638,0.48959872499108315,0.9401059336960316,3745.0813532546163,test,2,,,,,,,,,,3742.597815643996,3743.1113089695573,3743.0947725363076,3743.0947725363076,3743.5451109334826,3744.0457444898784,3744.0956840366125,3745.1001507751644,None,0,,0.5,,,,,,,,,,,s013,001,2024-07-24_14h52.17.189,simplestop_skeleton,2022.2.2,59.963618685599975,
None,None,,,,,,,,,1,0,1,0,3,3,15,2,,,,,,,,,3745.0818568468094,go,squareblack.png,right,0.5,,,,,,,,,,,,,,,0.0011768341064453125,0.48983995243906975,,3747.584083672613,test,2,,,,,,,,,,3745.1001507751644,3745.61397331208,3745.597262341529,3745.597262341529,3746.097996160388,3746.598496388644,3746.598496388644,3747.603516690433,right,1,0.8482247367501259,0.5,,,,,,,,,,,s013,001,2024-07-24_14h52.17.189,simplestop_skeleton,2022.2.2,59.963618685599975,
$currentCorrectResponse,$currentGoStim,,,,,,,,,1,0,1,0,4,0,16,0,,,,,,,,,3747.5845393687487,go,circleblack.png,left,0.5,,,,,,,,,,,,,,,0.001907244324684143,0.48959385231137276,,3750.086621005088,test,2,,,,,,,,,,3747.603516690433,3748.116646565497,3748.099970817566,3748.099970817566,3748.600493784994,3749.101184759289,3749.101184759289,3750.1059338860214,left,1,0.7844479754567146,0.5,,,,,,,,,,,s013,001,2024-07-24_14h52.17.189,simplestop_skeleton,2022.2.2,59.963618685599975,
None,None,,,,,,,,,1,0,1,0,4,1,17,3,,,,,,,,,3750.0870503745973,stop,circleblack.png,left,0.5,,,,,,,,,,,,,,,0.0014016181230545044,0.489816389977932,0.9901384226977825,3752.5899677164853,test,2,,,,,,,,,,3750.1059338860214,3750.6197903230786,3750.6030294820666,3750.6030294820666,3751.1033989451826,3751.6040531359613,3751.6040531359613,3752.609306011349,None,0,,0.55,,,,,,,,,,,s013,001,2024-07-24_14h52.17.189,simplestop_skeleton,2022.2.2,59.963618685599975,
$currentCorrectResponse,$currentGoStim,,,,,,,,,1,0,1,0,4,2,18,0,,,,,,,,,3752.5904043465853,go,squareblack.png,right,0.55,,,,,,,,,,,,,,,0.001777835190296173,0.48991160467267036,,3755.092263251543,test,2,,,,,,,,,,3752.609306011349,3753.122618250549,3753.1056285239756,3753.1056285239756,3753.656175084412,3754.1573466323316,3754.1053813509643,3755.1111023016274,right,1,0.6733307465910912,0.55,,,,,,,,,,,s013,001,2024-07-24_14h52.17.189,simplestop_skeleton,2022.2.2,59.963618685599975,
None,None,,,,,,,,,1,0,1,0,4,3,19,1,,,,,,,,,3755.0927055105567,go,squareblack.png,right,0.55,,,,,,,,,,,,,,,0.0013354681432247162,0.48961978405714035,,3757.5950725898147,test,2,,,,,,,,,,3755.1111023016274,3755.625101990998,3755.60849538818,3755.60849538818,3756.1590206474066,3756.6602541953325,3756.608036644757,3757.613773752004,right,1,0.6434266939759254,0.55,,,,,,,,,,,s013,001,2024-07-24_14h52.17.189,simplestop_skeleton,2022.2.2,59.963618685599975,
None,None,,,,,,,,,1,0,1,0,5,0,20,2,,,,,,,,,3757.5955091677606,go,squareblack.png,right,0.55,,,,,,,,,,,,,,,0.0012515448033809662,0.4899091571569443,,3760.097991641611,test,2,,,,,,,,,,3757.613773752004,3758.1276768259704,3758.1111563295126,3758.1111563295126,3758.6618203371763,3759.162334997207,3759.1123184226453,3760.11750305444,right,1,0.8812295235693455,0.55,,,,,,,,,,,s013,001,2024-07-24_14h52.17.189,simplestop_skeleton,2022.2.2,59.963618685599975,
$currentCorrectResponse,$currentGoStim,,,,,,,,,1,0,1,0,5,1,21,0,,,,,,,,,3760.0984279811382,go,circleblack.png,left,0.55,,,,,,,,,,,,,,,0.00195993110537529,0.48956622928380966,,3762.600538507104,test,2,,,,,,,,,,3760.11750305444,3760.630959626287,3760.6139618232846,3760.6139618232846,3761.164470974356,3761.665320519358,3761.614996600896,3762.619298838079,left,1,0.7926287241280079,0.55,,,,,,,,,,,s013,001,2024-07-24_14h52.17.189,simplestop_skeleton,2022.2.2,59.963618685599975,
None,None,,,,,,,,,1,0,1,0,5,2,22,2,,,,,,,,,3762.6009719334543,stop,circleblack.png,left,0.55,,,,,,,,,,,,,,,0.0013236552476882935,0.48970143496990204,1.0407277904450893,3765.1035597510636,test,2,,,,,,,,,,3762.619298838079,3763.133390326053,3763.1169403605163,3763.1169403605163,3763.667326938361,3764.166613470763,3764.1166893839836,3765.1228873990476,left,1,0.6131804250180721,0.5,,,,,,,,,,,s013,001,2024-07-24_14h52.17.189,simplestop_skeleton,2022.2.2,59.963618685599975,
$currentCorrectResponse,$currentGoStim,,,,,,,,,1,0,1,0,5,3,23,0,,,,,,,,,3765.1039978414774,stop,squareblack.png,right,0.5,,,,,,,,,,,,,,,0.0017431341111660004,0.4899964891374111,0.9900353737175465,3767.6061383225024,test,2,,,,,,,,,,3765.1228873990476,3765.636059705168,3765.6192601807415,3765.6192601807415,3766.12005790323,3766.62072070688,3766.62072070688,3767.6253483444452,None,0,,0.55,,,,,,,,,,,s013,001,2024-07-24_14h52.17.189,simplestop_skeleton,2022.2.2,59.963618685599975,
$currentCorrectResponse,$currentGoStim,,,,,,,,,1,0,1,0,6,0,24,0,,,,,,,,,3767.606587354094,go,circleblack.png,left,0.55,,,,,,,,,,,,,,,0.0018143244087696075,0.48910709097981453,,3770.108750216663,test,2,,,,,,,,,,3767.6253483444452,3768.138015266508,3768.121965482831,3768.121965482831,3768.6731775328517,3769.1734137795866,3769.1231484785676,3770.1277535930276,left,1,0.6632663048803806,0.55,,,,,,,,,,,s013,001,2024-07-24_14h52.17.189,simplestop_skeleton,2022.2.2,59.963618685599975,
None,None,,,,,,,,,1,0,1,0,6,1,25,2,,,,,,,,,3770.1091911569238,stop,squareblack.png,right,0.55,,,,,,,,,,,,,,,0.0016727223992347717,0.48990627378225327,1.0404913499951363,3772.6118177250028,test,2,,,,,,,,,,3770.1277535930276,3770.6415914967656,3770.624904099852,3770.624904099852,3771.175730150193,3771.6762900426984,3771.6260629333556,3772.6304102428257,None,0,,0.6,,,,,,,,,,,s013,001,2024-07-24_14h52.17.189,simplestop_skeleton,2022.2.2,59.963618685599975,
None,None,,,,,,,,,1,0,1,0,6,2,26,2,,,,,,,,,3772.612256553024,go,squareblack.png,right,0.6,,,,,,,,,,,,,,,0.0013122707605361938,0.4895092137157917,,3775.1143418438733,test,2,,,,,,,,,,3772.6304102428257,3773.144361689687,3773.1276112645864,3773.1276112645864,3773.728413335979,3774.2288179583848,3774.128977522254,3775.1342138834298,right,1,1.1059529595077038,0.6,,,,,,,,,,,s013,001,2024-07-24_14h52.17.189,simplestop_skeleton,2022.2.2,59.963618685599975,
$currentCorrectResponse,$currentGoStim,,,,,,,,,1,0,1,0,6,3,27,0,,,,,,,,,3775.1147876270115,go,circleblack.png,left,0.6,,,,,,,,,,,,,,,0.00202222540974617,0.4895137920975685,,3777.617580976337,test,2,,,,,,,,,,3775.1342138834298,3775.6472450345755,3775.6305421814322,3775.6305421814322,3776.231319896877,3776.7315283305943,3776.630341745913,3777.636617962271,left,1,0.6100808046758175,0.6,,,,,,,,,,,s013,001,2024-07-24_14h52.17.189,simplestop_skeleton,2022.2.2,59.963618685599975,
None,None,,,,,,,,,1,0,1,0,7,0,28,1,,,,,,,,,3777.618024535477,go,circleblack.png,left,0.6,,,,,,,,,,,,,,,0.0014539621770381927,0.4894459992647171,,3780.120308108628,test,2,,,,,,,,,,3777.636617962271,3778.149829249829,3778.1332151181996,3778.1332151181996,3778.7339715473354,3779.234697327018,3779.1343094035983,3780.1393855661154,left,1,0.828434906899929,0.6,,,,,,,,,,,s013,001,2024-07-24_14h52.17.189,simplestop_skeleton,2022.2.2,59.963618685599975,
None,None,,,,,,,,,1,0,1,0,7,1,29,1,,,,,,,,,3780.12074316293,go,squareblack.png,right,0.6,,,,,,,,,,,,,,,0.0016254298388957977,0.4893667548894882,,3782.6226577572525,test,2,,,,,,,,,,3780.1393855661154,3780.6526852063835,3780.635971277952,3780.635971277952,3781.2366033047438,3781.736044809222,3781.637463402003,3782.6422606371343,right,1,0.7408980689942837,0.6,,,,,,,,,,,s013,001,2024-07-24_14h52.17.189,simplestop_skeleton,2022.2.2,59.963618685599975,
None,None,,,,,,,,,1,0,1,0,7,2,30,3,,,,,,,,,3782.6230899319053,stop,circleblack.png,left,0.6,,,,,,,,,,,,,,,0.0018329061567783356,0.4897700920701027,1.090105190873146,3785.1258385404944,test,2,,,,,,,,,,3782.6422606371343,3783.1554443091154,3783.138667985797,3783.138667985797,3783.7395072989166,3784.2398769557476,3784.140041537583,3785.1452281549573,None,0,,0.65,,,,,,,,,,,s013,001,2024-07-24_14h52.17.189,simplestop_skeleton,2022.2.2,59.963618685599975,
None,None,,,,,,,,,1,0,1,0,7,3,31,1,,,,,,,,,3785.1262655220926,stop,squareblack.png,right,0.65,,,,,,,,,,,,,,,0.0017681047320365906,0.4891097992658615,1.1399085186421871,3787.6285487264395,test,2,,,,,,,,,,3785.1452281549573,3785.6581905409694,3785.6416728794575,3785.6416728794575,3786.29224017635,3786.791493564844,3786.6426066979766,3787.647303521633,right,1,0.7658393010497093,0.6,,,,,,,,,,,s013,001,2024-07-24_14h52.17.189,simplestop_skeleton,2022.2.2,59.963618685599975,
$currentCorrectResponse,$currentGoStim,,,,,,,,,1,0,1,0,8,0,32,0,,,,,,,,,3787.628990087658,go,squareblack.png,right,0.6,,,,,,,,,,,,,,,0.0013125613331794739,0.48957904428243637,,3790.1305287256837,test,2,,,,,,,,,,3787.647303521633,3788.1609716676176,3788.1441084370017,3788.1441084370017,3788.7452017851174,3789.245656285435,3789.145420655608,3790.1486393772066,right,1,1.5859361477196217,0.6,,,,,,,,,,,s013,001,2024-07-24_14h52.17.189,simplestop_skeleton,2022.2.2,59.963618685599975,
None,None,,,,,,,,,1,0,1,0,8,1,33,3,,,,,,,,,3790.130977153778,stop,circleblack.png,left,0.6,,,,,,,,,,,,,,,0.0018459595739841461,0.49003833904862404,1.0905094891786575,3792.633835621178,test,2,,,,,,,,,,3790.1486393772066,3790.663732036948,3790.647018957883,3790.647018957883,3791.247571401298,3791.74677098915,3791.6480263620615,3792.653245616704,left,1,0.7182153835892677,0.55,,,,,,,,,,,s013,001,2024-07-24_14h52.17.189,simplestop_skeleton,2022.2.2,59.963618685599975,
None,None,,,,,,,,,1,0,1,0,8,2,34,3,,,,,,,,,3792.6342741958797,go,circleblack.png,left,0.55,,,,,,,,,,,,,,,0.0016721375286579132,0.489326898008585,,3795.136681124568,test,2,,,,,,,,,,3792.653245616704,3793.1665089055896,3793.1498718596995,3793.1498718596995,3793.7003996931016,3794.2005447894335,3794.1495147570968,3795.1564790681005,left,1,0.6295912303030491,0.55,,,,,,,,,,,s013,001,2024-07-24_14h52.17.189,simplestop_skeleton,2022.2.2,59.963618685599975,
None,None,,,,,,,,,1,0,1,0,8,3,35,1,,,,,,,,,3795.137121256441,go,squareblack.png,right,0.55,,,,,,,,,,,,,,,0.0025166943669319153,0.4890205189585686,,3797.639068968594,test,2,,,,,,,,,,3795.1564790681005,3795.6693087369204,3795.6527235135436,3795.6527235135436,3796.2030652947724,3796.7036300376058,3796.653740745038,3797.6597083322704,right,1,0.9486442320048809,0.55,,,,,,,,,,,s013,001,2024-07-24_14h52.17.189,simplestop_skeleton,2022.2.2,59.963618685599975,
None,None,,,,,,,,,1,0,1,0,9,0,36,1,,,,,,,,,3797.6395228132606,go,circleblack.png,left,0.55,,,,,,,,,,,,,,,0.0028301775455474854,0.488424863666296,,3800.1421600952744,test,2,,,,,,,,,,3797.6597083322704,3798.1711602695286,3798.154936544597,3798.154936544597,3798.7061150856316,3799.206441257149,3799.1562977209687,3800.160981480032,left,1,0.8846767619252205,0.55,,,,,,,,,,,s013,001,2024-07-24_14h52.17.189,simplestop_skeleton,2022.2.2,59.963618685599975,
None,None,,,,,,,,,1,0,1,0,9,1,37,2,,,,,,,,,3800.142601110041,go,circleblack.png,left,0.55,,,,,,,,,,,,,,,0.0013456791639328003,0.4896853528916836,,3802.6448806859553,test,2,,,,,,,,,,3800.160981480032,3800.6749417223036,3800.6581691130996,3800.6581691130996,3801.209014441818,3801.7094015553594,3801.659994646907,3802.6641232185066,left,1,0.862103670835495,0.55,,,,,,,,,,,s013,001,2024-07-24_14h52.17.189,simplestop_skeleton,2022.2.2,59.963618685599975,
None,None,,,,,,,,,1,0,1,0,9,2,38,3,,,,,,,,,3802.6453093625605,go,squareblack.png,right,0.55,,,,,,,,,,,,,,,0.0016783736646175385,0.4897194392979145,,3805.1475402079523,test,2,,,,,,,,,,3802.6641232185066,3803.177588302642,3803.160939902067,3803.160939902067,3803.7114745527506,3804.2121037840843,3804.1624478138983,3805.1660601347685,right,1,1.068779319524765,0.55,,,,,,,,,,,s013,001,2024-07-24_14h52.17.189,simplestop_skeleton,2022.2.2,59.963618685599975,
None,None,,,,,,,,,1,0,1,0,9,3,39,1,,,,,,,,,3805.147977333516,go,squareblack.png,right,0.55,,,,,,,,,,,,,,,0.0012310072779655457,0.4896847903728485,,3807.6502393186092,test,2,,,,,,,,,,3805.1660601347685,3805.6800828799605,3805.6634894944727,3805.6634894944727,3806.214174401015,3806.714288815856,3806.6639639250934,3807.669614661485,right,1,0.5184640996158123,0.55,,,,,,,,,,,s013,001,2024-07-24_14h52.17.189,simplestop_skeleton,2022.2.2,59.963618685599975,
None,None,,,,,,,,,1,0,1,0,10,0,40,3,,,,,,,,,3807.6506764665246,stop,circleblack.png,left,0.55,,,,,,,,,,,,,,,0.0018548965454101562,0.4899379014968872,1.0403079092502594,3810.1531140729785,test,2,,,,,,,,,,3807.669614661485,3808.182812154293,3808.1661647744477,3808.1661647744477,3808.7169509343803,3809.216028228402,3809.1661080121994,3810.1736927740276,left,1,0.6651342734694481,0.5,,,,,,,,,,,s013,001,2024-07-24_14h52.17.189,simplestop_skeleton,2022.2.2,59.963618685599975,
None,None,,,,,,,,,1,0,1,0,10,1,41,1,,,,,,,,,3810.153561796993,stop,circleblack.png,left,0.5,,,,,,,,,,,,,,,0.0022274143993854523,0.48852016776800156,0.9890984930098057,3812.6557452194393,test,2,,,,,,,,,,3810.1736927740276,3810.6857743375003,3810.6693954207003,3810.6693954207003,3811.169680390507,3811.6688187383115,3811.6688187383115,3812.674898825586,left,1,0.6667237430810928,0.45,,,,,,,,,,,s013,001,2024-07-24_14h52.17.189,simplestop_skeleton,2022.2.2,59.963618685599975,
None,None,,,,,,,,,1,0,1,0,10,2,42,2,,,,,,,,,3812.656179599464,stop,squareblack.png,right,0.45,,,,,,,,,,,,,,,0.0017505288124084473,0.49002091214060783,0.9403418600559235,3815.158769931644,test,2,,,,,,,,,,3812.674898825586,3813.188916541636,3813.171820938587,3813.171820938587,3813.622406002134,3814.122168879956,3814.172983713448,3815.177515976131,right,1,0.4721785821020603,0.4,,,,,,,,,,,s013,001,2024-07-24_14h52.17.189,simplestop_skeleton,2022.2.2,59.963618685599975,
None,None,,,,,,,,,1,0,1,0,10,3,43,1,,,,,,,,,3815.159210294485,go,squareblack.png,right,0.4,,,,,,,,,,,,,,,0.0012998692691326141,0.48991670832037926,,3817.661780241877,test,2,,,,,,,,,,3815.177515976131,3815.6914717406034,3815.6748399548233,3815.6748399548233,3816.07526287809,3816.5756466947496,3816.675825059414,3817.681101564318,right,1,0.806017279624939,0.4,,,,,,,,,,,s013,001,2024-07-24_14h52.17.189,simplestop_skeleton,2022.2.2,59.963618685599975,
None,None,,,,,,,,,1,0,1,0,11,0,44,2,,,,,,,,,3817.6622293442488,go,circleblack.png,left,0.4,,,,,,,,,,,,,,,0.0019552595913410187,0.48960935324430466,,3820.164112009108,test,2,,,,,,,,,,3817.681101564318,3818.1941519901156,3818.177672997117,3818.177672997117,3818.577931135893,3819.0790783129632,3819.1784315891564,3820.1833938136697,left,1,0.8848843015730381,0.4,,,,,,,,,,,s013,001,2024-07-24_14h52.17.189,simplestop_skeleton,2022.2.2,59.963618685599975,
None,None,,,,,,,,,1,0,1,0,11,1,45,2,,,,,,,,,3820.1645503006876,go,squareblack.png,right,0.4,,,,,,,,,,,,,,,0.0016986429691314697,0.48999181017279625,,3822.6668841168284,test,2,,,,,,,,,,3820.1833938136697,3820.697068002075,3820.6802064478397,3820.6802064478397,3821.0806885026395,3821.581339675933,3821.681654691696,3822.686511337757,right,1,1.0893478505313396,0.4,,,,,,,,,,,s013,001,2024-07-24_14h52.17.189,simplestop_skeleton,2022.2.2,59.963618685599975,
None,None,,,,,,,,,1,0,1,0,11,2,46,2,,,,,,,,,3822.667331356555,go,circleblack.png,left,0.4,,,,,,,,,,,,,,,0.0017551518976688385,0.4896647743880749,,3825.1698939464986,test,2,,,,,,,,,,3822.686511337757,3823.1997291073203,3823.182868707925,3823.182868707925,3823.5835776776075,3824.0840218029916,3824.184198882431,3825.1890830658376,left,1,0.7147308997809887,0.4,,,,,,,,,,,s013,001,2024-07-24_14h52.17.189,simplestop_skeleton,2022.2.2,59.963618685599975,
$currentCorrectResponse,$currentGoStim,,,,,,,,,1,0,1,0,11,3,47,0,,,,,,,,,3825.170333124697,stop,squareblack.png,right,0.4,,,,,,,,,,,,,,,0.0016561374068260193,0.48953480646014214,0.889871709048748,3827.672826793045,test,2,,,,,,,,,,3825.1890830658376,3825.702220417559,3825.685836263001,3825.685836263001,3826.086107637733,3826.586710587144,3826.6867940090597,3827.6887479387224,None,0,,0.45,,,,,,,,,,,s013,001,2024-07-24_14h52.17.189,simplestop_skeleton,2022.2.2,59.963618685599975,
,,,,,,,,,,1,0,1,0,,,,,,,,,,,,,,,,,,,,,,,,,,,,,,,,,,,,,,,,,,,,,,,,,,,,,,,,,,,3827.6887479387224,3827.6887479387224,return,"[{'fileName': 'circleblack.png', 'correct_response': 'left', 'condition': 'go'}, {'fileName': 'circleblack.png', 'correct_response': 'left', 'condition': 'go'}, {'fileName': 'circleblack.png', 'correct_response': 'left', 'condition': 'stop'}, {'fileName': 'squareblack.png', 'correct_response': 'right', 'condition': 'go'}, {'fileName': 'squareblack.png', 'correct_response': 'right', 'condition': 'go'}, {'fileName': 'squareblack.png', 'correct_response': 'right', 'condition': 'stop'}, {'fileName': 'circleblack.png', 'correct_response': 'left', 'condition': 'go'}, {'fileName': 'squareblack.png', 'correct_response': 'right', 'condition': 'stop'}, {'fileName': 'circleblack.png', 'correct_response': 'left', 'condition': 'stop'}, {'fileName': 'squareblack.png', 'correct_response': 'right', 'condition': 'go'}, {'fileName': 'circleblack.png', 'correct_response': 'left', 'condition': 'go'}, {'fileName': 'squareblack.png', 'correct_response': 'right', 'condition': 'go'}, {'fileName': 'squareblack.png', 'correct_response': 'right', 'condition': 'go'}, {'fileName': 'squareblack.png', 'correct_response': 'right', 'condition': 'go'}, {'fileName': 'circleblack.png', 'correct_response': 'left', 'condition': 'stop'}, {'fileName': 'circleblack.png', 'correct_response': 'left', 'condition': 'stop'}, {'fileName': 'squareblack.png', 'correct_response': 'right', 'condition': 'go'}, {'fileName': 'squareblack.png', 'correct_response': 'right', 'condition': 'go'}, {'fileName': 'circleblack.png', 'correct_response': 'left', 'condition': 'go'}, {'fileName': 'circleblack.png', 'correct_response': 'left', 'condition': 'go'}, {'fileName': 'squareblack.png', 'correct_response': 'right', 'condition': 'stop'}, {'fileName': 'circleblack.png', 'correct_response': 'left', 'condition': 'go'}, {'fileName': 'circleblack.png', 'correct_response': 'left', 'condition': 'go'}, {'fileName': 'squareblack.png', 'correct_response': 'right', 'condition': 'stop'}, {'fileName': 'squareblack.png', 'correct_response': 'right', 'condition': 'stop'}, {'fileName': 'squareblack.png', 'correct_response': 'right', 'condition': 'go'}, {'fileName': 'squareblack.png', 'correct_response': 'right', 'condition': 'stop'}, {'fileName': 'squareblack.png', 'correct_response': 'right', 'condition': 'go'}, {'fileName': 'circleblack.png', 'correct_response': 'left', 'condition': 'go'}, {'fileName': 'circleblack.png', 'correct_response': 'left', 'condition': 'go'}, {'fileName': 'circleblack.png', 'correct_response': 'left', 'condition': 'stop'}, {'fileName': 'circleblack.png', 'correct_response': 'left', 'condition': 'stop'}, {'fileName': 'circleblack.png', 'correct_response': 'left', 'condition': 'go'}, {'fileName': 'circleblack.png', 'correct_response': 'left', 'condition': 'go'}, {'fileName': 'squareblack.png', 'correct_response': 'right', 'condition': 'go'}, {'fileName': 'squareblack.png', 'correct_response': 'right', 'condition': 'go'}, {'fileName': 'circleblack.png', 'correct_response': 'left', 'condition': 'go'}, {'fileName': 'squareblack.png', 'correct_response': 'right', 'condition': 'stop'}, {'fileName': 'squareblack.png', 'correct_response': 'right', 'condition': 'go'}, {'fileName': 'circleblack.png', 'correct_response': 'left', 'condition': 'go'}, {'fileName': 'squareblack.png', 'correct_response': 'right', 'condition': 'go'}, {'fileName': 'squareblack.png', 'correct_response': 'right', 'condition': 'go'}, {'fileName': 'circleblack.png', 'correct_response': 'left', 'condition': 'go'}, {'fileName': 'squareblack.png', 'correct_response': 'right', 'condition': 'go'}, {'fileName': 'squareblack.png', 'correct_response': 'right', 'condition': 'stop'}, {'fileName': 'circleblack.png', 'correct_response': 'left', 'condition': 'stop'}, {'fileName': 'circleblack.png', 'correct_response': 'left', 'condition': 'go'}, {'fileName': 'circleblack.png', 'correct_response': 'left', 'condition': 'stop'}]",8.420679487287998,,,,,,s013,001,2024-07-24_14h52.17.189,simplestop_skeleton,2022.2.2,59.963618685599975,
None,None,,,,,,,,,2,0,2,0,0,0,0,1,,,,,,,,,3836.131442192942,go,circleblack.png,left,0.45,,,,,,,,,,,,,,,0.0019094981253147125,0.49048979952931404,,3838.6344853639603,test,3,,,,,,,,,,3836.1508127115667,3836.664643507451,3836.647682964802,3836.647682964802,3837.09841767326,3837.59879232198,3837.648871175945,3838.6536380648613,left,1,0.6126363649964333,0.45,,,,,,,,,,,s013,001,2024-07-24_14h52.17.189,simplestop_skeleton,2022.2.2,59.963618685599975,
None,None,,,,,,,,,2,0,2,0,0,1,1,3,,,,,,,,,3838.635021995753,go,circleblack.png,left,0.45,,,,,,,,,,,,,,,0.0014054886996746063,0.48967575281858444,,3841.1373590528965,test,3,,,,,,,,,,3838.6536380648613,3839.1673478856683,3839.1507704481483,3839.1507704481483,3839.6010611988604,3840.1003455631435,3840.15112227574,3841.1562857553363,left,1,0.5597669966518879,0.45,,,,,,,,,,,s013,001,2024-07-24_14h52.17.189,simplestop_skeleton,2022.2.2,59.963618685599975,
None,None,,,,,,,,,2,0,2,0,0,2,2,3,,,,,,,,,3841.1377879083157,stop,circleblack.png,left,0.45,,,,,,,,,,,,,,,0.001397542655467987,0.4897284656763077,0.94042744114995,3843.640321921557,test,3,,,,,,,,,,3841.1562857553363,3841.6699831970036,3841.6535411290824,3841.6535411290824,3842.1038373187184,3842.603337138891,3842.6540236622095,3843.664597414434,left,1,0.5478193014860153,0.4,,,,,,,,,,,s013,001,2024-07-24_14h52.17.189,simplestop_skeleton,2022.2.2,59.963618685599975,
None,None,,,,,,,,,2,0,2,0,0,3,3,1,,,,,,,,,3843.640760689974,go,squareblack.png,right,0.4,,,,,,,,,,,,,,,0.007428348064422607,0.4894767962396145,,3846.1427524127066,test,3,,,,,,,,,,3843.664597414434,3844.1728650443256,3844.1561065278947,3844.1561065278947,3844.5567548684776,3845.0573505200446,3845.157274518162,3846.161479946226,right,1,1.0435172319412231,0.4,,,,,,,,,,,s013,001,2024-07-24_14h52.17.189,simplestop_skeleton,2022.2.2,59.963618685599975,
$currentCorrectResponse,$currentGoStim,,,,,,,,,2,0,2,0,1,0,4,0,,,,,,,,,3846.143199618906,go,squareblack.png,right,0.4,,,,,,,,,,,,,,,0.001257631927728653,0.48988455161452293,,3848.6455777324736,test,3,,,,,,,,,,3846.161479946226,3846.6756277121603,3846.6588821411133,3846.6588821411133,3847.0594050697982,3847.5600025355816,3847.6599034182727,3848.6674046181142,right,1,0.893393162637949,0.4,,,,,,,,,,,s013,001,2024-07-24_14h52.17.189,simplestop_skeleton,2022.2.2,59.963618685599975,
None,None,,,,,,,,,2,0,2,0,1,1,5,1,,,,,,,,,3848.6460140161216,stop,squareblack.png,right,0.4,,,,,,,,,,,,,,,0.001223929226398468,0.48605016618967056,0.8864743448793888,3851.1481395810843,test,3,,,,,,,,,,3848.6674046181142,3849.1783177666366,3849.1614768728614,3849.1614768728614,3849.5619540028274,3850.0623262524605,3850.1625775396824,3851.167522318661,None,0,,0.45,,,,,,,,,,,s013,001,2024-07-24_14h52.17.189,simplestop_skeleton,2022.2.2,59.963618685599975,
None,None,,,,,,,,,2,0,2,0,1,2,6,2,,,,,,,,,3851.1485742367804,go,circleblack.png,left,0.45,,,,,,,,,,,,,,,0.001916404813528061,0.48968495056033134,,3853.650990527123,test,3,,,,,,,,,,3851.167522318661,3851.6808384917676,3851.6641341410577,3851.6641341410577,3852.1147207655013,3852.6153486818075,3852.6639342308044,3853.670288577676,left,1,0.6850155182182789,0.45,,,,,,,,,,,s013,001,2024-07-24_14h52.17.189,simplestop_skeleton,2022.2.2,59.963618685599975,
None,None,,,,,,,,,2,0,2,0,1,3,7,2,,,,,,,,,3853.6514347195625,stop,squareblack.png,right,0.45,,,,,,,,,,,,,,,0.0017626136541366577,0.48945391550660133,0.9399611949920654,3856.154006816447,test,3,,,,,,,,,,3853.670288577676,3854.183696296066,3854.167084850371,3854.167084850371,3854.617580026388,3855.118021223694,3855.168111924082,3856.1731908991933,None,0,,0.5,,,,,,,,,,,s013,001,2024-07-24_14h52.17.189,simplestop_skeleton,2022.2.2,59.963618685599975,
None,None,,,,,,,,,2,0,2,0,2,0,8,1,,,,,,,,,3856.154441971332,stop,circleblack.png,left,0.5,,,,,,,,,,,,,,,0.0016377829015254974,0.4895975887775421,0.9904720298945904,3858.656929180026,test,3,,,,,,,,,,3856.1731908991933,3856.6866399645805,3856.6700206138194,3856.6700206138194,3857.170408230275,3857.6696391552687,3857.6696391552687,3858.676049821079,left,1,0.6382174454629421,0.45,,,,,,,,,,,s013,001,2024-07-24_14h52.17.189,simplestop_skeleton,2022.2.2,59.963618685599975,
None,None,,,,,,,,,2,0,2,0,2,1,9,1,,,,,,,,,3858.6573652997613,go,squareblack.png,right,0.45,,,,,,,,,,,,,,,0.0017294436693191528,0.48938167095184326,,3861.159161783755,test,3,,,,,,,,,,3858.676049821079,3859.189304020256,3859.1726960092783,3859.1726960092783,3859.6232353560627,3860.1238153614104,3860.173783496022,3861.178635176271,right,1,0.7535458989441395,0.45,,,,,,,,,,,s013,001,2024-07-24_14h52.17.189,simplestop_skeleton,2022.2.2,59.963618685599975,
None,None,,,,,,,,,2,0,2,0,2,2,10,2,,,,,,,,,3861.159592386335,go,circleblack.png,left,0.45,,,,,,,,,,,,,,,0.0018370486795902252,0.4895622991025448,,3863.6621121689677,test,3,,,,,,,,,,3861.178635176271,3861.6919135563076,3861.6752912811935,3861.6752912811935,3862.125746447593,3862.6249622814357,3862.6751115582883,3863.681401822716,left,1,0.6197637543082237,0.45,,,,,,,,,,,s013,001,2024-07-24_14h52.17.189,simplestop_skeleton,2022.2.2,59.963618685599975,
$currentCorrectResponse,$currentGoStim,,,,,,,,,2,0,2,0,2,3,11,0,,,,,,,,,3863.662548493594,go,squareblack.png,right,0.45,,,,,,,,,,,,,,,0.0017031840980052948,0.48980868607759476,,3866.1649092137814,test,3,,,,,,,,,,3863.681401822716,3864.1948038227856,3864.178332466632,3864.178332466632,3864.6287082992494,3865.129093132913,3865.1791873909533,3866.1837070845068,right,1,0.8180082067847252,0.45,,,,,,,,,,,s013,001,2024-07-24_14h52.17.189,simplestop_skeleton,2022.2.2,59.963618685599975,
$currentCorrectResponse,$currentGoStim,,,,,,,,,2,0,2,0,3,0,12,0,,,,,,,,,3866.1653447523713,go,squareblack.png,right,0.45,,,,,,,,,,,,,,,0.0013195499777793884,0.4899865798652172,,3868.66787391901,test,3,,,,,,,,,,3866.1837070845068,3866.6975117884576,3866.680943559855,3866.680943559855,3867.1316510736942,3867.632070865482,3867.6822807379067,3868.6866927556694,right,1,0.8439252488315105,0.45,,,,,,,,,,,s013,001,2024-07-24_14h52.17.189,simplestop_skeleton,2022.2.2,59.963618685599975,
$currentCorrectResponse,$currentGoStim,,,,,,,,,2,0,2,0,3,1,13,0,,,,,,,,,3868.6683284677565,go,squareblack.png,right,0.45,,,,,,,,,,,,,,,0.0013138428330421448,0.4894927367568016,,3871.1702800542116,test,3,,,,,,,,,,3868.6866927556694,3869.2003533430398,3869.1837605424225,3869.1837605424225,3869.634303845465,3870.1346963196993,3870.184753779322,3871.189569979906,right,1,0.8315268903970718,0.45,,,,,,,,,,,s013,001,2024-07-24_14h52.17.189,simplestop_skeleton,2022.2.2,59.963618685599975,
None,None,,,,,,,,,2,0,2,0,3,2,14,1,,,,,,,,,3871.170714817941,stop,circleblack.png,left,0.45,,,,,,,,,,,,,,,0.001822587102651596,0.4896183982491493,0.9403968937695026,3873.672887582332,test,3,,,,,,,,,,3871.189569979906,3871.702989920974,3871.686359450221,3871.686359450221,3872.1368556916714,3872.637240625918,3872.687302879989,3873.6913460865617,None,0,,0.5,,,,,,,,,,,s013,001,2024-07-24_14h52.17.189,simplestop_skeleton,2022.2.2,59.963618685599975,
None,None,,,,,,,,,2,0,2,0,3,3,15,3,,,,,,,,,3873.6733197383583,stop,circleblack.png,left,0.5,,,,,,,,,,,,,,,0.0012571997940540314,0.4898632578551769,0.9904264025390148,3876.1757977344096,test,3,,,,,,,,,,3873.6913460865617,3874.205743663013,3874.1890363134444,3874.1890363134444,3874.689547814429,3875.1900815069675,3875.1900815069675,3876.1949170157313,None,0,,0.55,,,,,,,,,,,s013,001,2024-07-24_14h52.17.189,simplestop_skeleton,2022.2.2,59.963618685599975,
None,None,,,,,,,,,2,0,2,0,4,0,16,3,,,,,,,,,3876.1762257814407,go,squareblack.png,right,0.55,,,,,,,,,,,,,,,0.0016817040741443634,0.48984479904174805,,3878.678635906428,test,3,,,,,,,,,,3876.1949170157313,3876.7086797319353,3876.6919526979327,3876.6919526979327,3877.2427132874727,3877.741989362985,3877.692966006696,3878.697516180575,right,1,0.7559238821268082,0.55,,,,,,,,,,,s013,001,2024-07-24_14h52.17.189,simplestop_skeleton,2022.2.2,59.963618685599975,
None,None,,,,,,,,,2,0,2,0,4,1,17,2,,,,,,,,,3878.6790715567768,go,squareblack.png,right,0.55,,,,,,,,,,,,,,,0.0012207739055156708,0.48976506665349007,,3881.1815166398883,test,3,,,,,,,,,,3878.697516180575,3879.211378585547,3879.194698661566,3879.194698661566,3879.745404534042,3880.24585147202,3880.1957684606314,3881.200994398445,right,1,0.7575980834662914,0.55,,,,,,,,,,,s013,001,2024-07-24_14h52.17.189,simplestop_skeleton,2022.2.2,59.963618685599975,
None,None,,,,,,,,,2,0,2,0,4,2,18,1,,,,,,,,,3881.1819442994893,go,circleblack.png,left,0.55,,,,,,,,,,,,,,,0.002054218202829361,0.4895050711929798,,3883.684311386198,test,3,,,,,,,,,,3881.200994398445,3881.7140923403203,3881.697805326432,3881.697805326432,3882.248169925064,3882.7486186921597,3882.6987011134624,3883.7033515162766,left,1,0.8129338100552559,0.55,,,,,,,,,,,s013,001,2024-07-24_14h52.17.189,simplestop_skeleton,2022.2.2,59.963618685599975,
None,None,,,,,,,,,2,0,2,0,4,3,19,1,,,,,,,,,3883.6847424283624,go,circleblack.png,left,0.55,,,,,,,,,,,,,,,0.0014018788933753967,0.48976313695311546,,3886.1868886575103,test,3,,,,,,,,,,3883.7033515162766,3884.2168095186353,3884.200388684869,3884.200388684869,3884.7510915137827,3885.251535590738,3885.2013718299568,3886.2058683633804,left,1,0.8618201054632664,0.55,,,,,,,,,,,s013,001,2024-07-24_14h52.17.189,simplestop_skeleton,2022.2.2,59.963618685599975,
$currentCorrectResponse,$currentGoStim,,,,,,,,,2,0,2,0,5,0,20,0,,,,,,,,,3886.187330774963,stop,squareblack.png,right,0.55,,,,,,,,,,,,,,,0.0016367286443710327,0.48994022607803345,1.0406031049787998,3888.689853463322,test,3,,,,,,,,,,3886.2058683633804,3886.7197498865426,3886.7029765620828,3886.7029765620828,3887.2537601292133,3887.754090245813,3887.7041222713888,3888.7092095017433,None,0,,0.6,,,,,,,,,,,s013,001,2024-07-24_14h52.17.189,simplestop_skeleton,2022.2.2,59.963618685599975,
None,None,,,,,,,,,2,0,2,0,5,1,21,2,,,,,,,,,3888.6902915909886,go,circleblack.png,left,0.6,,,,,,,,,,,,,,,0.0018874481320381165,0.489422794431448,,3891.1925415731966,test,3,,,,,,,,,,3888.7092095017433,3889.2223570644855,3889.2057708203793,3889.2057708203793,3889.8062696903944,3890.306819010526,3890.205729600042,3891.211403068155,left,1,0.6852013356983662,0.6,,,,,,,,,,,s013,001,2024-07-24_14h52.17.189,simplestop_skeleton,2022.2.2,59.963618685599975,
None,None,,,,,,,,,2,0,2,0,5,2,22,2,,,,,,,,,3891.1930320821702,go,circleblack.png,left,0.6,,,,,,,,,,,,,,,0.0013780631124973297,0.4895313233137131,,3893.695335250348,test,3,,,,,,,,,,3891.211403068155,3891.7252024412155,3891.708711847663,3891.708711847663,3892.3091429546475,3892.8096509091556,3892.709574293345,3893.714944820851,left,1,0.9615300707519054,0.6,,,,,,,,,,,s013,001,2024-07-24_14h52.17.189,simplestop_skeleton,2022.2.2,59.963618685599975,
None,None,,,,,,,,,2,0,2,0,5,3,23,3,,,,,,,,,3893.695774756372,stop,squareblack.png,right,0.6,,,,,,,,,,,,,,,0.0017445720732212067,0.4894685670733452,1.0899743027985096,3896.198049634695,test,3,,,,,,,,,,3893.714944820851,3894.2280162498355,3894.2112687788904,3894.2112687788904,3894.811843343079,3895.31134435907,3895.2125106081367,3896.2165913544595,right,1,0.7367382235825062,0.55,,,,,,,,,,,s013,001,2024-07-24_14h52.17.189,simplestop_skeleton,2022.2.2,59.963618685599975,
None,None,,,,,,,,,2,0,2,0,6,0,24,3,,,,,,,,,3896.1984901577234,stop,squareblack.png,right,0.55,,,,,,,,,,,,,,,0.0012206844985485077,0.48979688808321953,1.0401397049427032,3898.7007327899337,test,3,,,,,,,,,,3896.2165913544595,3896.7307422161102,3896.7141101658344,3896.7141101658344,3897.2649012878537,3897.765858888626,3897.715215317905,3898.7193223536015,None,0,,0.6,,,,,,,,,,,s013,001,2024-07-24_14h52.17.189,simplestop_skeleton,2022.2.2,59.963618685599975,
None,None,,,,,,,,,2,0,2,0,6,1,25,1,,,,,,,,,3898.7011798135936,go,squareblack.png,right,0.6,,,,,,,,,,,,,,,0.0011792220175266266,0.48982057720422745,,3901.203396435827,test,3,,,,,,,,,,3898.7193223536015,3899.233582600951,3899.2168185152113,3899.2168185152113,3899.8174318000674,3900.3180568404496,3900.21793236956,3901.222283001989,right,1,0.9099232479929924,0.6,,,,,,,,,,,s013,001,2024-07-24_14h52.17.189,simplestop_skeleton,2022.2.2,59.963618685599975,
$currentCorrectResponse,$currentGoStim,,,,,,,,,2,0,2,0,6,2,26,0,,,,,,,,,3901.2038288116455,stop,squareblack.png,right,0.6,,,,,,,,,,,,,,,0.0012012757360935211,0.489868625998497,1.0905423313379288,3903.706315472722,test,3,,,,,,,,,,3901.222283001989,3901.736290961504,3901.719589512795,3901.719589512795,3902.3203616179526,3902.8198372907937,3902.7219948396087,3903.725423950702,right,1,0.5481031313538551,0.55,,,,,,,,,,,s013,001,2024-07-24_14h52.17.189,simplestop_skeleton,2022.2.2,59.963618685599975,
$currentCorrectResponse,$currentGoStim,,,,,,,,,2,0,2,0,6,3,27,0,,,,,,,,,3903.7067456804216,go,squareblack.png,right,0.55,,,,,,,,,,,,,,,0.0013254731893539429,0.48951227217912674,,3906.2088073045015,test,3,,,,,,,,,,3903.725423950702,3904.238837957382,3904.2222857810557,3904.2222857810557,3904.7730372697115,3905.289084739983,3905.2233936414123,3906.229479148984,right,1,0.7172866836190224,0.55,,,,,,,,,,,s013,001,2024-07-24_14h52.17.189,simplestop_skeleton,2022.2.2,59.963618685599975,
None,None,,,,,,,,,2,0,2,0,7,0,28,3,,,,,,,,,3906.2092378661036,go,circleblack.png,left,0.55,,,,,,,,,,,,,,,0.004015754908323288,0.4897395446896553,,3908.7114521563053,test,3,,,,,,,,,,3906.229479148984,3906.7416984550655,3906.725133765489,3906.725133765489,3907.2755001597106,3907.776091724634,3907.7265504933894,3908.7308982238173,left,1,0.8108071237802505,0.55,,,,,,,,,,,s013,001,2024-07-24_14h52.17.189,simplestop_skeleton,2022.2.2,59.963618685599975,
None,None,,,,,,,,,2,0,2,0,7,1,29,2,,,,,,,,,3908.7118752487004,go,circleblack.png,left,0.55,,,,,,,,,,,,,,,0.001406542956829071,0.4898892715573311,,3911.2146089076996,test,3,,,,,,,,,,3908.7308982238173,3909.244663350284,3909.2278669066727,3909.2278669066727,3909.7783851847053,3910.2788590863347,3910.228902347386,3911.233387351036,left,1,0.9186265915632248,0.55,,,,,,,,,,,s013,001,2024-07-24_14h52.17.189,simplestop_skeleton,2022.2.2,59.963618685599975,
$currentCorrectResponse,$currentGoStim,,,,,,,,,2,0,2,0,7,2,30,0,,,,,,,,,3911.215058118105,stop,circleblack.png,left,0.55,,,,,,,,,,,,,,,0.0013743862509727478,0.4894964173436165,1.0400274991989136,3913.717087712139,test,3,,,,,,,,,,3911.233387351036,3911.747100532055,3911.730475921184,3911.730475921184,3912.2811682000756,3912.781566452235,3912.731475468725,3913.735774345696,None,0,,0.6,,,,,,,,,,,s013,001,2024-07-24_14h52.17.189,simplestop_skeleton,2022.2.2,59.963618685599975,
None,None,,,,,,,,,2,0,2,0,7,3,31,1,,,,,,,,,3913.717530027032,stop,circleblack.png,left,0.6,,,,,,,,,,,,,,,0.0012552887201309204,0.48971347138285637,1.0904610082507133,3916.220211084932,test,3,,,,,,,,,,3913.735774345696,3914.2501396015286,3914.23312073946,3914.23312073946,3914.8339398279786,3915.333644952625,3915.2335857078433,3916.239003393799,None,0,,0.65,,,,,,,,,,,s013,001,2024-07-24_14h52.17.189,simplestop_skeleton,2022.2.2,59.963618685599975,
$currentCorrectResponse,$currentGoStim,,,,,,,,,2,0,2,0,8,0,32,0,,,,,,,,,3916.220653165132,go,circleblack.png,left,0.65,,,,,,,,,,,,,,,0.001459561288356781,0.4896174259483814,,3918.723006054759,test,3,,,,,,,,,,3916.239003393799,3916.752750635147,3916.7362581864,3916.7362581864,3917.3868873640895,3917.887433178723,3917.737344443798,3918.7419443689287,left,1,0.9719692319631577,0.65,,,,,,,,,,,s013,001,2024-07-24_14h52.17.189,simplestop_skeleton,2022.2.2,59.963618685599975,
None,None,,,,,,,,,2,0,2,0,8,1,33,2,,,,,,,,,3918.723438385874,go,circleblack.png,left,0.65,,,,,,,,,,,,,,,0.001394897699356079,0.4897362142801285,,3921.225406035781,test,3,,,,,,,,,,3918.7419443689287,3919.255903866142,3919.2388459667563,3919.2388459667563,3919.8896878808737,3920.3896451070905,3920.2394251152873,3921.249708350748,left,1,0.7941145710647106,0.65,,,,,,,,,,,s013,001,2024-07-24_14h52.17.189,simplestop_skeleton,2022.2.2,59.963618685599975,
None,None,,,,,,,,,2,0,2,0,8,2,34,1,,,,,,,,,3921.2258326523006,go,squareblack.png,right,0.65,,,,,,,,,,,,,,,0.0074063315987586975,0.4899776913225651,,3923.728527646512,test,3,,,,,,,,,,3921.249708350748,3921.7582955546677,3921.7417831495404,3921.7417831495404,3922.392262917012,3922.8928202092648,3922.742785040289,3923.747064843774,right,1,0.8632446080446243,0.65,,,,,,,,,,,s013,001,2024-07-24_14h52.17.189,simplestop_skeleton,2022.2.2,59.963618685599975,
$currentCorrectResponse,$currentGoStim,,,,,,,,,2,0,2,0,8,3,35,0,,,,,,,,,3923.7289570122957,go,squareblack.png,right,0.65,,,,,,,,,,,,,,,0.0012135133147239685,0.4897700548171997,,3926.2309809811413,test,3,,,,,,,,,,3923.747064843774,3924.260975934565,3924.244382441044,3924.244382441044,3924.8951663039625,3925.395626425743,3925.245485190302,3926.250359144062,right,1,0.8596914745867252,0.65,,,,,,,,,,,s013,001,2024-07-24_14h52.17.189,simplestop_skeleton,2022.2.2,59.963618685599975,
None,None,,,,,,,,,2,0,2,0,9,0,36,1,,,,,,,,,3926.2314194478095,go,circleblack.png,left,0.65,,,,,,,,,,,,,,,0.0019352436065673828,0.4898800477385521,,3928.733936097473,test,3,,,,,,,,,,3926.250359144062,3926.763800904155,3926.746937341988,3926.746937341988,3927.3976781889796,3927.8982889316976,3927.7481957376003,3928.753050081432,left,1,0.9076560400426388,0.65,,,,,,,,,,,s013,001,2024-07-24_14h52.17.189,simplestop_skeleton,2022.2.2,59.963618685599975,
$currentCorrectResponse,$currentGoStim,,,,,,,,,2,0,2,0,9,1,37,0,,,,,,,,,3928.734379723668,stop,squareblack.png,right,0.65,,,,,,,,,,,,,,,0.0016617998480796814,0.4895636551082134,1.1402165442705154,3931.236957229674,test,3,,,,,,,,,,3928.753050081432,3929.2663849927485,3929.2497749887407,3929.2497749887407,3929.9003930836916,3930.401067148894,3930.251018486917,3931.2557567693293,None,0,,0.7,,,,,,,,,,,s013,001,2024-07-24_14h52.17.189,simplestop_skeleton,2022.2.2,59.963618685599975,
None,None,,,,,,,,,2,0,2,0,9,2,38,2,,,,,,,,,3931.237388499081,go,squareblack.png,right,0.7,,,,,,,,,,,,,,,0.0013355538249015808,0.48940515890717506,,3933.7395436279476,test,3,,,,,,,,,,3931.2557567693293,3931.769420467317,3931.7526531480253,3931.7526531480253,3932.4538344070315,3932.953910496086,3932.7538546174765,3933.7590082511306,right,1,0.7316654175519943,0.7,,,,,,,,,,,s013,001,2024-07-24_14h52.17.189,simplestop_skeleton,2022.2.2,59.963618685599975,
None,None,,,,,,,,,2,0,2,0,9,3,39,3,,,,,,,,,3933.7399892285466,go,circleblack.png,left,0.7,,,,,,,,,,,,,,,0.002003386616706848,0.4897691495716572,,3936.2421577237546,test,3,,,,,,,,,,3933.7590082511306,3934.2723273560405,3934.2555030211806,3934.2555030211806,3934.9562400728464,3935.455494131893,3935.2567691355944,3936.261343307793,left,1,0.7952102608978748,0.7,,,,,,,,,,,s013,001,2024-07-24_14h52.17.189,simplestop_skeleton,2022.2.2,59.963618685599975,
None,None,,,,,,,,,2,0,2,0,10,0,40,3,,,,,,,,,3936.2426053211093,go,squareblack.png,right,0.7,,,,,,,,,,,,,,,0.0016318485140800476,0.4897591844201088,,3938.7449635267258,test,3,,,,,,,,,,3936.261343307793,3936.7751441188157,3936.7581507116556,3936.7581507116556,3937.4589820466936,3937.9596698991954,3937.7592716366053,3938.763211414218,None,0,,0.7,,,,,,,,,,,s013,001,2024-07-24_14h52.17.189,simplestop_skeleton,2022.2.2,59.963618685599975,
$currentCorrectResponse,$currentGoStim,,,,,,,,,2,0,2,0,10,1,41,0,,,,,,,,,3938.745400905609,go,squareblack.png,right,0.7,,,,,,,,,,,,,,,0.0011754706501960754,0.48985034972429276,,3941.2479412592947,test,3,,,,,,,,,,3938.763211414218,3939.2779113166034,3939.261449921876,3939.261449921876,3939.961759738624,3940.4617753736675,3940.260687239468,3941.267544604838,right,1,0.5729123502969742,0.7,,,,,,,,,,,s013,001,2024-07-24_14h52.17.189,simplestop_skeleton,2022.2.2,59.963618685599975,
None,None,,,,,,,,,2,0,2,0,10,2,42,3,,,,,,,,,3941.248378481716,go,circleblack.png,left,0.7,,,,,,,,,,,,,,,0.001926429569721222,0.489288542419672,,3943.750562891364,test,3,,,,,,,,,,3941.267544604838,3941.7804130129516,3941.763883572072,3941.763883572072,3942.464559957385,3942.9647016115487,3942.764930739999,3943.769649680704,left,1,0.750297199934721,0.7,,,,,,,,,,,s013,001,2024-07-24_14h52.17.189,simplestop_skeleton,2022.2.2,59.963618685599975,
None,None,,,,,,,,,2,0,2,0,10,3,43,2,,,,,,,,,3943.7510041221976,go,squareblack.png,right,0.7,,,,,,,,,,,,,,,0.0017007850110530853,0.4896075390279293,,3946.253035631031,test,3,,,,,,,,,,3943.769649680704,3944.283139243722,3944.2664810568094,3944.2664810568094,3944.967459280044,3945.484569184482,3945.267631575465,3946.2706927359104,right,1,0.7850491628050804,0.7,,,,,,,,,,,s013,001,2024-07-24_14h52.17.189,simplestop_skeleton,2022.2.2,59.963618685599975,
None,None,,,,,,,,,2,0,2,0,11,0,44,2,,,,,,,,,3946.25347321108,stop,squareblack.png,right,0.7,,,,,,,,,,,,,,,0.0011804215610027313,0.4897673465311527,1.1905935555696487,3948.7558425068855,test,3,,,,,,,,,,3946.2706927359104,3946.785859655589,3946.7691087648273,3946.7691087648273,3947.47006001696,3947.9690704271197,3947.770201999694,3948.776589475572,None,0,,0.75,,,,,,,,,,,s013,001,2024-07-24_14h52.17.189,simplestop_skeleton,2022.2.2,59.963618685599975,
None,None,,,,,,,,,2,0,2,0,11,1,45,3,,,,,,,,,3948.7562686167657,stop,circleblack.png,left,0.75,,,,,,,,,,,,,,,0.0020678751170635223,0.48936301097273827,1.240230232477188,3951.2585602886975,test,3,,,,,,,,,,3948.776589475572,3949.2886667363346,3949.271911509335,3949.271911509335,3950.023230407387,3950.522841963917,3950.273049622774,3951.277649562806,left,1,0.7502039670944214,0.7,,,,,,,,,,,s013,001,2024-07-24_14h52.17.189,simplestop_skeleton,2022.2.2,59.963618685599975,
None,None,,,,,,,,,2,0,2,0,11,2,46,2,,,,,,,,,3951.2589969821274,go,circleblack.png,left,0.7,,,,,,,,,,,,,,,0.0013705864548683167,0.4895259290933609,,3953.761652108282,test,3,,,,,,,,,,3951.277649562806,3951.7913333438337,3951.7746642827988,3951.7746642827988,3952.475373953581,3952.976457476616,3952.7757064327598,3953.7804432101548,left,1,1.0768883787095547,0.7,,,,,,,,,,,s013,001,2024-07-24_14h52.17.189,simplestop_skeleton,2022.2.2,59.963618685599975,
None,None,,,,,,,,,2,0,2,0,11,3,47,3,,,,,,,,,3953.76209218055,stop,circleblack.png,left,0.7,,,,,,,,,,,,,,,0.001321651041507721,0.48946208134293556,1.1911038160324097,3956.264336384833,test,3,,,,,,,,,,3953.7804432101548,3954.2940704226494,3954.2775284200907,3954.2775284200907,3954.979071881622,3955.4782857075334,3955.2772932574153,3956.2796910330653,left,1,0.6780748181045055,0.65,,,,,,,,,,,s013,001,2024-07-24_14h52.17.189,simplestop_skeleton,2022.2.2,59.963618685599975,
