corrGoResp,shape,practiceBlocks.thisRepN,practiceBlocks.thisTrialN,practiceBlocks.thisN,practiceBlocks.thisIndex,practiceTrials.thisRepN,practiceTrials.thisTrialN,practiceTrials.thisN,practiceTrials.thisIndex,stopBlocks.thisRepN,stopBlocks.thisTrialN,stopBlocks.thisN,stopBlocks.thisIndex,testTrials.thisRepN,testTrials.thisTrialN,testTrials.thisN,testTrials.thisIndex,stopPracTrialList,Test Block: 1,welcome.started,start_exp.started,start_exp.keys,start_exp.rt,instrStopText.started,start_prac.started,StartTrialTimeStamp,trialType,goStim,correctResponse,ssd,fixation.started,rules.started,goStim.started,goResp.started,fixation.stopped,stopSignal.started,stopSignal.stopped,goStim.stopped,goResp.stopped,rules.stopped,goResp.keys,goResp.corr,goResp.rt,text.started,rules_2.started,fixationOnset,goStimOnset,stopSignalOnset,EndTrialTimeStamp,Phase,Block,text.stopped,rules_2.stopped,text_5.started,key_resp_3.started,key_resp_3.keys,key_resp_3.rt,key_resp.started,testText.started,test_fixation.started,goStim_test.started,goResp_test.started,test_fixation.stopped,stopSignal_test.started,stopSignal_test.stopped,goStim_test.stopped,goResp_test.stopped,goResp_test.keys,goResp_test.corr,EndingSSD,goResp_test.rt,text_6.started,key_resp_4.started,key_resp_4.keys,key_resp_4.rt,Test Block: 2,Test Block: 3,ending_text.started,end_resp.started,end_resp.keys,end_resp.rt,participant,session,date,expName,psychopyVersion,frameRate,
,,,,,,,,,,,,,,,,,,"[{'fileName': 'squareblack.png', 'correct_response': 'right', 'condition': 'go'}, {'fileName': 'squareblack.png', 'correct_response': 'right', 'condition': 'stop'}, {'fileName': 'squareblack.png', 'correct_response': 'right', 'condition': 'go'}, {'fileName': 'squareblack.png', 'correct_response': 'right', 'condition': 'stop'}, {'fileName': 'squareblack.png', 'correct_response': 'right', 'condition': 'go'}, {'fileName': 'circleblack.png', 'correct_response': 'left', 'condition': 'go'}, {'fileName': 'circleblack.png', 'correct_response': 'left', 'condition': 'go'}, {'fileName': 'squareblack.png', 'correct_response': 'right', 'condition': 'go'}, {'fileName': 'circleblack.png', 'correct_response': 'left', 'condition': 'stop'}, {'fileName': 'circleblack.png', 'correct_response': 'left', 'condition': 'stop'}, {'fileName': 'circleblack.png', 'correct_response': 'left', 'condition': 'go'}, {'fileName': 'circleblack.png', 'correct_response': 'left', 'condition': 'go'}, {'fileName': 'squareblack.png', 'correct_response': 'right', 'condition': 'stop'}, {'fileName': 'circleblack.png', 'correct_response': 'left', 'condition': 'stop'}, {'fileName': 'squareblack.png', 'correct_response': 'right', 'condition': 'stop'}, {'fileName': 'circleblack.png', 'correct_response': 'left', 'condition': 'go'}, {'fileName': 'squareblack.png', 'correct_response': 'right', 'condition': 'go'}, {'fileName': 'circleblack.png', 'correct_response': 'left', 'condition': 'stop'}, {'fileName': 'circleblack.png', 'correct_response': 'left', 'condition': 'go'}, {'fileName': 'squareblack.png', 'correct_response': 'right', 'condition': 'go'}, {'fileName': 'squareblack.png', 'correct_response': 'right', 'condition': 'go'}, {'fileName': 'squareblack.png', 'correct_response': 'right', 'condition': 'go'}, {'fileName': 'circleblack.png', 'correct_response': 'left', 'condition': 'go'}, {'fileName': 'circleblack.png', 'correct_response': 'left', 'condition': 'go'}]","[{'fileName': 'squareblack.png', 'correct_response': 'right', 'condition': 'stop'}, {'fileName': 'circleblack.png', 'correct_response': 'left', 'condition': 'go'}, {'fileName': 'circleblack.png', 'correct_response': 'left', 'condition': 'go'}, {'fileName': 'circleblack.png', 'correct_response': 'left', 'condition': 'stop'}, {'fileName': 'circleblack.png', 'correct_response': 'left', 'condition': 'stop'}, {'fileName': 'squareblack.png', 'correct_response': 'right', 'condition': 'stop'}, {'fileName': 'circleblack.png', 'correct_response': 'left', 'condition': 'go'}, {'fileName': 'squareblack.png', 'correct_response': 'right', 'condition': 'go'}, {'fileName': 'squareblack.png', 'correct_response': 'right', 'condition': 'go'}, {'fileName': 'squareblack.png', 'correct_response': 'right', 'condition': 'go'}, {'fileName': 'circleblack.png', 'correct_response': 'left', 'condition': 'go'}, {'fileName': 'squareblack.png', 'correct_response': 'right', 'condition': 'go'}, {'fileName': 'circleblack.png', 'correct_response': 'left', 'condition': 'stop'}, {'fileName': 'squareblack.png', 'correct_response': 'right', 'condition': 'go'}, {'fileName': 'circleblack.png', 'correct_response': 'left', 'condition': 'stop'}, {'fileName': 'circleblack.png', 'correct_response': 'left', 'condition': 'go'}, {'fileName': 'circleblack.png', 'correct_response': 'left', 'condition': 'go'}, {'fileName': 'circleblack.png', 'correct_response': 'left', 'condition': 'go'}, {'fileName': 'squareblack.png', 'correct_response': 'right', 'condition': 'go'}, {'fileName': 'squareblack.png', 'correct_response': 'right', 'condition': 'stop'}, {'fileName': 'squareblack.png', 'correct_response': 'right', 'condition': 'stop'}, {'fileName': 'squareblack.png', 'correct_response': 'right', 'condition': 'go'}, {'fileName': 'squareblack.png', 'correct_response': 'right', 'condition': 'go'}, {'fileName': 'circleblack.png', 'correct_response': 'left', 'condition': 'go'}, {'fileName': 'circleblack.png', 'correct_response': 'left', 'condition': 'go'}, {'fileName': 'squareblack.png', 'correct_response': 'right', 'condition': 'stop'}, {'fileName': 'squareblack.png', 'correct_response': 'right', 'condition': 'go'}, {'fileName': 'squareblack.png', 'correct_response': 'right', 'condition': 'go'}, {'fileName': 'circleblack.png', 'correct_response': 'left', 'condition': 'go'}, {'fileName': 'circleblack.png', 'correct_response': 'left', 'condition': 'go'}, {'fileName': 'squareblack.png', 'correct_response': 'right', 'condition': 'go'}, {'fileName': 'circleblack.png', 'correct_response': 'left', 'condition': 'stop'}, {'fileName': 'squareblack.png', 'correct_response': 'right', 'condition': 'go'}, {'fileName': 'circleblack.png', 'correct_response': 'left', 'condition': 'go'}, {'fileName': 'squareblack.png', 'correct_response': 'right', 'condition': 'stop'}, {'fileName': 'circleblack.png', 'correct_response': 'left', 'condition': 'stop'}, {'fileName': 'squareblack.png', 'correct_response': 'right', 'condition': 'go'}, {'fileName': 'circleblack.png', 'correct_response': 'left', 'condition': 'go'}, {'fileName': 'squareblack.png', 'correct_response': 'right', 'condition': 'stop'}, {'fileName': 'circleblack.png', 'correct_response': 'left', 'condition': 'stop'}, {'fileName': 'squareblack.png', 'correct_response': 'right', 'condition': 'go'}, {'fileName': 'squareblack.png', 'correct_response': 'right', 'condition': 'go'}, {'fileName': 'circleblack.png', 'correct_response': 'left', 'condition': 'go'}, {'fileName': 'circleblack.png', 'correct_response': 'left', 'condition': 'go'}, {'fileName': 'circleblack.png', 'correct_response': 'left', 'condition': 'go'}, {'fileName': 'squareblack.png', 'correct_response': 'right', 'condition': 'stop'}, {'fileName': 'squareblack.png', 'correct_response': 'right', 'condition': 'go'}, {'fileName': 'circleblack.png', 'correct_response': 'left', 'condition': 'stop'}]",287.76720548421144,287.76720548421144,return,3.1680288277566433,,,,,,,,,,,,,,,,,,,,,,,,,,,,,,,,,,,,,,,,,,,,,,,,,,,,,,,,,,,s020,001,2024-07-26_09h12.18.085,simplestop_skeleton,2022.2.2,59.096570216440334,
None,None,0,0,0,0,0,0,0,2,,,,,,,,,,,,,,,290.9807473383844,290.9807473383844,350.3238115012646,go,squareblack.png,right,0.35,350.3446619287133,350.3446619287133,350.8392506837845,350.8392506837845,350.8560259491205,351.18994634225965,351.6900087222457,351.8403334990144,352.84125346690416,352.8580239377916,right,1,0.6734966896474361,352.8580239377916,352.8580239377916,0.002733413130044937,0.48940790072083473,0.8394395895302296,353.3430223427713,practice,1,,,,,,,,,,,,,,,,,,,,,,,,,,,,,,,s020,001,2024-07-26_09h12.18.085,simplestop_skeleton,2022.2.2,59.096570216440334,
None,None,0,0,0,0,0,1,1,3,,,,,,,,,,,,,,,,,353.34355663880706,stop,squareblack.png,right,0.35,353.3627530746162,353.3627530746162,353.8593543805182,353.8593543805182,353.87621919438243,354.2080373093486,354.70859821513295,354.86077596992254,355.86130233854055,355.8782613426447,right,1,0.678954403847456,355.8782613426447,355.8782613426447,0.0012255869805812836,0.48997004330158234,0.8386475890874863,356.3629147596657,practice,1,356.38325356319547,356.38325356319547,,,,,,,,,,,,,,,,,,,,,,,,,,,,,s020,001,2024-07-26_09h12.18.085,simplestop_skeleton,2022.2.2,59.096570216440334,
$currentCorrectResponse,$currentGoStim,0,0,0,0,0,2,2,0,,,,,,,,,,,,,,,,,356.3633402213454,go,squareblack.png,right,0.3,356.38325356319547,356.38325356319547,356.87922182679176,356.87922182679176,356.895876288414,357.179548420012,357.6786316856742,357.87903797626495,358.8812512382865,358.89822229743004,right,1,0.49663129821419716,358.89822229743004,358.89822229743004,0.0015769042074680328,0.48939476162195206,0.7895876206457615,359.38267847523093,practice,1,,,,,,,,,,,,,,,,,,,,,,,,,,,,,,,s020,001,2024-07-26_09h12.18.085,simplestop_skeleton,2022.2.2,59.096570216440334,
$currentCorrectResponse,$currentGoStim,0,0,0,0,0,3,3,0,,,,,,,,,,,,,,,,,359.38310693204403,stop,squareblack.png,right,0.3,359.402296975255,359.402296975255,359.8990801163018,359.8990801163018,359.915891405195,360.19943995028734,360.69851514697075,360.89891405403614,361.9012626633048,361.91798524931073,right,1,0.38864464685320854,361.91798524931073,361.91798524931073,0.001224219799041748,0.4899896942079067,0.7903687730431557,362.40281407907605,practice,1,362.4224924631417,362.4224924631417,,,,,,,,,,,,,,,,,,,,,,,,,,,,,s020,001,2024-07-26_09h12.18.085,simplestop_skeleton,2022.2.2,59.096570216440334,
None,None,0,0,0,0,1,0,4,2,,,,,,,,,,,,,,,,,362.4032602533698,go,squareblack.png,right,0.25,362.4224924631417,362.4224924631417,362.91918225586414,362.91918225586414,362.9357025809586,363.16926865279675,363.6686932705343,363.91929784044623,364.9215447753668,364.938014741987,right,1,0.46753768622875214,364.938014741987,364.938014741987,0.0011862590909004211,0.4898146949708462,0.7402985356748104,365.4230050332844,practice,1,365.4482963643968,365.4482963643968,,,,,,,,,,,,,,,,,,,,,,,,,,,,,s020,001,2024-07-26_09h12.18.085,simplestop_skeleton,2022.2.2,59.096570216440334,
None,None,0,0,0,0,1,1,5,1,,,,,,,,,,,,,,,,,365.4234287440777,go,circleblack.png,left,0.25,365.4482963643968,365.4482963643968,365.93945714458823,365.93945714458823,365.9558614268899,366.1892939656973,366.68850757181644,366.93874640762806,367.94129760563374,367.9581101536751,left,1,0.35222820192575455,367.9581101536751,367.9581101536751,0.008060209453105927,0.4899528920650482,0.7401850186288357,368.4427858181298,practice,1,368.4621363580227,368.4621363580227,,,,,,,,,,,,,,,,,,,,,,,,,,,,,s020,001,2024-07-26_09h12.18.085,simplestop_skeleton,2022.2.2,59.096570216440334,
None,None,0,0,0,0,1,2,6,1,,,,,,,,,,,,,,,,,368.44320937618613,go,circleblack.png,left,0.25,368.4621363580227,368.4621363580227,368.9597897157073,368.9597897157073,368.9756815060973,369.20951449126005,369.70850744098425,369.9588631093502,370.9611245431006,370.9611245431006,left,1,0.3850233778357506,370.9611245431006,370.9611245431006,0.0012579448521137238,0.49017033353447914,0.7402925118803978,371.4460613615811,practice,1,371.4661183319986,371.4661183319986,,,,,,,,,,,,,,,,,,,,,,,,,,,,,s020,001,2024-07-26_09h12.18.085,simplestop_skeleton,2022.2.2,59.096570216440334,
None,None,0,0,0,0,1,3,7,2,,,,,,,,,,,,,,,,,371.4464840590954,go,squareblack.png,right,0.25,371.4661183319986,371.4661183319986,371.9623680822551,371.9623680822551,371.9792181439698,372.21259143203497,372.71166687458754,372.9620211161673,373.96465783938766,373.9811727963388,right,1,0.348869226872921,373.9811727963388,373.9811727963388,0.0016833767294883728,0.48978570848703384,0.7400598414242268,374.4659301042557,practice,1,374.48598811402917,374.48598811402917,,,,,,,,,,,,,,,,,,,,,,,,,,,,,s020,001,2024-07-26_09h12.18.085,simplestop_skeleton,2022.2.2,59.096570216440334,
$currentCorrectResponse,$currentGoStim,0,0,0,0,2,0,8,0,,,,,,,,,,,,,,,,,374.46635619178414,stop,circleblack.png,left,0.25,374.48598811402917,374.48598811402917,374.9823154807091,374.9823154807091,374.9991481266916,375.2326874099672,375.73193748667836,375.9821259789169,376.9847368225455,377.00141518190503,left,1,0.3371123634278774,377.00141518190503,377.00141518190503,0.0017199330031871796,0.49003763124346733,0.7403097823262215,377.48620069399476,practice,1,377.5058419331908,377.5058419331908,,,,,,,,,,,,,,,,,,,,,,,,,,,,,s020,001,2024-07-26_09h12.18.085,simplestop_skeleton,2022.2.2,59.096570216440334,
$currentCorrectResponse,$currentGoStim,0,0,0,0,2,1,9,0,,,,,,,,,,,,,,,,,377.48663080111146,stop,circleblack.png,left,0.2,377.5058419331908,377.5058419331908,378.00254172459245,378.00254172459245,378.0193924345076,378.2026722431183,378.7017809301615,379.0020484775305,380.00464736297727,380.0212480314076,left,1,0.3360099159181118,380.0212480314076,380.0212480314076,0.0014074817299842834,0.4899049326777458,0.6900561787188053,380.5061201527715,practice,1,380.5259363986552,380.5259363986552,,,,,,,,,,,,,,,,,,,,,,,,,,,,,s020,001,2024-07-26_09h12.18.085,simplestop_skeleton,2022.2.2,59.096570216440334,
$currentCorrectResponse,$currentGoStim,0,0,0,0,2,2,10,0,,,,,,,,,,,,,,,,,380.5065386593342,go,circleblack.png,left,0.15,380.5259363986552,380.5259363986552,381.0223020128906,381.0223020128906,381.03894694149494,381.1725150644779,381.67314180359244,382.02223170921206,383.0244641713798,383.04137144610286,left,1,0.41770153120160103,383.04137144610286,383.04137144610286,0.0012771710753440857,0.4898821786046028,0.6401205658912659,383.52621391788125,practice,1,,,,,,,,,,,,,,,,,,,,,,,,,,,,,,,s020,001,2024-07-26_09h12.18.085,simplestop_skeleton,2022.2.2,59.096570216440334,
None,None,0,0,0,0,2,3,11,2,,,,,,,,,,,,,,,,,383.52665190026164,go,circleblack.png,left,0.15,383.5459212176502,383.5459212176502,384.0424672141671,384.0424672141671,384.0593378134072,384.1929586753249,384.70827950537205,385.0419985316694,386.0444448515773,386.06123293563724,left,1,0.3231569863855839,386.06123293563724,386.06123293563724,0.0014366358518600464,0.4899835102260113,0.6402635686099529,386.5459384061396,practice,1,386.5665838122368,386.5665838122368,,,,,,,,,,,,,,,,,,,,,,,,,,,,,s020,001,2024-07-26_09h12.18.085,simplestop_skeleton,2022.2.2,59.096570216440334,
None,None,0,0,0,0,3,0,12,2,,,,,,,,,,,,,,,,,386.5463550686836,stop,squareblack.png,right,0.15,386.5665838122368,386.5665838122368,387.06226954236627,387.06226954236627,387.0790683962405,387.2125258818269,387.711591809988,388.061935570091,389.0644436366856,389.0811130926013,right,1,0.3296806327998638,389.0811130926013,389.0811130926013,0.0023644454777240753,0.4899217076599598,0.6401538364589214,389.5659971572459,practice,1,389.5859371572733,389.5859371572733,,,,,,,,,,,,,,,,,,,,,,,,,,,,,s020,001,2024-07-26_09h12.18.085,simplestop_skeleton,2022.2.2,59.096570216440334,
None,None,0,0,0,0,3,1,13,1,,,,,,,,,,,,,,,,,389.56641206517816,stop,circleblack.png,left,0.1,389.5859371572733,389.5859371572733,390.0824785195291,390.0824785195291,390.09912606701255,390.1826820373535,390.68331940844655,391.08219853043556,392.0845062881708,392.1011583171785,left,1,0.3406761772930622,392.1011583171785,392.1011583171785,0.0018057674169540405,0.48986683040857315,0.590453140437603,392.5859980918467,practice,1,,,,,,,,,,,,,,,,,,,,,,,,,,,,,,,s020,001,2024-07-26_09h12.18.085,simplestop_skeleton,2022.2.2,59.096570216440334,
None,None,0,0,0,0,3,2,14,1,,,,,,,,,,,,,,,,,392.58641374856234,stop,squareblack.png,right,0.05,392.60581662505865,392.60581662505865,393.1023920290172,393.1023920290172,393.11904895305634,393.15275847911835,393.6529686152935,394.10342494398355,395.10461692884564,395.12114802747965,None,0,,395.12114802747965,395.12114802747965,0.0017927028238773346,0.49012450128793716,0.5400972776114941,395.60604341328144,practice,1,395.6261158362031,395.6261158362031,,,,,,,,,,,,,,,,,,,,,,,,,,,,,s020,001,2024-07-26_09h12.18.085,simplestop_skeleton,2022.2.2,59.096570216440334,
None,None,0,0,0,0,3,3,15,3,,,,,,,,,,,,,,,,,395.60646321997046,go,circleblack.png,left,0.1,395.6261158362031,395.6261158362031,396.12237426266074,396.12237426266074,396.1390945613384,396.2225033156574,396.72310223057866,397.12209155038,398.12448797002435,398.14158699288964,left,1,0.3576965555548668,398.14158699288964,398.14158699288964,0.0018396228551864624,0.4902104362845421,0.5902918353676796,398.6261689327657,practice,1,,,,,,,,,,,,,,,,,,,,,,,,,,,,,,,s020,001,2024-07-26_09h12.18.085,simplestop_skeleton,2022.2.2,59.096570216440334,
$currentCorrectResponse,$currentGoStim,0,0,0,0,4,0,16,0,,,,,,,,,,,,,,,,,398.6266086176038,go,squareblack.png,right,0.1,398.64628722146153,398.64628722146153,399.14272614941,399.14272614941,399.15907330438495,399.2425846680999,399.7431124635041,400.1421694420278,401.1444398611784,401.16141291707754,right,1,0.36146172508597374,401.16141291707754,401.16141291707754,0.0017342939972877502,0.48989661037921906,0.5904705412685871,401.6460539698601,practice,1,,,,,,,,,,,,,,,,,,,,,,,,,,,,,,,s020,001,2024-07-26_09h12.18.085,simplestop_skeleton,2022.2.2,59.096570216440334,
None,None,0,0,0,0,4,1,17,2,,,,,,,,,,,,,,,,,401.64646857231855,stop,circleblack.png,left,0.1,401.66598270460963,401.66598270460963,402.16221933066845,402.16221933066845,402.1791539005935,402.2623989544809,402.7630447857082,403.16327771544456,404.1645203270018,404.18133963271976,None,0,,404.18133963271976,404.18133963271976,0.0017703697085380554,0.490040622651577,0.5899274572730064,404.6660203449428,practice,1,404.68559631332755,404.68559631332755,,,,,,,,,,,,,,,,,,,,,,,,,,,,,s020,001,2024-07-26_09h12.18.085,simplestop_skeleton,2022.2.2,59.096570216440334,
None,None,0,0,0,0,4,2,18,1,,,,,,,,,,,,,,,,,404.66643880680203,go,circleblack.png,left,0.15,404.68559631332755,404.68559631332755,405.1826634891331,405.1826634891331,405.1991869881749,405.33262461423874,405.83328279852867,406.18225326761603,407.18487349525094,407.18487349525094,left,1,0.4921307638287544,407.18487349525094,407.18487349525094,0.001325506716966629,0.49008609354496,0.6403770633041859,407.6692471243441,practice,1,407.6895037703216,407.6895037703216,,,,,,,,,,,,,,,,,,,,,,,,,,,,,s020,001,2024-07-26_09h12.18.085,simplestop_skeleton,2022.2.2,59.096570216440334,
None,None,0,0,0,0,4,3,19,3,,,,,,,,,,,,,,,,,407.6696858033538,go,squareblack.png,right,0.15,407.6895037703216,407.6895037703216,408.1857566423714,408.1857566423714,408.20257657393813,408.33590023964643,408.83676782250404,409.1854712367058,410.18787862733006,410.2045033313334,right,1,0.5530312173068523,410.2045033313334,410.2045033313334,0.0017449744045734406,0.48984916880726814,0.6404784098267555,410.68957420811057,practice,1,,,,,,,,,,,,,,,,,,,,,,,,,,,,,,,s020,001,2024-07-26_09h12.18.085,simplestop_skeleton,2022.2.2,59.096570216440334,
None,None,0,0,0,0,5,0,20,1,,,,,,,,,,,,,,,,,410.690007802099,go,squareblack.png,right,0.15,410.70914774760604,410.70914774760604,411.205882884562,411.205882884562,411.2223911732435,411.3559811115265,411.8568355329335,412.2054317332804,413.20803279802203,413.22472037374973,right,1,0.5127376243472099,413.22472037374973,413.22472037374973,0.0011884421110153198,0.4900125451385975,0.6403182968497276,413.70955174043775,practice,1,,,,,,,,,,,,,,,,,,,,,,,,,,,,,,,s020,001,2024-07-26_09h12.18.085,simplestop_skeleton,2022.2.2,59.096570216440334,
None,None,0,0,0,0,5,1,21,3,,,,,,,,,,,,,,,,,413.7099770568311,go,squareblack.png,right,0.15,413.72926253825426,413.72926253825426,414.2257964424789,414.2257964424789,414.2423473931849,414.3757863789797,414.87650188058615,415.22541465982795,416.2278247512877,416.24436873942614,right,1,0.4951742850244045,416.24436873942614,416.24436873942614,0.0012447051703929901,0.4900779537856579,0.6399377137422562,416.72924645245075,practice,1,416.7555480413139,416.7555480413139,,,,,,,,,,,,,,,,,,,,,,,,,,,,,s020,001,2024-07-26_09h12.18.085,simplestop_skeleton,2022.2.2,59.096570216440334,
None,None,0,0,0,0,5,2,22,3,,,,,,,,,,,,,,,,,416.7296850681305,go,circleblack.png,left,0.15,416.7555480413139,416.7555480413139,417.2461045086384,417.2461045086384,417.262488540262,417.39571369439363,417.8949118964374,418.2453087903559,419.2477710209787,419.26433534547687,left,1,0.3937799744307995,419.26433534547687,419.26433534547687,0.008844714611768723,0.49059200659394264,0.6406022645533085,419.7492240741849,practice,1,419.7690037190914,419.7690037190914,,,,,,,,,,,,,,,,,,,,,,,,,,,,,s020,001,2024-07-26_09h12.18.085,simplestop_skeleton,2022.2.2,59.096570216440334,
None,None,0,0,0,0,5,3,23,3,,,,,,,,,,,,,,,,,419.7496602423489,go,circleblack.png,left,0.15,419.7690037190914,419.7690037190914,420.26607325673103,420.26607325673103,420.28249914199114,420.41602271422744,420.91494462639093,421.26540444791317,422.26795411482453,422.26795411482453,right,0,0.24977779015898705,422.26795411482453,422.26795411482453,0.0012535527348518372,0.4902624301612377,0.6405495032668114,422.75276336446404,practice,1,422.7706424854696,422.7706424854696,,,,,,,,,,,,,,,,,,,,,,,,,,,,,s020,001,2024-07-26_09h12.18.085,simplestop_skeleton,2022.2.2,59.096570216440334,
,,0,0,0,0,,,,,,,,,,,,,"[{'fileName': 'circleblack.png', 'correct_response': 'left', 'condition': 'go'}, {'fileName': 'circleblack.png', 'correct_response': 'left', 'condition': 'go'}, {'fileName': 'squareblack.png', 'correct_response': 'right', 'condition': 'go'}, {'fileName': 'squareblack.png', 'correct_response': 'right', 'condition': 'go'}, {'fileName': 'circleblack.png', 'correct_response': 'left', 'condition': 'stop'}, {'fileName': 'squareblack.png', 'correct_response': 'right', 'condition': 'stop'}, {'fileName': 'squareblack.png', 'correct_response': 'right', 'condition': 'stop'}, {'fileName': 'circleblack.png', 'correct_response': 'left', 'condition': 'go'}, {'fileName': 'squareblack.png', 'correct_response': 'right', 'condition': 'go'}, {'fileName': 'circleblack.png', 'correct_response': 'left', 'condition': 'stop'}, {'fileName': 'circleblack.png', 'correct_response': 'left', 'condition': 'go'}, {'fileName': 'squareblack.png', 'correct_response': 'right', 'condition': 'go'}, {'fileName': 'squareblack.png', 'correct_response': 'right', 'condition': 'go'}, {'fileName': 'squareblack.png', 'correct_response': 'right', 'condition': 'go'}, {'fileName': 'circleblack.png', 'correct_response': 'left', 'condition': 'go'}, {'fileName': 'circleblack.png', 'correct_response': 'left', 'condition': 'go'}, {'fileName': 'squareblack.png', 'correct_response': 'right', 'condition': 'stop'}, {'fileName': 'squareblack.png', 'correct_response': 'right', 'condition': 'stop'}, {'fileName': 'circleblack.png', 'correct_response': 'left', 'condition': 'go'}, {'fileName': 'circleblack.png', 'correct_response': 'left', 'condition': 'go'}, {'fileName': 'squareblack.png', 'correct_response': 'right', 'condition': 'go'}, {'fileName': 'squareblack.png', 'correct_response': 'right', 'condition': 'go'}, {'fileName': 'circleblack.png', 'correct_response': 'left', 'condition': 'stop'}, {'fileName': 'circleblack.png', 'correct_response': 'left', 'condition': 'stop'}]",,,,,,,,,,,,,,,,,,,,,,,,,,,,,,,,,,,,422.7706424854696,422.7706424854696,return,9.851273734122515,,,,,,,,,,,,,,,,,,,,,,,,,s020,001,2024-07-26_09h12.18.085,simplestop_skeleton,2022.2.2,59.096570216440334,
None,None,,,,,,,,,0,0,0,0,0,0,0,3,,,,,,,,,440.08790004998446,stop,squareblack.png,right,0.15,,,,,,,,,,,,,,,,0.0024275705218315125,0.4908331036567688,0.6409018896520138,442.5919775702059,test,1,,,,,,,432.64608442410827,432.64608442410827,440.10720559582114,440.6049497500062,440.6049497500062,440.6214226819575,440.7549372278154,441.25552412867546,441.6059127524495,442.6114920899272,None,0,0.2,,,,,,,,,,,,s020,001,2024-07-26_09h12.18.085,simplestop_skeleton,2022.2.2,59.096570216440334,
None,None,,,,,,,,,0,0,0,0,0,1,1,3,,,,,,,,,442.5925326868892,go,circleblack.png,left,0.2,,,,,,,,,,,,,,,,0.002507571130990982,0.48918209224939346,,445.09455217048526,test,1,,,,,,,,,442.6114920899272,443.1075903363526,443.1075903363526,443.1241316013038,443.3077864833176,443.8069932460785,444.107239946723,445.1134416908026,left,1,0.2,0.2936229109764099,,,,,,,,,,,s020,001,2024-07-26_09h12.18.085,simplestop_skeleton,2022.2.2,59.096570216440334,
$currentCorrectResponse,$currentGoStim,,,,,,,,,0,0,0,0,0,2,2,0,,,,,,,,,445.095027923584,go,circleblack.png,left,0.2,,,,,,,,,,,,,,,,0.0014164447784423828,0.4891403988003731,,447.5970044955611,test,1,,,,,,,,,445.1134416908026,445.6104719899595,445.6104719899595,445.62694343179464,445.8107093460858,446.31014627963305,446.60998042300344,447.61596393212676,left,1,0.2,0.3008946180343628,,,,,,,,,,,s020,001,2024-07-26_09h12.18.085,simplestop_skeleton,2022.2.2,59.096570216440334,
None,None,,,,,,,,,0,0,0,0,0,3,3,1,,,,,,,,,447.5975192114711,stop,circleblack.png,left,0.2,,,,,,,,,,,,,,,,0.0013586916029453278,0.48979000002145767,0.6898714974522591,450.09972842782736,test,1,,,,,,,,,447.61596393212676,448.1130641773343,448.1130641773343,448.1299163363874,448.31343721970916,448.82904137298465,449.1127736568451,450.11894695460796,left,1,0.15,0.29585736244916916,,,,,,,,,,,s020,001,2024-07-26_09h12.18.085,simplestop_skeleton,2022.2.2,59.096570216440334,
None,None,,,,,,,,,0,0,0,0,1,0,4,2,,,,,,,,,450.1001687683165,stop,circleblack.png,left,0.15,,,,,,,,,,,,,,,,0.0013863109052181244,0.4896067976951599,0.6401267424225807,452.6024784706533,test,1,,,,,,,,,450.11894695460796,450.6157658845186,450.6157658845186,450.632556989789,450.76572600379586,451.26632561162114,451.61689400300384,452.6267707236111,None,0,0.2,,,,,,,,,,,,s020,001,2024-07-26_09h12.18.085,simplestop_skeleton,2022.2.2,59.096570216440334,
None,None,,,,,,,,,0,0,0,0,1,1,5,2,,,,,,,,,452.60292310640216,stop,squareblack.png,right,0.2,,,,,,,,,,,,,,,,0.00739983469247818,0.49033305421471596,0.6902497559785843,455.1055825985968,test,1,,,,,,,,,452.6267707236111,453.11851127818227,453.11851127818227,453.1352978721261,453.31890738010406,453.8178841397166,454.11834540963173,455.12492306530476,right,1,0.15,0.3569580763578415,,,,,,,,,,,s020,001,2024-07-26_09h12.18.085,simplestop_skeleton,2022.2.2,59.096570216440334,
None,None,,,,,,,,,0,0,0,0,1,2,6,2,,,,,,,,,455.10604336857796,go,circleblack.png,left,0.15,,,,,,,,,,,,,,,,0.0019518285989761353,0.4893968962132931,,457.6078930348158,test,1,,,,,,,,,455.12492306530476,455.62169102579355,455.62169102579355,455.63826283439994,455.7714768201113,456.27053382247686,456.6221960633993,457.6273645982146,left,1,0.15,0.28919531777501106,,,,,,,,,,,s020,001,2024-07-26_09h12.18.085,simplestop_skeleton,2022.2.2,59.096570216440334,
$currentCorrectResponse,$currentGoStim,,,,,,,,,0,0,0,0,1,3,7,0,,,,,,,,,457.6083417311311,go,squareblack.png,right,0.15,,,,,,,,,,,,,,,,0.0017834380269050598,0.4895826503634453,,460.1107721365988,test,1,,,,,,,,,457.6273645982146,458.1239572055638,458.1239572055638,458.14069594070315,458.2834210023284,458.78990564867854,459.12364895269275,460.1295456588268,right,1,0.15,0.35795941576361656,,,,,,,,,,,s020,001,2024-07-26_09h12.18.085,simplestop_skeleton,2022.2.2,59.096570216440334,
None,None,,,,,,,,,0,0,0,0,2,0,8,1,,,,,,,,,460.111218996346,go,squareblack.png,right,0.15,,,,,,,,,,,,,,,,0.0011875107884407043,0.48971329629421234,,462.6136786080897,test,1,,,,,,,,,460.1295456588268,460.626750331372,460.626750331372,460.6433767527342,460.7769291512668,461.2760517299175,461.6265702135861,462.63238310441375,right,1,0.15,0.29992061853408813,,,,,,,,,,,s020,001,2024-07-26_09h12.18.085,simplestop_skeleton,2022.2.2,59.096570216440334,
None,None,,,,,,,,,0,0,0,0,2,1,9,2,,,,,,,,,462.61412723362446,go,squareblack.png,right,0.15,,,,,,,,,,,,,,,,0.0012307018041610718,0.489748053252697,,465.1164908222854,test,1,,,,,,,,,462.63238310441375,463.1295008137822,463.1295008137822,463.1462154313922,463.2798073887825,463.78024151548743,464.12944846600294,465.13688362389803,right,1,0.15,0.4657282270491123,,,,,,,,,,,s020,001,2024-07-26_09h12.18.085,simplestop_skeleton,2022.2.2,59.096570216440334,
None,None,,,,,,,,,0,0,0,0,2,2,10,1,,,,,,,,,465.1169250383973,go,circleblack.png,left,0.15,,,,,,,,,,,,,,,,0.002104148268699646,0.4893450662493706,,467.61914263293147,test,1,,,,,,,,,465.13688362389803,465.6323718652129,465.6323718652129,465.6489176303148,465.7824860587716,466.2830233499408,466.6321899369359,467.63820000365376,left,1,0.15,0.367682084441185,,,,,,,,,,,s020,001,2024-07-26_09h12.18.085,simplestop_skeleton,2022.2.2,59.096570216440334,
$currentCorrectResponse,$currentGoStim,,,,,,,,,0,0,0,0,2,3,11,0,,,,,,,,,467.61958726495504,go,squareblack.png,right,0.15,,,,,,,,,,,,,,,,0.0016591399908065796,0.4896829426288605,,470.12170320376754,test,1,,,,,,,,,467.63820000365376,468.1351642906666,468.1351642906666,468.1517041362822,468.28528079017997,468.78619988262653,469.13468182086945,470.1410638168454,right,1,0.15,0.49654415994882584,,,,,,,,,,,s020,001,2024-07-26_09h12.18.085,simplestop_skeleton,2022.2.2,59.096570216440334,
None,None,,,,,,,,,0,0,0,0,3,0,12,3,,,,,,,,,470.12214706093073,stop,circleblack.png,left,0.15,,,,,,,,,,,,,,,,0.0017464198172092438,0.48989496380090714,0.6407367438077927,472.6249252818525,test,1,,,,,,,,,470.1410638168454,470.63812632486224,470.63812632486224,470.65447825193405,470.7885966449976,471.30398128926754,471.63748521730304,472.64418413862586,left,1,0.1,0.31767532229423523,,,,,,,,,,,s020,001,2024-07-26_09h12.18.085,simplestop_skeleton,2022.2.2,59.096570216440334,
None,None,,,,,,,,,0,0,0,0,3,1,13,2,,,,,,,,,472.62536258250475,go,squareblack.png,right,0.1,,,,,,,,,,,,,,,,0.001840483397245407,0.48960912227630615,,475.12732073292136,test,1,,,,,,,,,472.64418413862586,473.1408052444458,473.1408052444458,473.15603710711,473.23932233825326,473.73977188393474,474.1411682590842,475.1464955471456,right,1,0.1,0.4009314365684986,,,,,,,,,,,s020,001,2024-07-26_09h12.18.085,simplestop_skeleton,2022.2.2,59.096570216440334,
None,None,,,,,,,,,0,0,0,0,3,2,14,2,,,,,,,,,475.12775525823236,stop,circleblack.png,left,0.1,,,,,,,,,,,,,,,,0.001713968813419342,0.4897901937365532,0.5900152325630188,477.63037203252316,test,1,,,,,,,,,475.1464955471456,475.64369409158826,475.64369409158826,475.6602658480406,475.74359941855073,476.2441012561321,476.64317796751857,477.64940022304654,left,1,0.05,0.34782499074935913,,,,,,,,,,,s020,001,2024-07-26_09h12.18.085,simplestop_skeleton,2022.2.2,59.096570216440334,
None,None,,,,,,,,,0,0,0,0,3,3,15,3,,,,,,,,,477.63081903383136,go,circleblack.png,left,0.05,,,,,,,,,,,,,,,,0.0013763494789600372,0.48977041617035866,,480.1332239918411,test,1,,,,,,,,,477.64940022304654,478.1462700329721,478.1462700329721,478.1632092744112,478.19646284356713,478.69717529043555,479.1462343893945,480.15243396535516,left,1,0.05,0.4345092624425888,,,,,,,,,,,s020,001,2024-07-26_09h12.18.085,simplestop_skeleton,2022.2.2,59.096570216440334,
None,None,,,,,,,,,0,0,0,0,4,0,16,1,,,,,,,,,480.1336732469499,go,circleblack.png,left,0.05,,,,,,,,,,,,,,,,0.0014498718082904816,0.4895581118762493,,482.63565120473504,test,1,,,,,,,,,480.15243396535516,480.6489265114069,480.6489265114069,480.6655521132052,480.6994269788265,481.1999245285988,481.6487618125975,482.6546926908195,right,0,0.05,0.3811258561909199,,,,,,,,,,,s020,001,2024-07-26_09h12.18.085,simplestop_skeleton,2022.2.2,59.096570216440334,
$currentCorrectResponse,$currentGoStim,,,,,,,,,0,0,0,0,4,1,17,0,,,,,,,,,482.63608418405056,go,circleblack.png,left,0.05,,,,,,,,,,,,,,,,0.001378323882818222,0.4896828308701515,,485.13839925453067,test,1,,,,,,,,,482.6546926908195,483.1517486460507,483.1517486460507,483.16886097192764,483.2019599825144,483.70091816037893,484.15135112404823,485.1573829986155,left,1,0.05,0.37318024411797523,,,,,,,,,,,s020,001,2024-07-26_09h12.18.085,simplestop_skeleton,2022.2.2,59.096570216440334,
None,None,,,,,,,,,0,0,0,0,4,2,18,3,,,,,,,,,485.13883797079325,go,squareblack.png,right,0.05,,,,,,,,,,,,,,,,0.0016819089651107788,0.4898267090320587,,487.6413053460419,test,1,,,,,,,,,485.1573829986155,485.65444534644485,485.65444534644485,485.67137952148914,485.7046846114099,486.20521073415875,486.6555465385318,487.6601408869028,right,1,0.05,0.3832845836877823,,,,,,,,,,,s020,001,2024-07-26_09h12.18.085,simplestop_skeleton,2022.2.2,59.096570216440334,
None,None,,,,,,,,,0,0,0,0,4,3,19,2,,,,,,,,,487.6417510062456,stop,squareblack.png,right,0.05,,,,,,,,,,,,,,,,0.0013711601495742798,0.48983147740364075,0.5398290529847145,490.1437451057136,test,1,,,,,,,,,487.6601408869028,488.1573523916304,488.1573523916304,488.17379666119814,488.20736622437835,488.7065755315125,489.1587626412511,490.1628461070359,None,0,0.1,,,,,,,,,,,,s020,001,2024-07-26_09h12.18.085,simplestop_skeleton,2022.2.2,59.096570216440334,
None,None,,,,,,,,,0,0,0,0,5,0,20,1,,,,,,,,,490.14438074827194,stop,squareblack.png,right,0.1,,,,,,,,,,,,,,,,0.001249510794878006,0.4896509163081646,0.5899035111069679,492.6468270011246,test,1,,,,,,,,,490.1628461070359,490.6603757105768,490.6603757105768,490.676547460258,490.76020200923085,491.2606375552714,491.65975984558463,492.6659405641258,right,1,0.05,0.34993088245391846,,,,,,,,,,,s020,001,2024-07-26_09h12.18.085,simplestop_skeleton,2022.2.2,59.096570216440334,
None,None,,,,,,,,,0,0,0,0,5,1,21,1,,,,,,,,,492.64733209460974,go,squareblack.png,right,0.05,,,,,,,,,,,,,,,,0.00134238600730896,0.4894118532538414,,495.1493564285338,test,1,,,,,,,,,492.6659405641258,493.16259330138564,493.16259330138564,493.1794101037085,493.21271051466465,493.71360164135695,494.1624386385083,495.1683414131403,right,1,0.05,0.3953124172985554,,,,,,,,,,,s020,001,2024-07-26_09h12.18.085,simplestop_skeleton,2022.2.2,59.096570216440334,
None,None,,,,,,,,,0,0,0,0,5,2,22,1,,,,,,,,,495.14979419112206,go,squareblack.png,right,0.05,,,,,,,,,,,,,,,,0.0013919509947299957,0.4895373061299324,,497.6524341851473,test,1,,,,,,,,,495.1683414131403,495.66605503484607,495.66605503484607,495.68231323733926,495.7157540805638,496.2162190377712,496.66528667509556,497.6775708682835,right,1,0.05,0.3210540860891342,,,,,,,,,,,s020,001,2024-07-26_09h12.18.085,simplestop_skeleton,2022.2.2,59.096570216440334,
None,None,,,,,,,,,0,0,0,0,5,3,23,2,,,,,,,,,497.65288051217794,go,circleblack.png,left,0.05,,,,,,,,,,,,,,,,0.008581176400184631,0.4897875152528286,,500.15538646280766,test,1,,,,,,,,,497.6775708682835,498.16841550171375,498.16841550171375,498.185112234205,498.2184352912009,498.7198152244091,499.16817075014114,500.1743510775268,left,1,0.05,0.26753755286335945,,,,,,,,,,,s020,001,2024-07-26_09h12.18.085,simplestop_skeleton,2022.2.2,59.096570216440334,
None,None,,,,,,,,,0,0,0,0,6,0,24,2,,,,,,,,,500.1558382809162,go,circleblack.png,left,0.05,,,,,,,,,,,,,,,,0.0013711228966712952,0.48951249942183495,,502.6667274311185,test,1,,,,,,,,,500.1743510775268,500.6717627234757,500.6717627234757,500.68789106607437,500.72162003442645,501.2205638810992,501.6730016991496,502.6899716220796,left,1,0.05,0.3211045451462269,,,,,,,,,,,s020,001,2024-07-26_09h12.18.085,simplestop_skeleton,2022.2.2,59.096570216440334,
None,None,,,,,,,,,0,0,0,0,6,1,25,1,,,,,,,,,502.66771264746785,stop,squareblack.png,right,0.05,,,,,,,,,,,,,,,,0.0018536671996116638,0.4945826008915901,0.5447209514677525,505.1777018234134,test,1,,,,,,,,,502.6899716220796,503.1904496476054,503.1904496476054,503.1904496476054,503.24060855433345,503.74119172617793,504.19022097438574,505.1963737793267,right,1,0.0,0.3521563373506069,,,,,,,,,,,s020,001,2024-07-26_09h12.18.085,simplestop_skeleton,2022.2.2,59.096570216440334,
$currentCorrectResponse,$currentGoStim,,,,,,,,,0,0,0,0,6,2,26,0,,,,,,,,,505.17813547328115,go,squareblack.png,right,0.0,,,,,,,,,,,,,,,,0.0013311542570590973,0.48971686884760857,,507.68004412949085,test,1,,,,,,,,,505.1963737793267,505.69330263510346,505.69330263510346,505.709809884429,505.69330263510346,506.19385634735227,506.6929913312197,507.6988665945828,right,1,0.0,0.33887216821312904,,,,,,,,,,,s020,001,2024-07-26_09h12.18.085,simplestop_skeleton,2022.2.2,59.096570216440334,
$currentCorrectResponse,$currentGoStim,,,,,,,,,0,0,0,0,6,3,27,0,,,,,,,,,507.68049393966794,go,squareblack.png,right,0.0,,,,,,,,,,,,,,,,0.001325901597738266,0.4898754395544529,,510.18308460339904,test,1,,,,,,,,,507.6988665945828,508.19637943431735,508.19637943431735,508.21297377347946,508.19637943431735,508.69666062295437,509.1958291120827,510.20281720906496,right,1,0.0,0.30219167098402977,,,,,,,,,,,s020,001,2024-07-26_09h12.18.085,simplestop_skeleton,2022.2.2,59.096570216440334,
None,None,,,,,,,,,0,0,0,0,7,0,28,3,,,,,,,,,510.18365728855133,go,circleblack.png,left,0.0,,,,,,,,,,,,,,,,0.0025634579360485077,0.48933497443795204,,512.6857830807567,test,1,,,,,,,,,510.20281720906496,510.6991082765162,510.6991082765162,510.7156295925379,510.6991082765162,511.19953994452953,511.69837799295783,512.7047727629542,left,1,0.0,0.2579762674868107,,,,,,,,,,,s020,001,2024-07-26_09h12.18.085,simplestop_skeleton,2022.2.2,59.096570216440334,
None,None,,,,,,,,,0,0,0,0,7,1,29,3,,,,,,,,,512.6862233169377,go,circleblack.png,left,0.0,,,,,,,,,,,,,,,,0.0014679469168186188,0.48939308151602745,,515.1881793215871,test,1,,,,,,,,,512.7047727629542,513.2014707252383,513.2014707252383,513.2182239443064,513.2014707252383,513.7021266743541,514.2013462111354,515.2072950080037,left,1,0.0,0.3221873790025711,,,,,,,,,,,s020,001,2024-07-26_09h12.18.085,simplestop_skeleton,2022.2.2,59.096570216440334,
None,None,,,,,,,,,0,0,0,0,7,2,30,1,,,,,,,,,515.1886135563254,go,squareblack.png,right,0.0,,,,,,,,,,,,,,,,0.001735195517539978,0.4896451383829117,,517.6910120584071,test,1,,,,,,,,,515.2072950080037,515.7043268308043,515.7043268308043,515.7210096865892,515.7043268308043,516.2046611346304,516.7039913199842,517.7102322503924,left,0,0.0,0.3212297074496746,,,,,,,,,,,s020,001,2024-07-26_09h12.18.085,simplestop_skeleton,2022.2.2,59.096570216440334,
$currentCorrectResponse,$currentGoStim,,,,,,,,,0,0,0,0,7,3,31,0,,,,,,,,,517.6914654001594,stop,circleblack.png,left,0.0,,,,,,,,,,,,,,,,0.0017428100109100342,0.4896940663456917,0.4896940663456917,520.1943046823144,test,1,,,,,,,,,517.7102322503924,518.2069554440677,518.2069554440677,518.2236208766699,518.2069554440677,518.7075512483716,519.2081592269242,520.2145277634263,None,0,0.05,,,,,,,,,,,,s020,001,2024-07-26_09h12.18.085,simplestop_skeleton,2022.2.2,59.096570216440334,
None,None,,,,,,,,,0,0,0,0,8,0,32,1,,,,,,,,,520.1947665065527,go,squareblack.png,right,0.05,,,,,,,,,,,,,,,,0.0023640692234039307,0.4890299588441849,,522.6967540681362,test,1,,,,,,,,,520.2145277634263,520.7096460238099,520.7096460238099,520.7265989556909,520.7602124474943,521.260946623981,521.7105289921165,522.717031057924,right,1,0.05,0.4228179529309273,,,,,,,,,,,s020,001,2024-07-26_09h12.18.085,simplestop_skeleton,2022.2.2,59.096570216440334,
None,None,,,,,,,,,0,0,0,0,8,1,33,2,,,,,,,,,522.6972054429352,go,circleblack.png,left,0.05,,,,,,,,,,,,,,,,0.0018584318459033966,0.4879257157444954,,525.1995109729469,test,1,,,,,,,,,522.717031057924,523.2111432477832,523.2111432477832,523.2278291359544,523.2611456401646,523.7616587951779,524.2137037776411,525.2190179340541,left,1,0.05,0.3482928201556206,,,,,,,,,,,s020,001,2024-07-26_09h12.18.085,simplestop_skeleton,2022.2.2,59.096570216440334,
$currentCorrectResponse,$currentGoStim,,,,,,,,,0,0,0,0,8,2,34,0,,,,,,,,,525.1999578624964,stop,squareblack.png,right,0.05,,,,,,,,,,,,,,,,0.0017539411783218384,0.48933421447873116,0.5393897891044617,527.7019291594625,test,1,,,,,,,,,525.2190179340541,525.715599950403,525.715599950403,525.7320706248283,525.7652310542762,526.2658646963537,526.716680303216,527.721099447459,None,0,0.1,,,,,,,,,,,,s020,001,2024-07-26_09h12.18.085,simplestop_skeleton,2022.2.2,59.096570216440334,
None,None,,,,,,,,,0,0,0,0,8,3,35,1,,,,,,,,,527.7023669928312,stop,circleblack.png,left,0.1,,,,,,,,,,,,,,,,0.0017129182815551758,0.48988523334264755,0.5900156609714031,530.2046412266791,test,1,,,,,,,,,527.721099447459,528.2180650644004,528.2180650644004,528.2347979694605,528.318330232054,528.8189564161003,529.2182275317609,530.2251929156482,left,1,0.05,0.3950442150235176,,,,,,,,,,,s020,001,2024-07-26_09h12.18.085,simplestop_skeleton,2022.2.2,59.096570216440334,
None,None,,,,,,,,,0,0,0,0,9,0,36,2,,,,,,,,,530.2050665989518,go,squareblack.png,right,0.05,,,,,,,,,,,,,,,,0.0026267729699611664,0.4891357682645321,,532.7077214196324,test,1,,,,,,,,,530.2251929156482,530.7210505381227,530.7210505381227,530.7376639991999,530.7710653282702,531.2715404443443,531.7206924594939,532.7275360748172,right,1,0.05,0.3420688547194004,,,,,,,,,,,s020,001,2024-07-26_09h12.18.085,simplestop_skeleton,2022.2.2,59.096570216440334,
None,None,,,,,,,,,0,0,0,0,9,1,37,3,,,,,,,,,532.7081615589559,go,circleblack.png,left,0.05,,,,,,,,,,,,,,,,0.0018719621002674103,0.48966802656650543,,535.2104953713715,test,1,,,,,,,,,532.7275360748172,533.223792694509,533.223792694509,533.2406375557184,533.2738056592643,533.7743409648538,534.2234175018966,535.2298776507378,left,1,0.05,0.34419191628694534,,,,,,,,,,,s020,001,2024-07-26_09h12.18.085,simplestop_skeleton,2022.2.2,59.096570216440334,
None,None,,,,,,,,,0,0,0,0,9,2,38,3,,,,,,,,,535.2109451070428,stop,squareblack.png,right,0.05,,,,,,,,,,,,,,,,0.0017930157482624054,0.48929357528686523,0.5392881892621517,537.7131475843489,test,1,,,,,,,,,535.2298776507378,535.7265022434294,535.7265022434294,535.7429046072066,535.7765567302704,536.2773370817304,536.7272748164833,537.7327860407531,None,0,0.1,,,,,,,,,,,,s020,001,2024-07-26_09h12.18.085,simplestop_skeleton,2022.2.2,59.096570216440334,
None,None,,,,,,,,,0,0,0,0,9,3,39,2,,,,,,,,,537.713578786701,stop,circleblack.png,left,0.1,,,,,,,,,,,,,,,,0.0018779449164867401,0.48959236592054367,0.5897198915481567,540.2156816087663,test,1,,,,,,,,,537.7327860407531,538.2290234081447,538.2290234081447,538.245796598494,538.3291537761688,538.8296826705337,539.2302044704556,540.2349247038364,None,0,0.15,,,,,,,,,,,,s020,001,2024-07-26_09h12.18.085,simplestop_skeleton,2022.2.2,59.096570216440334,
$currentCorrectResponse,$currentGoStim,,,,,,,,,0,0,0,0,10,0,40,0,,,,,,,,,540.2161208279431,go,squareblack.png,right,0.15,,,,,,,,,,,,,,,,0.0015781670808792114,0.48978544399142265,,542.7184501774609,test,1,,,,,,,,,540.2349247038364,540.7320459894836,540.7320459894836,540.7484324797988,540.8819864094257,541.3810134902596,541.7315669842064,542.7376539967954,right,1,0.15,0.33412160724401474,,,,,,,,,,,s020,001,2024-07-26_09h12.18.085,simplestop_skeleton,2022.2.2,59.096570216440334,
None,None,,,,,,,,,0,0,0,0,10,1,41,3,,,,,,,,,542.7188790813088,go,squareblack.png,right,0.15,,,,,,,,,,,,,,,,0.0013113990426063538,0.48987388983368874,,545.2213400751352,test,1,,,,,,,,,542.7376539967954,543.2346777282655,543.2346777282655,543.2514705620706,543.3847140595317,543.8853919357061,544.2342190109193,545.2410234585404,right,1,0.15,0.4177999086678028,,,,,,,,,,,s020,001,2024-07-26_09h12.18.085,simplestop_skeleton,2022.2.2,59.096570216440334,
$currentCorrectResponse,$currentGoStim,,,,,,,,,0,0,0,0,10,2,42,0,,,,,,,,,545.2217726744711,go,circleblack.png,left,0.15,,,,,,,,,,,,,,,,0.0019726604223251343,0.4897231385111809,,547.7245255149901,test,1,,,,,,,,,545.2410234585404,545.7374614663422,545.7374614663422,545.7542148530483,545.8878206834197,546.3882314935327,546.737275570631,547.7434608861804,left,1,0.15,0.36646227166056633,,,,,,,,,,,s020,001,2024-07-26_09h12.18.085,simplestop_skeleton,2022.2.2,59.096570216440334,
$currentCorrectResponse,$currentGoStim,,,,,,,,,0,0,0,0,10,3,43,0,,,,,,,,,547.7249650210142,go,circleblack.png,left,0.15,,,,,,,,,,,,,,,,0.00133601576089859,0.48944489285349846,,550.226952213794,test,1,,,,,,,,,547.7434608861804,548.2401646226645,548.2401646226645,548.2571288347244,548.3903578333557,548.8909901604056,549.2402813285589,550.2456996701658,left,1,0.15,0.38884709775447845,,,,,,,,,,,s020,001,2024-07-26_09h12.18.085,simplestop_skeleton,2022.2.2,59.096570216440334,
None,None,,,,,,,,,0,0,0,0,11,0,44,1,,,,,,,,,550.2273922897875,go,circleblack.png,left,0.15,,,,,,,,,,,,,,,,0.0013341568410396576,0.48969561234116554,,552.7293825000525,test,1,,,,,,,,,550.2456996701658,550.7428325563669,550.7428325563669,550.7594685293734,550.8930520042777,551.3935394622386,551.7432605698705,552.7488574683666,left,1,0.15,0.39302897825837135,,,,,,,,,,,s020,001,2024-07-26_09h12.18.085,simplestop_skeleton,2022.2.2,59.096570216440334,
$currentCorrectResponse,$currentGoStim,,,,,,,,,0,0,0,0,11,1,45,0,,,,,,,,,552.7298142164946,stop,squareblack.png,right,0.15,,,,,,,,,,,,,,,,0.0016261227428913116,0.48989204689860344,0.6399806663393974,555.2321212254465,test,1,,,,,,,,,552.7488574683666,553.2456790059805,553.2456790059805,553.262325707823,553.3957467004657,553.896315086633,554.2468091733754,555.2510660178959,None,0,0.2,,,,,,,,,,,,s020,001,2024-07-26_09h12.18.085,simplestop_skeleton,2022.2.2,59.096570216440334,
None,None,,,,,,,,,0,0,0,0,11,2,46,3,,,,,,,,,555.2325569093227,go,squareblack.png,right,0.2,,,,,,,,,,,,,,,,0.0011797882616519928,0.4898233413696289,,557.7352589145303,test,1,,,,,,,,,555.2510660178959,555.7485821396112,555.7485821396112,555.7650994732976,555.9486076124012,556.4478258900344,556.748827021569,557.7546723335981,right,1,0.2,0.37260907888412476,,,,,,,,,,,s020,001,2024-07-26_09h12.18.085,simplestop_skeleton,2022.2.2,59.096570216440334,
None,None,,,,,,,,,0,0,0,0,11,3,47,3,,,,,,,,,557.7356923893094,stop,circleblack.png,left,0.2,,,,,,,,,,,,,,,,0.0020556971430778503,0.4897722266614437,0.6899608820676804,560.2382571101189,test,1,,,,,,,,,557.7546723335981,558.2514490298927,558.2514490298927,558.2678014673293,558.451488122344,558.9506983608007,559.2513641826808,560.261137958616,left,1,0.15,0.32180996239185333,,,,,,,,,,,s020,001,2024-07-26_09h12.18.085,simplestop_skeleton,2022.2.2,59.096570216440334,
,,,,,,,,,,0,0,0,0,,,,,,"[{'fileName': 'squareblack.png', 'correct_response': 'right', 'condition': 'go'}, {'fileName': 'circleblack.png', 'correct_response': 'left', 'condition': 'go'}, {'fileName': 'squareblack.png', 'correct_response': 'right', 'condition': 'go'}, {'fileName': 'squareblack.png', 'correct_response': 'right', 'condition': 'go'}, {'fileName': 'squareblack.png', 'correct_response': 'right', 'condition': 'stop'}, {'fileName': 'circleblack.png', 'correct_response': 'left', 'condition': 'go'}, {'fileName': 'circleblack.png', 'correct_response': 'left', 'condition': 'go'}, {'fileName': 'circleblack.png', 'correct_response': 'left', 'condition': 'stop'}, {'fileName': 'circleblack.png', 'correct_response': 'left', 'condition': 'go'}, {'fileName': 'circleblack.png', 'correct_response': 'left', 'condition': 'stop'}, {'fileName': 'squareblack.png', 'correct_response': 'right', 'condition': 'go'}, {'fileName': 'squareblack.png', 'correct_response': 'right', 'condition': 'stop'}, {'fileName': 'circleblack.png', 'correct_response': 'left', 'condition': 'stop'}, {'fileName': 'circleblack.png', 'correct_response': 'left', 'condition': 'go'}, {'fileName': 'circleblack.png', 'correct_response': 'left', 'condition': 'go'}, {'fileName': 'circleblack.png', 'correct_response': 'left', 'condition': 'go'}, {'fileName': 'squareblack.png', 'correct_response': 'right', 'condition': 'go'}, {'fileName': 'squareblack.png', 'correct_response': 'right', 'condition': 'go'}, {'fileName': 'squareblack.png', 'correct_response': 'right', 'condition': 'stop'}, {'fileName': 'squareblack.png', 'correct_response': 'right', 'condition': 'stop'}, {'fileName': 'circleblack.png', 'correct_response': 'left', 'condition': 'go'}, {'fileName': 'squareblack.png', 'correct_response': 'right', 'condition': 'go'}, {'fileName': 'circleblack.png', 'correct_response': 'left', 'condition': 'stop'}, {'fileName': 'squareblack.png', 'correct_response': 'right', 'condition': 'go'}, {'fileName': 'squareblack.png', 'correct_response': 'right', 'condition': 'go'}, {'fileName': 'circleblack.png', 'correct_response': 'left', 'condition': 'go'}, {'fileName': 'squareblack.png', 'correct_response': 'right', 'condition': 'go'}, {'fileName': 'circleblack.png', 'correct_response': 'left', 'condition': 'stop'}, {'fileName': 'squareblack.png', 'correct_response': 'right', 'condition': 'stop'}, {'fileName': 'circleblack.png', 'correct_response': 'left', 'condition': 'go'}, {'fileName': 'circleblack.png', 'correct_response': 'left', 'condition': 'go'}, {'fileName': 'circleblack.png', 'correct_response': 'left', 'condition': 'go'}, {'fileName': 'squareblack.png', 'correct_response': 'right', 'condition': 'go'}, {'fileName': 'squareblack.png', 'correct_response': 'right', 'condition': 'go'}, {'fileName': 'squareblack.png', 'correct_response': 'right', 'condition': 'stop'}, {'fileName': 'circleblack.png', 'correct_response': 'left', 'condition': 'stop'}, {'fileName': 'squareblack.png', 'correct_response': 'right', 'condition': 'go'}, {'fileName': 'circleblack.png', 'correct_response': 'left', 'condition': 'go'}, {'fileName': 'squareblack.png', 'correct_response': 'right', 'condition': 'go'}, {'fileName': 'circleblack.png', 'correct_response': 'left', 'condition': 'go'}, {'fileName': 'circleblack.png', 'correct_response': 'left', 'condition': 'stop'}, {'fileName': 'circleblack.png', 'correct_response': 'left', 'condition': 'go'}, {'fileName': 'squareblack.png', 'correct_response': 'right', 'condition': 'stop'}, {'fileName': 'circleblack.png', 'correct_response': 'left', 'condition': 'go'}, {'fileName': 'squareblack.png', 'correct_response': 'right', 'condition': 'go'}, {'fileName': 'squareblack.png', 'correct_response': 'right', 'condition': 'stop'}, {'fileName': 'squareblack.png', 'correct_response': 'right', 'condition': 'go'}, {'fileName': 'circleblack.png', 'correct_response': 'left', 'condition': 'stop'}]",,,,,,,,,,,,,,,,,,,,,,,,,,,,,,,,,,,,,,,,,,,,,,,,,,,,,560.261137958616,560.261137958616,return,4.801244296133518,,,,,,,s020,001,2024-07-26_09h12.18.085,simplestop_skeleton,2022.2.2,59.096570216440334,
None,None,,,,,,,,,1,0,1,0,0,0,0,2,,,,,,,,,565.1014438308775,go,squareblack.png,right,0.15,,,,,,,,,,,,,,,,0.0023878365755081177,0.4981069378554821,,567.6127362661064,test,2,,,,,,,,,565.120395027101,565.6259982287884,565.6259982287884,565.6259982287884,565.776155333966,566.2772081233561,566.6269106641412,567.6322063319385,right,1,0.15,0.5050272010266781,,,,,,,,,,,s020,001,2024-07-26_09h12.18.085,simplestop_skeleton,2022.2.2,59.096570216440334,
$currentCorrectResponse,$currentGoStim,,,,,,,,,1,0,1,0,0,1,1,0,,,,,,,,,567.61328182742,go,circleblack.png,left,0.15,,,,,,,,,,,,,,,,0.0019333846867084503,0.4895378388464451,,570.1153787896037,test,2,,,,,,,,,567.6322063319385,568.1286657340825,568.1286657340825,568.1452790349722,568.2789276354015,568.7797155976295,569.1283957511187,570.1346903964877,left,1,0.15,0.4290376827120781,,,,,,,,,,,s020,001,2024-07-26_09h12.18.085,simplestop_skeleton,2022.2.2,59.096570216440334,
None,None,,,,,,,,,1,0,1,0,0,2,2,1,,,,,,,,,570.1158212646842,go,squareblack.png,right,0.15,,,,,,,,,,,,,,,,0.001572687178850174,0.48961154371500015,,572.6181084960699,test,2,,,,,,,,,570.1346903964877,570.6316480189562,570.6316480189562,570.6481454484165,570.7816532552242,571.2822315059602,571.6310676708817,572.6370838321745,right,1,0.15,0.39403489977121353,,,,,,,,,,,s020,001,2024-07-26_09h12.18.085,simplestop_skeleton,2022.2.2,59.096570216440334,
None,None,,,,,,,,,1,0,1,0,0,3,3,2,,,,,,,,,572.6185423955321,go,squareblack.png,right,0.15,,,,,,,,,,,,,,,,0.0013877563178539276,0.4896995536983013,,575.1208804473281,test,2,,,,,,,,,572.6370838321745,573.1345413029194,573.1345413029194,573.1509625762701,573.2843128331006,573.7850596942008,574.1341648362577,575.1398344933987,right,1,0.15,0.4093448519706726,,,,,,,,,,,s020,001,2024-07-26_09h12.18.085,simplestop_skeleton,2022.2.2,59.096570216440334,
None,None,,,,,,,,,1,0,1,0,1,0,4,3,,,,,,,,,575.1213128790259,stop,squareblack.png,right,0.15,,,,,,,,,,,,,,,,0.001234591007232666,0.49030666053295135,0.6399040333926678,577.6238732971251,test,2,,,,,,,,,575.1398344933987,575.6373180933297,575.6373180933297,575.6542852520943,575.7872707471251,576.2862842343748,576.6373865753412,577.6435312740505,right,1,0.1,0.4112912341952324,,,,,,,,,,,s020,001,2024-07-26_09h12.18.085,simplestop_skeleton,2022.2.2,59.096570216440334,
$currentCorrectResponse,$currentGoStim,,,,,,,,,1,0,1,0,1,1,5,0,,,,,,,,,577.6243089176714,go,circleblack.png,left,0.1,,,,,,,,,,,,,,,,0.0019843727350234985,0.48823070526123047,,580.1267534531653,test,2,,,,,,,,,577.6435312740505,578.1384126842022,578.1384126842022,578.1557310521603,578.238522272557,578.7392631173134,579.1393666677177,580.1456652656198,left,1,0.1,0.36154763400554657,,,,,,,,,,,s020,001,2024-07-26_09h12.18.085,simplestop_skeleton,2022.2.2,59.096570216440334,
None,None,,,,,,,,,1,0,1,0,1,2,6,1,,,,,,,,,580.1271824613214,go,circleblack.png,left,0.1,,,,,,,,,,,,,,,,0.0013629980385303497,0.48962293565273285,,582.6295045875013,test,2,,,,,,,,,580.1456652656198,580.642556257546,580.642556257546,580.6592660583556,580.7426782287657,581.243202175945,581.642745770514,582.6483055911958,left,1,0.1,0.3554895259439945,,,,,,,,,,,s020,001,2024-07-26_09h12.18.085,simplestop_skeleton,2022.2.2,59.096570216440334,
$currentCorrectResponse,$currentGoStim,,,,,,,,,1,0,1,0,1,3,7,0,,,,,,,,,582.629949118942,stop,circleblack.png,left,0.1,,,,,,,,,,,,,,,,0.001422092318534851,0.4894651398062706,0.5896900705993176,585.1322056278586,test,2,,,,,,,,,582.6483055911958,583.1453922912478,583.1453922912478,583.1620108224452,583.2454163767397,583.7459949851036,584.1465620882809,585.1511028669775,None,0,0.15,,,,,,,,,,,,s020,001,2024-07-26_09h12.18.085,simplestop_skeleton,2022.2.2,59.096570216440334,
None,None,,,,,,,,,1,0,1,0,2,0,8,3,,,,,,,,,585.1326441466808,go,circleblack.png,left,0.15,,,,,,,,,,,,,,,,0.0014123059809207916,0.48972977325320244,,587.6348371692002,test,2,,,,,,,,,585.1511028669775,585.6480784155428,585.6480784155428,585.6651715859771,585.798575360328,586.2993282787502,586.6477807871997,587.6538626365364,left,1,0.15,0.4769292436540127,,,,,,,,,,,s020,001,2024-07-26_09h12.18.085,simplestop_skeleton,2022.2.2,59.096570216440334,
$currentCorrectResponse,$currentGoStim,,,,,,,,,1,0,1,0,2,1,9,0,,,,,,,,,587.635267958045,stop,circleblack.png,left,0.15,,,,,,,,,,,,,,,,0.0014064274728298187,0.48982474207878113,0.6399180144071579,590.1376454755664,test,2,,,,,,,,,587.6538626365364,588.1511051021516,588.1511051021516,588.1677459664643,588.3010336570442,588.8001610524952,589.1511162146926,590.1614837609231,left,1,0.1,0.34077389538288116,,,,,,,,,,,s020,001,2024-07-26_09h12.18.085,simplestop_skeleton,2022.2.2,59.096570216440334,
$currentCorrectResponse,$currentGoStim,,,,,,,,,1,0,1,0,2,2,10,0,,,,,,,,,590.1380733437836,go,squareblack.png,right,0.1,,,,,,,,,,,,,,,,0.00714082270860672,0.48971886560320854,,592.6404352858663,test,2,,,,,,,,,590.1614837609231,590.6536907739937,590.6536907739937,590.6705036573112,590.7536825500429,591.2528442665935,591.6534072719514,592.658982757479,right,1,0.1,0.33513130992650986,,,,,,,,,,,s020,001,2024-07-26_09h12.18.085,simplestop_skeleton,2022.2.2,59.096570216440334,
None,None,,,,,,,,,1,0,1,0,2,3,11,2,,,,,,,,,592.6408779025078,stop,squareblack.png,right,0.1,,,,,,,,,,,,,,,,0.0012063942849636078,0.48973364010453224,0.5898240730166435,595.1433004327118,test,2,,,,,,,,,592.658982757479,593.1565623953938,593.1565623953938,593.173102427274,593.2567571401596,593.7572594285011,594.1566822603345,595.162743140012,right,1,0.05,0.3509371355175972,,,,,,,,,,,s020,001,2024-07-26_09h12.18.085,simplestop_skeleton,2022.2.2,59.096570216440334,
None,None,,,,,,,,,1,0,1,0,3,0,12,3,,,,,,,,,595.1437303572893,stop,circleblack.png,left,0.05,,,,,,,,,,,,,,,,0.0019990503787994385,0.49001771584153175,0.5395433008670807,597.645941991359,test,2,,,,,,,,,595.162743140012,595.6593212373555,595.6593212373555,595.6758356466889,595.7091236934066,596.2100055776536,596.6602011844516,597.6650448665023,None,0,0.1,,,,,,,,,,,,s020,001,2024-07-26_09h12.18.085,simplestop_skeleton,2022.2.2,59.096570216440334,
$currentCorrectResponse,$currentGoStim,,,,,,,,,1,0,1,0,3,1,13,0,,,,,,,,,597.6463826112449,go,circleblack.png,left,0.1,,,,,,,,,,,,,,,,0.001411937177181244,0.489603616297245,,600.148882985115,test,2,,,,,,,,,597.6650448665023,598.1618133671582,598.1618133671582,598.1788132227957,598.2620744518936,598.7629076912999,599.1615858450532,600.1677830256522,left,1,0.1,0.4513353034853935,,,,,,,,,,,s020,001,2024-07-26_09h12.18.085,simplestop_skeleton,2022.2.2,59.096570216440334,
None,None,,,,,,,,,1,0,1,0,3,2,14,1,,,,,,,,,600.1493346728384,go,circleblack.png,left,0.1,,,,,,,,,,,,,,,,0.0014089606702327728,0.489578690379858,,602.6515178531408,test,2,,,,,,,,,600.1677830256522,600.6646359413862,600.6646359413862,600.6812952160835,600.7649700343609,601.2657048143446,601.6642387583852,602.6711191236973,left,1,0.1,0.4061562903225422,,,,,,,,,,,s020,001,2024-07-26_09h12.18.085,simplestop_skeleton,2022.2.2,59.096570216440334,
None,None,,,,,,,,,1,0,1,0,3,3,15,1,,,,,,,,,602.651963211596,go,circleblack.png,left,0.1,,,,,,,,,,,,,,,,0.0014878623187541962,0.4894300661981106,,605.1541677638888,test,2,,,,,,,,,602.6711191236973,603.1675327382982,603.1675327382982,603.1841290742159,603.2674519754946,603.7680231519043,604.1678027100861,605.1784920729697,left,1,0.1,0.3713689148426056,,,,,,,,,,,s020,001,2024-07-26_09h12.18.085,simplestop_skeleton,2022.2.2,59.096570216440334,
None,None,,,,,,,,,1,0,1,0,4,0,16,2,,,,,,,,,605.1546879820526,go,squareblack.png,right,0.1,,,,,,,,,,,,,,,,0.0076498836278915405,0.4897438772022724,,607.6569640003145,test,2,,,,,,,,,605.1784920729697,605.6701164767146,605.6701164767146,605.6867970265448,605.7703358270228,606.2707454673946,606.6699946410954,607.6758553124964,right,1,0.1,0.273666400462389,,,,,,,,,,,s020,001,2024-07-26_09h12.18.085,simplestop_skeleton,2022.2.2,59.096570216440334,
None,None,,,,,,,,,1,0,1,0,4,1,17,2,,,,,,,,,607.6574352048337,go,squareblack.png,right,0.1,,,,,,,,,,,,,,,,0.0012760423123836517,0.4897611103951931,,610.159765213728,test,2,,,,,,,,,607.6758553124964,608.1731254011393,608.1731254011393,608.1895166896284,608.2732224352658,608.7739910036325,609.1725673899055,610.1789501011372,right,1,0.1,0.43229932710528374,,,,,,,,,,,s020,001,2024-07-26_09h12.18.085,simplestop_skeleton,2022.2.2,59.096570216440334,
None,None,,,,,,,,,1,0,1,0,4,2,18,3,,,,,,,,,610.1602041572332,stop,squareblack.png,right,0.1,,,,,,,,,,,,,,,,0.0013642273843288422,0.48944030329585075,0.5895615816116333,612.6624486744404,test,2,,,,,,,,,610.1789501011372,610.6755713485181,610.6755713485181,610.6924586854875,610.7756205424666,611.276276089251,611.6767874769866,612.6814776025712,None,0,0.15,,,,,,,,,,,,s020,001,2024-07-26_09h12.18.085,simplestop_skeleton,2022.2.2,59.096570216440334,
None,None,,,,,,,,,1,0,1,0,4,3,19,2,,,,,,,,,612.6628826074302,stop,squareblack.png,right,0.15,,,,,,,,,,,,,,,,0.0013259239494800568,0.4894087426364422,0.6396602615714073,615.165197212249,test,2,,,,,,,,,612.6814776025712,613.1782162413001,613.1782162413001,613.1949749402702,613.3285516686738,613.8290889523923,614.1795131452382,615.1845097728074,None,0,0.2,,,,,,,,,,,,s020,001,2024-07-26_09h12.18.085,simplestop_skeleton,2022.2.2,59.096570216440334,
None,None,,,,,,,,,1,0,1,0,5,0,20,2,,,,,,,,,615.1656456291676,go,circleblack.png,left,0.2,,,,,,,,,,,,,,,,0.0019479840993881226,0.49000968784093857,,617.6680693402886,test,2,,,,,,,,,615.1845097728074,615.6814254932106,615.6814254932106,615.6978993527591,615.8814811632037,616.3806964494288,616.6812148801982,617.6874559819698,left,1,0.2,0.3978161849081516,,,,,,,,,,,s020,001,2024-07-26_09h12.18.085,simplestop_skeleton,2022.2.2,59.096570216440334,
None,None,,,,,,,,,1,0,1,0,5,1,21,3,,,,,,,,,617.6685196459293,go,squareblack.png,right,0.2,,,,,,,,,,,,,,,,0.0018263384699821472,0.4896089397370815,,620.171065852046,test,2,,,,,,,,,617.6874559819698,618.1843067780137,618.1843067780137,618.2006421275437,618.3841827213764,618.8848007544875,619.1835838705301,620.1903206147254,right,1,0.2,0.4426430054008961,,,,,,,,,,,s020,001,2024-07-26_09h12.18.085,simplestop_skeleton,2022.2.2,59.096570216440334,
$currentCorrectResponse,$currentGoStim,,,,,,,,,1,0,1,0,5,2,22,0,,,,,,,,,620.1714965365827,stop,circleblack.png,left,0.2,,,,,,,,,,,,,,,,0.0018613636493682861,0.4894068315625191,0.6897374205291271,622.6735996864736,test,2,,,,,,,,,620.1903206147254,620.6867793165147,620.6867793165147,620.7034964226186,620.8869422003627,621.3874589130282,621.6864574700594,622.6925507411361,left,1,0.15,0.37538301572203636,,,,,,,,,,,s020,001,2024-07-26_09h12.18.085,simplestop_skeleton,2022.2.2,59.096570216440334,
None,None,,,,,,,,,1,0,1,0,5,3,23,2,,,,,,,,,622.6740427128971,go,squareblack.png,right,0.15,,,,,,,,,,,,,,,,0.001626674085855484,0.49010657519102097,,625.176289472729,test,2,,,,,,,,,622.6925507411361,623.1897144503891,623.1897144503891,623.2064201943576,623.3400754779577,623.8402686081827,624.189116384834,625.1952441781759,right,1,0.15,0.40066633000969887,,,,,,,,,,,s020,001,2024-07-26_09h12.18.085,simplestop_skeleton,2022.2.2,59.096570216440334,
$currentCorrectResponse,$currentGoStim,,,,,,,,,1,0,1,0,6,0,24,0,,,,,,,,,625.1767294704914,go,squareblack.png,right,0.15,,,,,,,,,,,,,,,,0.0012871921062469482,0.48956235498189926,,627.678947661072,test,2,,,,,,,,,625.1952441781759,625.6922054737806,625.6922054737806,625.7093063443899,625.8425390720367,626.3417893499136,626.6920202486217,627.6984146051109,left,0,0.15,0.3464861214160919,,,,,,,,,,,s020,001,2024-07-26_09h12.18.085,simplestop_skeleton,2022.2.2,59.096570216440334,
None,None,,,,,,,,,1,0,1,0,6,1,25,1,,,,,,,,,627.6794587373734,go,circleblack.png,left,0.15,,,,,,,,,,,,,,,,0.0019893385469913483,0.4898112863302231,,630.1817116215825,test,2,,,,,,,,,627.6984146051109,628.1952146701515,628.1952146701515,628.2117741219699,628.3453892841935,628.8445170074701,629.1955059990287,630.201005358249,left,1,0.15,0.3393751531839371,,,,,,,,,,,s020,001,2024-07-26_09h12.18.085,simplestop_skeleton,2022.2.2,59.096570216440334,
None,None,,,,,,,,,1,0,1,0,6,2,26,1,,,,,,,,,630.1821746081114,go,squareblack.png,right,0.15,,,,,,,,,,,,,,,,0.0015262030065059662,0.48947304859757423,,632.6843888908625,test,2,,,,,,,,,630.201005358249,630.6980640217662,630.6980640217662,630.714352183044,630.8479917831719,631.3469791673124,631.697815541178,632.7037532441318,right,1,0.15,0.31100182607769966,,,,,,,,,,,s020,001,2024-07-26_09h12.18.085,simplestop_skeleton,2022.2.2,59.096570216440334,
None,None,,,,,,,,,1,0,1,0,6,3,27,2,,,,,,,,,632.6848326250911,stop,circleblack.png,left,0.15,,,,,,,,,,,,,,,,0.0018355511128902435,0.48981671780347824,0.6399714462459087,635.1873289234936,test,2,,,,,,,,,632.7037532441318,633.2005397714674,633.2005397714674,633.2173281610012,633.3506300523877,633.8513618558645,634.2002769969404,635.2064866088331,left,1,0.1,0.3496859148144722,,,,,,,,,,,s020,001,2024-07-26_09h12.18.085,simplestop_skeleton,2022.2.2,59.096570216440334,
None,None,,,,,,,,,1,0,1,0,7,0,28,1,,,,,,,,,635.1877695657313,stop,squareblack.png,right,0.1,,,,,,,,,,,,,,,,0.0016739144921302795,0.48957014083862305,0.5882784686982632,637.6901639401913,test,2,,,,,,,,,635.2064866088331,635.703255482018,635.703255482018,635.7200738601387,635.8022229671478,636.3025422208011,636.7037442959845,637.7098058983684,right,1,0.05,0.36505962535738945,,,,,,,,,,,s020,001,2024-07-26_09h12.18.085,simplestop_skeleton,2022.2.2,59.096570216440334,
None,None,,,,,,,,,1,0,1,0,7,1,29,2,,,,,,,,,637.6906013153493,go,circleblack.png,left,0.05,,,,,,,,,,,,,,,,0.001956794410943985,0.4895627126097679,,640.1930572837591,test,2,,,,,,,,,637.7098058983684,638.2061195410788,638.2061195410788,638.2228080257773,638.2563961111009,638.7570351138711,639.2057578191161,640.2119303755462,left,1,0.05,0.479241568595171,,,,,,,,,,,s020,001,2024-07-26_09h12.18.085,simplestop_skeleton,2022.2.2,59.096570216440334,
None,None,,,,,,,,,1,0,1,0,7,2,30,3,,,,,,,,,640.1934908889234,go,circleblack.png,left,0.05,,,,,,,,,,,,,,,,0.0013920031487941742,0.4879940301179886,,642.6957081519067,test,2,,,,,,,,,640.2119303755462,640.7072953134775,640.7072953134775,640.7240461558104,640.7573573626578,641.2578265592456,641.7089814245701,642.71458273381,left,1,0.05,0.4511309377849102,,,,,,,,,,,s020,001,2024-07-26_09h12.18.085,simplestop_skeleton,2022.2.2,59.096570216440334,
None,None,,,,,,,,,1,0,1,0,7,3,31,3,,,,,,,,,642.6961487829685,go,circleblack.png,left,0.05,,,,,,,,,,,,,,,,0.0014894641935825348,0.48939506337046623,,645.1980553120375,test,2,,,,,,,,,642.71458273381,643.2114574834704,643.2114574834704,643.2282863110304,643.2618100307882,643.7625059857965,644.2111922129989,645.2233455553651,left,1,0.05,0.4058199003338814,,,,,,,,,,,s020,001,2024-07-26_09h12.18.085,simplestop_skeleton,2022.2.2,59.096570216440334,
None,None,,,,,,,,,1,0,1,0,8,0,32,3,,,,,,,,,645.1984936371446,go,squareblack.png,right,0.05,,,,,,,,,,,,,,,,0.007861267775297165,0.4896788112819195,,647.7012995257974,test,2,,,,,,,,,645.2233455553651,645.7143955975771,645.7143955975771,645.7310825958848,645.7648233361542,646.2654953636229,646.7142253443599,647.7201208993793,left,0,0.05,0.35448483005166054,,,,,,,,,,,s020,001,2024-07-26_09h12.18.085,simplestop_skeleton,2022.2.2,59.096570216440334,
None,None,,,,,,,,,1,0,1,0,8,1,33,3,,,,,,,,,647.7017552554607,go,squareblack.png,right,0.05,,,,,,,,,,,,,,,,0.0013514049351215363,0.489421121776104,,650.2039163820446,test,2,,,,,,,,,647.7201208993793,648.2172095254064,648.2172095254064,648.2339855097234,648.2672844305634,648.7680359594524,649.2176105566323,650.2230681888759,right,1,0.05,0.34629879891872406,,,,,,,,,,,s020,001,2024-07-26_09h12.18.085,simplestop_skeleton,2022.2.2,59.096570216440334,
None,None,,,,,,,,,1,0,1,0,8,2,34,3,,,,,,,,,650.2043450586498,stop,squareblack.png,right,0.05,,,,,,,,,,,,,,,,0.0013014227151870728,0.48964713886380196,0.5396991074085236,652.7065867818892,test,2,,,,,,,,,650.2230681888759,650.720123142004,650.720123142004,650.736395791173,650.7698835879564,651.2702926583588,651.7209840081632,652.7264260575175,None,0,0.1,,,,,,,,,,,,s020,001,2024-07-26_09h12.18.085,simplestop_skeleton,2022.2.2,59.096570216440334,
None,None,,,,,,,,,1,0,1,0,8,3,35,1,,,,,,,,,652.7070187591016,stop,circleblack.png,left,0.1,,,,,,,,,,,,,,,,0.001957368105649948,0.48971686884760857,0.5897469371557236,655.2094565443695,test,2,,,,,,,,,652.7264260575175,653.2226094156504,653.2226094156504,653.2392005175352,653.3228287398815,653.8235678635538,654.2222540490329,655.2287363931537,left,1,0.05,0.3559131547808647,,,,,,,,,,,s020,001,2024-07-26_09h12.18.085,simplestop_skeleton,2022.2.2,59.096570216440334,
$currentCorrectResponse,$currentGoStim,,,,,,,,,1,0,1,0,9,0,36,0,,,,,,,,,655.2098914757371,go,squareblack.png,right,0.05,,,,,,,,,,,,,,,,0.0016557686030864716,0.4896992817521095,,657.7125714048743,test,2,,,,,,,,,655.2287363931537,655.7254308871925,655.7254308871925,655.7421306297183,655.7756067253649,656.2767396569252,656.7250531204045,657.7322959825397,right,1,0.05,0.4014015272259712,,,,,,,,,,,s020,001,2024-07-26_09h12.18.085,simplestop_skeleton,2022.2.2,59.096570216440334,
$currentCorrectResponse,$currentGoStim,,,,,,,,,1,0,1,0,9,1,37,0,,,,,,,,,657.7130165398121,go,circleblack.png,left,0.05,,,,,,,,,,,,,,,,0.0026343949139118195,0.4891996495425701,,660.2147957906127,test,2,,,,,,,,,657.7322959825397,658.2281666323543,658.2281666323543,658.2451310455799,658.2784394212067,658.7791482098401,659.2281000390649,660.233994115144,right,0,0.05,0.35620586574077606,,,,,,,,,,,s020,001,2024-07-26_09h12.18.085,simplestop_skeleton,2022.2.2,59.096570216440334,
None,None,,,,,,,,,1,0,1,0,9,2,38,1,,,,,,,,,660.2152313664556,go,squareblack.png,right,0.05,,,,,,,,,,,,,,,,0.001717597246170044,0.4900333844125271,,662.7179316058755,test,2,,,,,,,,,660.233994115144,660.7307821810246,660.7307821810246,660.7476476095617,660.7810951918364,661.2815376967192,661.7306755557656,662.7376598790288,right,1,0.05,0.31201182678341866,,,,,,,,,,,s020,001,2024-07-26_09h12.18.085,simplestop_skeleton,2022.2.2,59.096570216440334,
None,None,,,,,,,,,1,0,1,0,9,3,39,3,,,,,,,,,662.7183654606342,go,circleblack.png,left,0.05,,,,,,,,,,,,,,,,0.0018918476998806,0.48955952003598213,,665.2203030325472,test,2,,,,,,,,,662.7376598790288,663.2338402271271,663.2338402271271,663.2506433390081,663.2837986648083,663.7847442924976,664.2333169914782,665.2393261864781,left,1,0.05,0.38894977048039436,,,,,,,,,,,s020,001,2024-07-26_09h12.18.085,simplestop_skeleton,2022.2.2,59.096570216440334,
None,None,,,,,,,,,1,0,1,0,10,0,40,3,,,,,,,,,665.2207404263318,stop,circleblack.png,left,0.05,,,,,,,,,,,,,,,,0.0013411901891231537,0.4896136596798897,0.5400604568421841,667.7233719453216,test,2,,,,,,,,,665.2393261864781,665.7363641522825,665.7363641522825,665.7531706951559,665.7866263464093,666.2870733514428,666.7375439926982,667.7422031015158,None,0,0.1,,,,,,,,,,,,s020,001,2024-07-26_09h12.18.085,simplestop_skeleton,2022.2.2,59.096570216440334,
None,None,,,,,,,,,1,0,1,0,10,1,41,1,,,,,,,,,667.7238002419472,go,circleblack.png,left,0.1,,,,,,,,,,,,,,,,0.0013745278120040894,0.48962609469890594,,670.2259439229965,test,2,,,,,,,,,667.7422031015158,668.2393129616976,668.2393129616976,668.2560514546931,668.3393223024905,668.8402786627412,669.2388430163264,670.2455773763359,left,1,0.1,0.47322358936071396,,,,,,,,,,,s020,001,2024-07-26_09h12.18.085,simplestop_skeleton,2022.2.2,59.096570216440334,
None,None,,,,,,,,,1,0,1,0,10,2,42,1,,,,,,,,,670.2263949029148,stop,squareblack.png,right,0.1,,,,,,,,,,,,,,,,0.001824360340833664,0.48975928500294685,0.5897479690611362,672.7289954945445,test,2,,,,,,,,,670.2455773763359,670.7420954667032,670.7420954667032,670.7586773261428,670.842238355428,671.3431876972318,671.7415650077164,672.7483319416642,right,1,0.05,0.3888992890715599,,,,,,,,,,,s020,001,2024-07-26_09h12.18.085,simplestop_skeleton,2022.2.2,59.096570216440334,
$currentCorrectResponse,$currentGoStim,,,,,,,,,1,0,1,0,10,3,43,0,,,,,,,,,672.7294226698577,go,circleblack.png,left,0.05,,,,,,,,,,,,,,,,0.0017847754061222076,0.48963871970772743,,675.2318790592253,test,2,,,,,,,,,672.7483319416642,673.244702141732,673.244702141732,673.2616087123752,673.2953409291804,673.7957372628152,674.2443961985409,675.2510131821036,left,1,0.05,0.45199665054678917,,,,,,,,,,,s020,001,2024-07-26_09h12.18.085,simplestop_skeleton,2022.2.2,59.096570216440334,
None,None,,,,,,,,,1,0,1,0,11,0,44,2,,,,,,,,,675.2323230169713,go,squareblack.png,right,0.05,,,,,,,,,,,,,,,,0.0018105283379554749,0.4895828068256378,,677.7343734316528,test,2,,,,,,,,,675.2510131821036,675.7475524693727,675.7475524693727,675.7641805000603,675.7975379191339,676.2985974624753,676.7471491470933,677.7536412402987,right,1,0.05,0.37768832221627235,,,,,,,,,,,s020,001,2024-07-26_09h12.18.085,simplestop_skeleton,2022.2.2,59.096570216440334,
$currentCorrectResponse,$currentGoStim,,,,,,,,,1,0,1,0,11,1,45,0,,,,,,,,,677.7348132357001,stop,squareblack.png,right,0.05,,,,,,,,,,,,,,,,0.0013544000685214996,0.489661268889904,0.5397415235638618,680.2357171997428,test,2,,,,,,,,,677.7536412402987,678.2504138015211,678.2504138015211,678.2669626437128,678.3002800755203,678.8012347705662,679.2514980584383,680.2525647617877,None,0,0.1,,,,,,,,,,,,s020,001,2024-07-26_09h12.18.085,simplestop_skeleton,2022.2.2,59.096570216440334,
None,None,,,,,,,,,1,0,1,0,11,2,46,2,,,,,,,,,680.2361992783844,go,squareblack.png,right,0.1,,,,,,,,,,,,,,,,0.0011614523828029633,0.4891617186367512,,682.7396549843252,test,2,,,,,,,,,680.2525647617877,680.7515322864056,680.7515322864056,680.7681806534529,680.8516632467508,681.3520764000714,681.752566177398,682.759048294276,right,1,0.1,0.4687088802456856,,,,,,,,,,,s020,001,2024-07-26_09h12.18.085,simplestop_skeleton,2022.2.2,59.096570216440334,
None,None,,,,,,,,,1,0,1,0,11,3,47,1,,,,,,,,,682.7400879226625,stop,circleblack.png,left,0.1,,,,,,,,,,,,,,,,0.0018795542418956757,0.4895699881017208,0.5898408330976963,685.2423481792212,test,2,,,,,,,,,682.759048294276,683.2558709532022,683.2558709532022,683.2723438180983,683.3557368516922,683.8563490062952,684.2568263486028,685.2613615132868,None,0,0.15,,,,,,,,,,,,s020,001,2024-07-26_09h12.18.085,simplestop_skeleton,2022.2.2,59.096570216440334,
,,,,,,,,,,1,0,1,0,,,,,,,,,,,,,,,,,,,,,,,,,,,,,,,,,,,,,,,,,,,,,,,,,,,,,,,,,,,685.2613615132868,685.2613615132868,return,7.2888989225029945,"[{'fileName': 'squareblack.png', 'correct_response': 'right', 'condition': 'go'}, {'fileName': 'squareblack.png', 'correct_response': 'right', 'condition': 'go'}, {'fileName': 'squareblack.png', 'correct_response': 'right', 'condition': 'stop'}, {'fileName': 'circleblack.png', 'correct_response': 'left', 'condition': 'stop'}, {'fileName': 'circleblack.png', 'correct_response': 'left', 'condition': 'go'}, {'fileName': 'circleblack.png', 'correct_response': 'left', 'condition': 'go'}, {'fileName': 'circleblack.png', 'correct_response': 'left', 'condition': 'stop'}, {'fileName': 'squareblack.png', 'correct_response': 'right', 'condition': 'go'}, {'fileName': 'circleblack.png', 'correct_response': 'left', 'condition': 'go'}, {'fileName': 'squareblack.png', 'correct_response': 'right', 'condition': 'stop'}, {'fileName': 'squareblack.png', 'correct_response': 'right', 'condition': 'go'}, {'fileName': 'circleblack.png', 'correct_response': 'left', 'condition': 'go'}, {'fileName': 'squareblack.png', 'correct_response': 'right', 'condition': 'go'}, {'fileName': 'circleblack.png', 'correct_response': 'left', 'condition': 'stop'}, {'fileName': 'squareblack.png', 'correct_response': 'right', 'condition': 'stop'}, {'fileName': 'squareblack.png', 'correct_response': 'right', 'condition': 'stop'}, {'fileName': 'circleblack.png', 'correct_response': 'left', 'condition': 'go'}, {'fileName': 'circleblack.png', 'correct_response': 'left', 'condition': 'stop'}, {'fileName': 'squareblack.png', 'correct_response': 'right', 'condition': 'go'}, {'fileName': 'circleblack.png', 'correct_response': 'left', 'condition': 'go'}, {'fileName': 'circleblack.png', 'correct_response': 'left', 'condition': 'go'}, {'fileName': 'squareblack.png', 'correct_response': 'right', 'condition': 'go'}, {'fileName': 'squareblack.png', 'correct_response': 'right', 'condition': 'go'}, {'fileName': 'circleblack.png', 'correct_response': 'left', 'condition': 'go'}, {'fileName': 'circleblack.png', 'correct_response': 'left', 'condition': 'stop'}, {'fileName': 'squareblack.png', 'correct_response': 'right', 'condition': 'go'}, {'fileName': 'squareblack.png', 'correct_response': 'right', 'condition': 'stop'}, {'fileName': 'circleblack.png', 'correct_response': 'left', 'condition': 'go'}, {'fileName': 'squareblack.png', 'correct_response': 'right', 'condition': 'stop'}, {'fileName': 'circleblack.png', 'correct_response': 'left', 'condition': 'go'}, {'fileName': 'circleblack.png', 'correct_response': 'left', 'condition': 'go'}, {'fileName': 'circleblack.png', 'correct_response': 'left', 'condition': 'stop'}, {'fileName': 'squareblack.png', 'correct_response': 'right', 'condition': 'go'}, {'fileName': 'squareblack.png', 'correct_response': 'right', 'condition': 'go'}, {'fileName': 'circleblack.png', 'correct_response': 'left', 'condition': 'go'}, {'fileName': 'squareblack.png', 'correct_response': 'right', 'condition': 'go'}, {'fileName': 'circleblack.png', 'correct_response': 'left', 'condition': 'go'}, {'fileName': 'squareblack.png', 'correct_response': 'right', 'condition': 'go'}, {'fileName': 'squareblack.png', 'correct_response': 'right', 'condition': 'go'}, {'fileName': 'circleblack.png', 'correct_response': 'left', 'condition': 'go'}, {'fileName': 'circleblack.png', 'correct_response': 'left', 'condition': 'stop'}, {'fileName': 'circleblack.png', 'correct_response': 'left', 'condition': 'go'}, {'fileName': 'circleblack.png', 'correct_response': 'left', 'condition': 'stop'}, {'fileName': 'squareblack.png', 'correct_response': 'right', 'condition': 'go'}, {'fileName': 'squareblack.png', 'correct_response': 'right', 'condition': 'go'}, {'fileName': 'circleblack.png', 'correct_response': 'left', 'condition': 'go'}, {'fileName': 'squareblack.png', 'correct_response': 'right', 'condition': 'stop'}, {'fileName': 'squareblack.png', 'correct_response': 'right', 'condition': 'stop'}]",,,,,,s020,001,2024-07-26_09h12.18.085,simplestop_skeleton,2022.2.2,59.096570216440334,
$currentCorrectResponse,$currentGoStim,,,,,,,,,2,0,2,0,0,0,0,0,,,,,,,,,692.5846782140434,go,squareblack.png,right,0.15,,,,,,,,,,,,,,,,0.0023741498589515686,0.487305223941803,,695.0868612639606,test,3,,,,,,,,,692.6066992804408,693.0985410660505,693.0985410660505,693.1152071394026,693.2493002563715,693.7491665706038,694.1011882461607,695.1059694290161,right,1,0.15,0.48738185316324234,,,,,,,,,,,s020,001,2024-07-26_09h12.18.085,simplestop_skeleton,2022.2.2,59.096570216440334,
None,None,,,,,,,,,2,0,2,0,0,1,1,3,,,,,,,,,695.087429985404,go,squareblack.png,right,0.15,,,,,,,,,,,,,,,,0.0014530420303344727,0.48934077098965645,,697.5888720713556,test,3,,,,,,,,,695.1059694290161,695.6029008291662,695.6029008291662,695.6194894164801,695.7533646896482,696.253868944943,696.6024874150753,697.6058892086148,right,1,0.15,0.3886936642229557,,,,,,,,,,,s020,001,2024-07-26_09h12.18.085,simplestop_skeleton,2022.2.2,59.096570216440334,
None,None,,,,,,,,,2,0,2,0,0,2,2,1,,,,,,,,,697.5893134213984,stop,squareblack.png,right,0.15,,,,,,,,,,,,,,,,0.0011960044503211975,0.490354485809803,0.6406989134848118,700.0923301652074,test,3,,,,,,,,,697.6058892086148,698.1057754345238,698.1057754345238,698.1057754345238,698.2557221204042,698.7547856904566,699.1052669398487,700.1170142665505,right,1,0.1,0.38411011919379234,,,,,,,,,,,s020,001,2024-07-26_09h12.18.085,simplestop_skeleton,2022.2.2,59.096570216440334,
None,None,,,,,,,,,2,0,2,0,0,3,3,2,,,,,,,,,700.0927722752094,stop,circleblack.png,left,0.1,,,,,,,,,,,,,,,,0.0079612135887146,0.4895602986216545,0.5896058231592178,702.5951055660844,test,3,,,,,,,,,700.1170142665505,700.60859124735,700.60859124735,700.6248613595963,700.708306606859,701.2092956788838,701.6078410334885,702.6141277775168,left,1,0.05,0.38130732253193855,,,,,,,,,,,s020,001,2024-07-26_09h12.18.085,simplestop_skeleton,2022.2.2,59.096570216440334,
$currentCorrectResponse,$currentGoStim,,,,,,,,,2,0,2,0,1,0,4,0,,,,,,,,,702.5955425649881,go,circleblack.png,left,0.05,,,,,,,,,,,,,,,,0.0014116503298282623,0.48953143134713173,,705.0978180766106,test,3,,,,,,,,,702.6141277775168,703.1110348515213,703.1110348515213,703.1275858879089,703.1608940437436,703.6618388406932,704.1105787269771,705.1164192669094,left,1,0.05,0.4053094647824764,,,,,,,,,,,s020,001,2024-07-26_09h12.18.085,simplestop_skeleton,2022.2.2,59.096570216440334,
$currentCorrectResponse,$currentGoStim,,,,,,,,,2,0,2,0,1,1,5,0,,,,,,,,,705.0982545129955,go,circleblack.png,left,0.05,,,,,,,,,,,,,,,,0.0012943446636199951,0.48982425406575203,,707.6007977537811,test,3,,,,,,,,,705.1164192669094,705.6141428723931,705.6141428723931,705.6305715925992,705.6642164103687,706.1646440774202,706.6138239912689,707.6197899393737,left,1,0.05,0.3090936578810215,,,,,,,,,,,s020,001,2024-07-26_09h12.18.085,simplestop_skeleton,2022.2.2,59.096570216440334,
None,None,,,,,,,,,2,0,2,0,1,2,6,3,,,,,,,,,707.6012505553663,stop,circleblack.png,left,0.05,,,,,,,,,,,,,,,,0.0013366453349590302,0.48952019959688187,0.5394982509315014,710.1033839695156,test,3,,,,,,,,,707.6197899393737,708.1167047284544,708.1167047284544,708.1335709616542,708.1667776629329,708.6670942790806,709.1178306825459,710.1263487264514,None,0,0.1,,,,,,,,,,,,s020,001,2024-07-26_09h12.18.085,simplestop_skeleton,2022.2.2,59.096570216440334,
None,None,,,,,,,,,2,0,2,0,1,3,7,1,,,,,,,,,710.1039145998657,go,squareblack.png,right,0.1,,,,,,,,,,,,,,,,0.007015854120254517,0.4873395077884197,,712.6066881678998,test,3,,,,,,,,,710.1263487264514,710.6177930310369,710.6177930310369,710.634481869638,710.7182674072683,711.2185383103788,711.6191311143339,712.630235273391,right,1,0.1,0.40038664638996124,,,,,,,,,,,s020,001,2024-07-26_09h12.18.085,simplestop_skeleton,2022.2.2,59.096570216440334,
$currentCorrectResponse,$currentGoStim,,,,,,,,,2,0,2,0,2,0,8,0,,,,,,,,,712.6075057052076,go,circleblack.png,left,0.1,,,,,,,,,,,,,,,,0.0021534375846385956,0.4845820963382721,,715.108635481447,test,3,,,,,,,,,712.630235273391,713.1214116513729,713.1214116513729,713.1386855989695,713.2220805175602,713.7230062931776,714.1216580085456,715.128020811826,left,1,0.1,0.393550768494606,,,,,,,,,,,s020,001,2024-07-26_09h12.18.085,simplestop_skeleton,2022.2.2,59.096570216440334,
None,None,,,,,,,,,2,0,2,0,2,1,9,1,,,,,,,,,715.1090704724193,stop,squareblack.png,right,0.1,,,,,,,,,,,,,,,,0.0017370209097862244,0.48963305354118347,0.5900312438607216,717.6115140803158,test,3,,,,,,,,,715.128020811826,715.6248236820102,715.6248236820102,715.6415051333606,715.7249255925417,716.2259013354778,716.6245360337198,717.6303749121726,right,1,0.05,0.41780152916908264,,,,,,,,,,,s020,001,2024-07-26_09h12.18.085,simplestop_skeleton,2022.2.2,59.096570216440334,
None,None,,,,,,,,,2,0,2,0,2,2,10,3,,,,,,,,,717.6119609549642,go,squareblack.png,right,0.05,,,,,,,,,,,,,,,,0.0012971311807632446,0.48952632024884224,,720.1159966886044,test,3,,,,,,,,,717.6303749121726,718.1274017728865,718.1274017728865,718.1441228911281,718.1777528338134,718.6782371476293,719.1277343779802,720.1354455128312,right,1,0.05,0.28959084302186966,,,,,,,,,,,s020,001,2024-07-26_09h12.18.085,simplestop_skeleton,2022.2.2,59.096570216440334,
$currentCorrectResponse,$currentGoStim,,,,,,,,,2,0,2,0,2,3,11,0,,,,,,,,,720.1164390295744,go,circleblack.png,left,0.05,,,,,,,,,,,,,,,,0.002316828817129135,0.48781317472457886,,722.6186339482665,test,3,,,,,,,,,720.1354455128312,720.6303416565061,720.6303416565061,720.6473973058164,720.6802964732051,721.1813578978181,721.6299580559134,722.6418743766844,left,1,0.05,0.3568107523024082,,,,,,,,,,,s020,001,2024-07-26_09h12.18.085,simplestop_skeleton,2022.2.2,59.096570216440334,
None,None,,,,,,,,,2,0,2,0,3,0,12,3,,,,,,,,,722.6194258593023,go,squareblack.png,right,0.05,,,,,,,,,,,,,,,,0.001799747347831726,0.4841763600707054,,725.1199703477323,test,3,,,,,,,,,722.6418743766844,723.1330290921032,723.1330290921032,723.15003721416,723.1831499710679,723.684043277055,724.1328003443778,725.13929727301,left,0,0.05,0.38204803317785263,,,,,,,,,,,s020,001,2024-07-26_09h12.18.085,simplestop_skeleton,2022.2.2,59.096570216440334,
None,None,,,,,,,,,2,0,2,0,3,1,13,2,,,,,,,,,725.1204123832285,stop,circleblack.png,left,0.05,,,,,,,,,,,,,,,,0.00186225026845932,0.4894571676850319,0.5396937839686871,727.6211421266198,test,3,,,,,,,,,725.13929727301,725.6358402073383,725.6358402073383,725.6526807360351,725.6860279813409,726.1865089461207,726.63706414029,727.638271484524,None,0,0.1,,,,,,,,,,,,s020,001,2024-07-26_09h12.18.085,simplestop_skeleton,2022.2.2,59.096570216440334,
None,None,,,,,,,,,2,0,2,0,3,2,14,3,,,,,,,,,727.6216011196375,stop,squareblack.png,right,0.1,,,,,,,,,,,,,,,,0.0016259774565696716,0.489703431725502,0.5899130292236805,730.1256555207074,test,3,,,,,,,,,727.638271484524,728.1371840238571,728.1371840238571,728.1539767496288,728.2372800223529,728.7377680614591,729.1383649744093,730.1450591273606,right,1,0.05,0.3010640852153301,,,,,,,,,,,s020,001,2024-07-26_09h12.18.085,simplestop_skeleton,2022.2.2,59.096570216440334,
None,None,,,,,,,,,2,0,2,0,3,3,15,2,,,,,,,,,730.1260907314718,stop,squareblack.png,right,0.05,,,,,,,,,,,,,,,,0.0018458925187587738,0.4887334518134594,0.53897750005126,732.628107894212,test,3,,,,,,,,,730.1450591273606,730.6414797827601,730.6414797827601,730.6580538749695,730.6913425214589,731.1919366419315,731.642751250416,732.6475390419364,None,0,0.1,,,,,,,,,,,,s020,001,2024-07-26_09h12.18.085,simplestop_skeleton,2022.2.2,59.096570216440334,
None,None,,,,,,,,,2,0,2,0,4,0,16,1,,,,,,,,,732.6285468824208,go,circleblack.png,left,0.1,,,,,,,,,,,,,,,,0.0018420442938804626,0.4896855391561985,,735.1313646286726,test,3,,,,,,,,,732.6475390419364,733.144096955657,733.144096955657,733.160951089114,733.2443577945232,733.7432872205973,734.1438803374767,735.1503583416343,left,1,0.1,0.3080293536186218,,,,,,,,,,,s020,001,2024-07-26_09h12.18.085,simplestop_skeleton,2022.2.2,59.096570216440334,
None,None,,,,,,,,,2,0,2,0,4,1,17,2,,,,,,,,,735.1318002194166,stop,circleblack.png,left,0.1,,,,,,,,,,,,,,,,0.001455165445804596,0.4893021993339062,0.5892722569406033,737.633687093854,test,3,,,,,,,,,735.1503583416343,735.6471236534417,735.6471236534417,735.663480963558,735.7468902096152,736.2478109076619,736.6480309069157,737.6527747735381,None,0,0.15,,,,,,,,,,,,s020,001,2024-07-26_09h12.18.085,simplestop_skeleton,2022.2.2,59.096570216440334,
None,None,,,,,,,,,2,0,2,0,4,2,18,1,,,,,,,,,737.6341249085963,go,squareblack.png,right,0.15,,,,,,,,,,,,,,,,0.0017180293798446655,0.4896595627069473,,740.1364080309868,test,3,,,,,,,,,737.6527747735381,738.1499421261251,738.1499421261251,738.1663005314767,738.299945153296,738.7988797239959,739.149460606277,740.155586399138,right,1,0.15,0.2639564499258995,,,,,,,,,,,s020,001,2024-07-26_09h12.18.085,simplestop_skeleton,2022.2.2,59.096570216440334,
None,None,,,,,,,,,2,0,2,0,4,3,19,2,,,,,,,,,740.1368375383317,go,circleblack.png,left,0.15,,,,,,,,,,,,,,,,0.0017433762550354004,0.48983900249004364,,742.638755004853,test,3,,,,,,,,,740.155586399138,740.6525029875338,740.6525029875338,740.6693307310343,740.8030892722309,741.3036413453519,741.65217160061,742.6560943610966,left,1,0.15,0.42283958941698074,,,,,,,,,,,s020,001,2024-07-26_09h12.18.085,simplestop_skeleton,2022.2.2,59.096570216440334,
None,None,,,,,,,,,2,0,2,0,5,0,20,3,,,,,,,,,742.6391922459006,go,circleblack.png,left,0.15,,,,,,,,,,,,,,,,0.0012583397328853607,0.49012938141822815,,745.1419101320207,test,3,,,,,,,,,742.6560943610966,743.1552744731307,743.1552744731307,743.1552744731307,743.3051155507565,743.8063719682395,744.1547992937267,745.161065172404,left,1,0.15,0.39312396571040154,,,,,,,,,,,s020,001,2024-07-26_09h12.18.085,simplestop_skeleton,2022.2.2,59.096570216440334,
None,None,,,,,,,,,2,0,2,0,5,1,21,1,,,,,,,,,745.1424291878939,go,squareblack.png,right,0.15,,,,,,,,,,,,,,,,0.0017705261707305908,0.4896404333412647,,747.6444403454661,test,3,,,,,,,,,745.161065172404,745.6579749062657,745.6579749062657,745.6744741760194,745.8083721250296,746.3092856779695,746.6575306653976,747.663362082094,right,1,0.15,0.42193109914660454,,,,,,,,,,,s020,001,2024-07-26_09h12.18.085,simplestop_skeleton,2022.2.2,59.096570216440334,
$currentCorrectResponse,$currentGoStim,,,,,,,,,2,0,2,0,5,2,22,0,,,,,,,,,747.6448693759739,go,squareblack.png,right,0.15,,,,,,,,,,,,,,,,0.0011824741959571838,0.48959482088685036,,750.1473063752055,test,3,,,,,,,,,747.663362082094,748.1608826518059,748.1608826518059,748.1772800274193,748.3108593076468,748.8097878843546,749.1605034396052,750.1668486110866,right,1,0.15,0.3344559222459793,,,,,,,,,,,s020,001,2024-07-26_09h12.18.085,simplestop_skeleton,2022.2.2,59.096570216440334,
None,None,,,,,,,,,2,0,2,0,5,3,23,1,,,,,,,,,750.1477483697236,go,circleblack.png,left,0.15,,,,,,,,,,,,,,,,0.001949157565832138,0.4897671453654766,,752.6505683474243,test,3,,,,,,,,,750.1668486110866,750.663689147681,750.663689147681,750.6802709661424,750.8137928023934,751.3128975890577,751.6632365249097,752.6693974211812,left,1,0.15,0.3401707746088505,,,,,,,,,,,s020,001,2024-07-26_09h12.18.085,simplestop_skeleton,2022.2.2,59.096570216440334,
None,None,,,,,,,,,2,0,2,0,6,0,24,2,,,,,,,,,752.650997646153,stop,circleblack.png,left,0.15,,,,,,,,,,,,,,,,0.0013848766684532166,0.48931627720594406,0.6397121958434582,755.1529292874038,test,3,,,,,,,,,752.6693974211812,753.166182436049,753.166182436049,753.1828193254769,753.3163754343987,753.8171222135425,754.1672626398504,755.1722667254508,None,0,0.2,,,,,,,,,,,,s020,001,2024-07-26_09h12.18.085,simplestop_skeleton,2022.2.2,59.096570216440334,
None,None,,,,,,,,,2,0,2,0,6,1,25,2,,,,,,,,,755.1533928178251,go,squareblack.png,right,0.2,,,,,,,,,,,,,,,,0.0015230849385261536,0.48963721096515656,,757.6556641533971,test,3,,,,,,,,,755.1722667254508,755.6691674515605,755.6691674515605,755.6858780421317,755.8692569844425,756.3683114759624,756.6689372770488,757.6744642406702,right,1,0.2,0.35015101730823517,,,,,,,,,,,s020,001,2024-07-26_09h12.18.085,simplestop_skeleton,2022.2.2,59.096570216440334,
None,None,,,,,,,,,2,0,2,0,6,2,26,3,,,,,,,,,757.6561035476625,stop,squareblack.png,right,0.2,,,,,,,,,,,,,,,,0.001299012452363968,0.48963459208607674,0.6901476942002773,760.1583034284413,test,3,,,,,,,,,757.6744642406702,758.17178549245,758.17178549245,758.1884287260473,758.3720649629831,758.8710990734398,759.1713539659977,760.1778208091855,right,1,0.15,0.38193441554903984,,,,,,,,,,,s020,001,2024-07-26_09h12.18.085,simplestop_skeleton,2022.2.2,59.096570216440334,
$currentCorrectResponse,$currentGoStim,,,,,,,,,2,0,2,0,6,3,27,0,,,,,,,,,760.1587321422994,go,circleblack.png,left,0.15,,,,,,,,,,,,,,,,0.0018393434584140778,0.4902375005185604,,762.660437155515,test,3,,,,,,,,,760.1778208091855,760.674900457263,760.674900457263,760.6913980990648,760.8248491100967,761.3257797844708,761.6746278591454,762.6807337142527,left,1,0.15,0.4346996918320656,,,,,,,,,,,s020,001,2024-07-26_09h12.18.085,simplestop_skeleton,2022.2.2,59.096570216440334,
None,None,,,,,,,,,2,0,2,0,7,0,28,1,,,,,,,,,762.6608831770718,stop,squareblack.png,right,0.15,,,,,,,,,,,,,,,,0.0024901852011680603,0.4886103495955467,0.6393925622105598,765.1643007136881,test,3,,,,,,,,,762.6807337142527,763.1774745248258,763.1774745248258,763.1941255629063,763.3281538076699,763.8433889634907,764.1769549027085,765.1837242655456,right,1,0.1,0.43359819054603577,,,,,,,,,,,s020,001,2024-07-26_09h12.18.085,simplestop_skeleton,2022.2.2,59.096570216440334,
None,None,,,,,,,,,2,0,2,0,7,1,29,3,,,,,,,,,765.1647408381104,go,circleblack.png,left,0.1,,,,,,,,,,,,,,,,0.001942310482263565,0.4893353171646595,,767.6846343353391,test,3,,,,,,,,,765.1837242655456,765.683967564255,765.683967564255,765.6968955732882,765.780108705163,766.2794175371528,766.6965076178312,767.7109973989427,left,1,0.1,0.30290401354432106,,,,,,,,,,,s020,001,2024-07-26_09h12.18.085,simplestop_skeleton,2022.2.2,59.096570216440334,
$currentCorrectResponse,$currentGoStim,,,,,,,,,2,0,2,0,7,2,30,0,,,,,,,,,767.6854150444269,go,circleblack.png,left,0.1,,,,,,,,,,,,,,,,0.0020982809364795685,0.4980615973472595,,770.2028717622161,test,3,,,,,,,,,767.7109973989427,768.2146956883371,768.2146956883371,768.2146956883371,768.3149443231523,768.8158129006624,769.2169786989689,770.2216837592423,left,1,0.1,0.35818667709827423,,,,,,,,,,,s020,001,2024-07-26_09h12.18.085,simplestop_skeleton,2022.2.2,59.096570216440334,
None,None,,,,,,,,,2,0,2,0,7,3,31,1,,,,,,,,,770.2033266350627,stop,circleblack.png,left,0.1,,,,,,,,,,,,,,,,0.0013590194284915924,0.48983410745859146,0.5898990482091904,772.7060098312795,test,3,,,,,,,,,770.2216837592423,770.7194436006248,770.7194436006248,770.7355995289981,770.8191275559366,771.3196888267994,771.7201076894999,772.7252789475024,None,0,0.15,,,,,,,,,,,,s020,001,2024-07-26_09h12.18.085,simplestop_skeleton,2022.2.2,59.096570216440334,
None,None,,,,,,,,,2,0,2,0,8,0,32,1,,,,,,,,,772.70645686239,go,squareblack.png,right,0.15,,,,,,,,,,,,,,,,0.001745373010635376,0.4896354265511036,,775.2087704539299,test,3,,,,,,,,,772.7252789475024,773.2217443548143,773.2217443548143,773.2384328246117,773.3721101693809,773.8710688054562,774.2217343598604,775.227623347193,right,1,0.15,0.32732225209474564,,,,,,,,,,,s020,001,2024-07-26_09h12.18.085,simplestop_skeleton,2022.2.2,59.096570216440334,
None,None,,,,,,,,,2,0,2,0,8,1,33,3,,,,,,,,,775.2092123702168,go,squareblack.png,right,0.15,,,,,,,,,,,,,,,,0.0014728717505931854,0.4892502687871456,,777.7106225341558,test,3,,,,,,,,,775.227623347193,775.7244710177183,775.7244710177183,775.7418568581343,775.8745027855039,776.3738884590566,776.7241302840412,777.7286432683468,right,1,0.15,0.32782870531082153,,,,,,,,,,,s020,001,2024-07-26_09h12.18.085,simplestop_skeleton,2022.2.2,59.096570216440334,
None,None,,,,,,,,,2,0,2,0,8,2,34,1,,,,,,,,,777.7111536338925,go,circleblack.png,left,0.15,,,,,,,,,,,,,,,,0.0018160007894039154,0.4898630641400814,,780.2144167944789,test,3,,,,,,,,,777.7286432683468,778.227408722043,778.227408722043,778.2438244223595,778.3774587959051,778.8783748410642,779.2275546044111,780.2357848584652,left,1,0.15,0.37361642345786095,,,,,,,,,,,s020,001,2024-07-26_09h12.18.085,simplestop_skeleton,2022.2.2,59.096570216440334,
None,None,,,,,,,,,2,0,2,0,8,3,35,1,,,,,,,,,780.2149486616254,go,squareblack.png,right,0.15,,,,,,,,,,,,,,,,0.0017997734248638153,0.4864598736166954,,782.7166350260377,test,3,,,,,,,,,780.2357848584652,780.7300150617957,780.7300150617957,780.7467475011945,780.8801298364997,781.3807344585657,781.7312106266618,782.73631259799,right,1,0.15,0.32966406270861626,,,,,,,,,,,s020,001,2024-07-26_09h12.18.085,simplestop_skeleton,2022.2.2,59.096570216440334,
None,None,,,,,,,,,2,0,2,0,9,0,36,3,,,,,,,,,782.7170822955668,go,circleblack.png,left,0.15,,,,,,,,,,,,,,,,0.0019621439278125763,0.48974083364009857,,785.2198050394654,test,3,,,,,,,,,782.73631259799,783.2327971793711,783.2327971793711,783.2495480254292,783.3828183934093,783.8833572268486,784.2338359579444,785.2390016056597,left,1,0.15,0.36258209869265556,,,,,,,,,,,s020,001,2024-07-26_09h12.18.085,simplestop_skeleton,2022.2.2,59.096570216440334,
$currentCorrectResponse,$currentGoStim,,,,,,,,,2,0,2,0,9,1,37,0,,,,,,,,,785.2202660366893,go,squareblack.png,right,0.15,,,,,,,,,,,,,,,,0.0016824975609779358,0.48977338895201683,,787.7222971692681,test,3,,,,,,,,,785.2390016056597,785.7358049750328,785.7358049750328,785.7526536509395,785.8845510371029,786.3849866203964,786.7351890206337,787.7413294799626,right,1,0.15,0.26990605518221855,,,,,,,,,,,s020,001,2024-07-26_09h12.18.085,simplestop_skeleton,2022.2.2,59.096570216440334,
None,None,,,,,,,,,2,0,2,0,9,2,38,3,,,,,,,,,787.7227367833257,go,squareblack.png,right,0.15,,,,,,,,,,,,,,,,0.0013203807175159454,0.48961134627461433,,790.2251320295036,test,3,,,,,,,,,787.7413294799626,788.2386456094682,788.2386456094682,788.2560106217861,788.3887787126005,788.9181193262339,789.238637920469,790.2444723173976,right,1,0.15,0.35578354075551033,,,,,,,,,,,s020,001,2024-07-26_09h12.18.085,simplestop_skeleton,2022.2.2,59.096570216440334,
None,None,,,,,,,,,2,0,2,0,9,3,39,2,,,,,,,,,790.2256019786,go,circleblack.png,left,0.15,,,,,,,,,,,,,,,,0.001891493797302246,0.48955217003822327,,792.7280138731003,test,3,,,,,,,,,790.2444723173976,790.7410426847637,790.7410426847637,790.757791057229,790.8916074447334,791.3917879089713,791.7425093390048,792.7472755908966,left,1,0.15,0.4018915966153145,,,,,,,,,,,s020,001,2024-07-26_09h12.18.085,simplestop_skeleton,2022.2.2,59.096570216440334,
None,None,,,,,,,,,2,0,2,0,10,0,40,3,,,,,,,,,792.7285492531955,stop,circleblack.png,left,0.15,,,,,,,,,,,,,,,,0.0014157257974147797,0.48914820700883865,0.6394213400781155,795.2296441346407,test,3,,,,,,,,,792.7472755908966,793.2439162135124,793.2439162135124,793.2604074403644,793.3940664976835,793.8946880884469,794.2450086399913,795.2476267069578,left,1,0.1,0.4231433905661106,,,,,,,,,,,s020,001,2024-07-26_09h12.18.085,simplestop_skeleton,2022.2.2,59.096570216440334,
$currentCorrectResponse,$currentGoStim,,,,,,,,,2,0,2,0,10,1,41,0,,,,,,,,,795.230127286166,go,circleblack.png,left,0.1,,,,,,,,,,,,,,,,0.0013457760214805603,0.4889585115015507,,797.7331287190318,test,3,,,,,,,,,795.2476267069578,795.7454671151936,795.7454671151936,795.7618537284434,795.845285743475,796.345924410969,796.7462194338441,797.7524040862918,left,1,0.1,0.41010982170701027,,,,,,,,,,,s020,001,2024-07-26_09h12.18.085,simplestop_skeleton,2022.2.2,59.096570216440334,
None,None,,,,,,,,,2,0,2,0,10,2,42,2,,,,,,,,,797.7335868552327,stop,circleblack.png,left,0.1,,,,,,,,,,,,,,,,0.0014585815370082855,0.48859238997101784,0.5908747799694538,800.2345692068338,test,3,,,,,,,,,797.7524040862918,798.248147148639,798.248147148639,798.2647231481969,798.3490469865501,798.8499213345349,799.2507960274816,800.2519229203463,None,0,0.15,,,,,,,,,,,,s020,001,2024-07-26_09h12.18.085,simplestop_skeleton,2022.2.2,59.096570216440334,
None,None,,,,,,,,,2,0,2,0,10,3,43,2,,,,,,,,,800.2350371703506,go,squareblack.png,right,0.15,,,,,,,,,,,,,,,,0.002224668860435486,0.4901248440146446,,802.7379344440997,test,3,,,,,,,,,800.2519229203463,800.7509948275983,800.7509948275983,800.7509948275983,800.9011816568673,801.4027627669275,801.7517792619765,802.75506240502,right,1,0.15,0.4276396930217743,,,,,,,,,,,s020,001,2024-07-26_09h12.18.085,simplestop_skeleton,2022.2.2,59.096570216440334,
None,None,,,,,,,,,2,0,2,0,11,0,44,2,,,,,,,,,802.738386746496,go,squareblack.png,right,0.15,,,,,,,,,,,,,,,,0.001205436885356903,0.4889802411198616,,805.2414022758603,test,3,,,,,,,,,802.75506240502,803.2533283233643,803.2533283233643,803.2698450945318,803.4033939018846,803.9040963090956,804.2556285262108,805.2608794607222,right,1,0.15,0.3909860625863075,,,,,,,,,,,s020,001,2024-07-26_09h12.18.085,simplestop_skeleton,2022.2.2,59.096570216440334,
$currentCorrectResponse,$currentGoStim,,,,,,,,,2,0,2,0,11,1,45,0,,,,,,,,,805.2418617382646,go,circleblack.png,left,0.15,,,,,,,,,,,,,,,,0.0017365887761116028,0.4901968948543072,,807.7441848777235,test,3,,,,,,,,,805.2608794607222,805.757611233741,805.757611233741,805.7741178683937,805.9078030996025,806.4086569771171,806.7582459449768,807.7684408798814,left,1,0.15,0.5065017938613892,,,,,,,,,,,s020,001,2024-07-26_09h12.18.085,simplestop_skeleton,2022.2.2,59.096570216440334,
$currentCorrectResponse,$currentGoStim,,,,,,,,,2,0,2,0,11,2,46,0,,,,,,,,,807.7446465939283,stop,squareblack.png,right,0.15,,,,,,,,,,,,,,,,0.002746429294347763,0.4857297018170357,0.6359056159853935,810.2471558228135,test,3,,,,,,,,,807.7684408798814,808.2604160271585,808.2604160271585,808.2772980183363,808.4106179103255,808.9110425598919,809.2615052349865,810.2662827186286,None,0,0.2,,,,,,,,,,,,s020,001,2024-07-26_09h12.18.085,simplestop_skeleton,2022.2.2,59.096570216440334,
None,None,,,,,,,,,2,0,2,0,11,3,47,2,,,,,,,,,810.2476041167974,stop,squareblack.png,right,0.2,,,,,,,,,,,,,,,,0.0013234689831733704,0.48945553973317146,0.6894977912306786,812.7500203885138,test,3,,,,,,,,,810.2662827186286,810.7631451934576,810.7631451934576,810.7797331176698,810.9633112438023,811.4640121236444,811.7641992792487,812.7666445076466,right,1,0.15,0.3458857238292694,,,,,,,,,,,s020,001,2024-07-26_09h12.18.085,simplestop_skeleton,2022.2.2,59.096570216440334,
