corrGoResp,shape,practiceBlocks.thisRepN,practiceBlocks.thisTrialN,practiceBlocks.thisN,practiceBlocks.thisIndex,practiceTrials.thisRepN,practiceTrials.thisTrialN,practiceTrials.thisN,practiceTrials.thisIndex,stopBlocks.thisRepN,stopBlocks.thisTrialN,stopBlocks.thisN,stopBlocks.thisIndex,testTrials.thisRepN,testTrials.thisTrialN,testTrials.thisN,testTrials.thisIndex,stopPracTrialList,Test Block: 1,welcome.started,start_exp.started,start_exp.keys,start_exp.rt,instrStopText.started,start_prac.started,StartTrialTimeStamp,trialType,goStim,correctResponse,ssd,fixation.started,rules.started,goStim.started,goResp.started,fixation.stopped,stopSignal.started,stopSignal.stopped,goStim.stopped,goResp.stopped,rules.stopped,goResp.keys,goResp.corr,goResp.rt,text.started,rules_2.started,text.stopped,rules_2.stopped,fixationOnset,goStimOnset,stopSignalOnset,EndTrialTimeStamp,Phase,Block,text_5.started,key_resp_3.started,key_resp_3.keys,key_resp_3.rt,key_resp.started,testText.started,test_fixation.started,goStim_test.started,goResp_test.started,test_fixation.stopped,stopSignal_test.started,stopSignal_test.stopped,goStim_test.stopped,goResp_test.stopped,goResp_test.keys,goResp_test.corr,goResp_test.rt,EndingSSD,text_6.started,key_resp_4.started,key_resp_4.keys,key_resp_4.rt,Test Block: 2,Test Block: 3,ending_text.started,end_resp.started,end_resp.keys,end_resp.rt,participant,session,date,expName,psychopyVersion,frameRate,
,,,,,,,,,,,,,,,,,,"[{'fileName': 'circleblack.png', 'correct_response': 'left', 'condition': 'go'}, {'fileName': 'squareblack.png', 'correct_response': 'right', 'condition': 'go'}, {'fileName': 'squareblack.png', 'correct_response': 'right', 'condition': 'go'}, {'fileName': 'squareblack.png', 'correct_response': 'right', 'condition': 'stop'}, {'fileName': 'circleblack.png', 'correct_response': 'left', 'condition': 'stop'}, {'fileName': 'circleblack.png', 'correct_response': 'left', 'condition': 'go'}, {'fileName': 'circleblack.png', 'correct_response': 'left', 'condition': 'go'}, {'fileName': 'squareblack.png', 'correct_response': 'right', 'condition': 'go'}, {'fileName': 'squareblack.png', 'correct_response': 'right', 'condition': 'stop'}, {'fileName': 'circleblack.png', 'correct_response': 'left', 'condition': 'go'}, {'fileName': 'squareblack.png', 'correct_response': 'right', 'condition': 'go'}, {'fileName': 'circleblack.png', 'correct_response': 'left', 'condition': 'stop'}, {'fileName': 'squareblack.png', 'correct_response': 'right', 'condition': 'stop'}, {'fileName': 'circleblack.png', 'correct_response': 'left', 'condition': 'stop'}, {'fileName': 'squareblack.png', 'correct_response': 'right', 'condition': 'go'}, {'fileName': 'circleblack.png', 'correct_response': 'left', 'condition': 'go'}, {'fileName': 'squareblack.png', 'correct_response': 'right', 'condition': 'stop'}, {'fileName': 'squareblack.png', 'correct_response': 'right', 'condition': 'go'}, {'fileName': 'circleblack.png', 'correct_response': 'left', 'condition': 'go'}, {'fileName': 'circleblack.png', 'correct_response': 'left', 'condition': 'go'}, {'fileName': 'squareblack.png', 'correct_response': 'right', 'condition': 'go'}, {'fileName': 'squareblack.png', 'correct_response': 'right', 'condition': 'go'}, {'fileName': 'circleblack.png', 'correct_response': 'left', 'condition': 'go'}, {'fileName': 'circleblack.png', 'correct_response': 'left', 'condition': 'stop'}]","[{'fileName': 'circleblack.png', 'correct_response': 'left', 'condition': 'go'}, {'fileName': 'circleblack.png', 'correct_response': 'left', 'condition': 'go'}, {'fileName': 'squareblack.png', 'correct_response': 'right', 'condition': 'stop'}, {'fileName': 'circleblack.png', 'correct_response': 'left', 'condition': 'go'}, {'fileName': 'squareblack.png', 'correct_response': 'right', 'condition': 'go'}, {'fileName': 'squareblack.png', 'correct_response': 'right', 'condition': 'go'}, {'fileName': 'circleblack.png', 'correct_response': 'left', 'condition': 'stop'}, {'fileName': 'squareblack.png', 'correct_response': 'right', 'condition': 'go'}, {'fileName': 'circleblack.png', 'correct_response': 'left', 'condition': 'stop'}, {'fileName': 'squareblack.png', 'correct_response': 'right', 'condition': 'stop'}, {'fileName': 'circleblack.png', 'correct_response': 'left', 'condition': 'go'}, {'fileName': 'squareblack.png', 'correct_response': 'right', 'condition': 'go'}, {'fileName': 'circleblack.png', 'correct_response': 'left', 'condition': 'go'}, {'fileName': 'circleblack.png', 'correct_response': 'left', 'condition': 'go'}, {'fileName': 'circleblack.png', 'correct_response': 'left', 'condition': 'stop'}, {'fileName': 'circleblack.png', 'correct_response': 'left', 'condition': 'stop'}, {'fileName': 'squareblack.png', 'correct_response': 'right', 'condition': 'stop'}, {'fileName': 'squareblack.png', 'correct_response': 'right', 'condition': 'go'}, {'fileName': 'squareblack.png', 'correct_response': 'right', 'condition': 'go'}, {'fileName': 'squareblack.png', 'correct_response': 'right', 'condition': 'go'}, {'fileName': 'squareblack.png', 'correct_response': 'right', 'condition': 'stop'}, {'fileName': 'squareblack.png', 'correct_response': 'right', 'condition': 'go'}, {'fileName': 'circleblack.png', 'correct_response': 'left', 'condition': 'go'}, {'fileName': 'circleblack.png', 'correct_response': 'left', 'condition': 'go'}, {'fileName': 'squareblack.png', 'correct_response': 'right', 'condition': 'go'}, {'fileName': 'circleblack.png', 'correct_response': 'left', 'condition': 'go'}, {'fileName': 'squareblack.png', 'correct_response': 'right', 'condition': 'stop'}, {'fileName': 'squareblack.png', 'correct_response': 'right', 'condition': 'go'}, {'fileName': 'circleblack.png', 'correct_response': 'left', 'condition': 'stop'}, {'fileName': 'circleblack.png', 'correct_response': 'left', 'condition': 'stop'}, {'fileName': 'squareblack.png', 'correct_response': 'right', 'condition': 'stop'}, {'fileName': 'circleblack.png', 'correct_response': 'left', 'condition': 'go'}, {'fileName': 'squareblack.png', 'correct_response': 'right', 'condition': 'go'}, {'fileName': 'squareblack.png', 'correct_response': 'right', 'condition': 'go'}, {'fileName': 'circleblack.png', 'correct_response': 'left', 'condition': 'go'}, {'fileName': 'circleblack.png', 'correct_response': 'left', 'condition': 'go'}, {'fileName': 'circleblack.png', 'correct_response': 'left', 'condition': 'stop'}, {'fileName': 'squareblack.png', 'correct_response': 'right', 'condition': 'stop'}, {'fileName': 'circleblack.png', 'correct_response': 'left', 'condition': 'stop'}, {'fileName': 'squareblack.png', 'correct_response': 'right', 'condition': 'stop'}, {'fileName': 'circleblack.png', 'correct_response': 'left', 'condition': 'go'}, {'fileName': 'circleblack.png', 'correct_response': 'left', 'condition': 'go'}, {'fileName': 'squareblack.png', 'correct_response': 'right', 'condition': 'go'}, {'fileName': 'squareblack.png', 'correct_response': 'right', 'condition': 'go'}, {'fileName': 'circleblack.png', 'correct_response': 'left', 'condition': 'go'}, {'fileName': 'squareblack.png', 'correct_response': 'right', 'condition': 'go'}, {'fileName': 'squareblack.png', 'correct_response': 'right', 'condition': 'go'}, {'fileName': 'circleblack.png', 'correct_response': 'left', 'condition': 'go'}]",1723.2488090619445,1723.2488090619445,return,2.971237063407898,,,,,,,,,,,,,,,,,,,,,,,,,,,,,,,,,,,,,,,,,,,,,,,,,,,,,,,,,,,s038,001,2024-09-26_11h02.24.969,simplestop_skeleton,2022.2.2,60.58202883269517,
None,None,0,0,0,0,0,0,0,3,,,,,,,,,,,,,,,1726.260848224163,1726.260848224163,1795.3880029544234,go,circleblack.png,left,0.35,1795.411621965468,1795.411621965468,1795.9033931940794,1795.9033931940794,1795.9203314855695,1796.254043214023,1796.7542598545551,1796.904803238809,1797.90593034029,1797.9222611263394,left,1,1.039037249982357,1797.9222611263394,1797.9222611263394,1798.4313606247306,1798.4313606247306,0.00350981205701828,0.48865263164043427,0.8391771987080574,1798.4072702005506,practice,1,,,,,,,,,,,,,,,,,,,,,,,,,,,,,s038,001,2024-09-26_11h02.24.969,simplestop_skeleton,2022.2.2,60.58202883269517,
$currentCorrectResponse,$currentGoStim,0,0,0,0,0,1,1,0,,,,,,,,,,,,,,,,,1798.4078033268452,go,squareblack.png,right,0.35,1798.4313606247306,1798.4313606247306,1798.9233334213495,1798.9233334213495,1798.940176524222,1799.272935256362,1799.7743232548237,1799.9246328920126,1800.9256921932101,1800.9423696398735,right,1,0.5277629122138023,1800.9423696398735,1800.9423696398735,,,0.007250577211380005,0.4897305890917778,0.8395116776227951,1801.4271782264113,practice,1,,,,,,,,,,,,,,,,,,,,,,,,,,,,,s038,001,2024-09-26_11h02.24.969,simplestop_skeleton,2022.2.2,60.58202883269517,
None,None,0,0,0,0,0,2,2,2,,,,,,,,,,,,,,,,,1801.4276158586144,go,squareblack.png,right,0.35,1801.4467647373676,1801.4467647373676,1801.9433517232537,1801.9433517232537,1801.96018576622,1802.2936707437038,1802.794313982129,1802.9433974027634,1803.9455047547817,1803.962154403329,right,1,0.5940745770931244,1803.962154403329,1803.962154403329,1804.4665138423443,1804.4665138423443,0.0012338310480117798,0.49003755301237106,0.8404415845870972,1804.4469411820173,practice,1,,,,,,,,,,,,,,,,,,,,,,,,,,,,,s038,001,2024-09-26_11h02.24.969,simplestop_skeleton,2022.2.2,60.58202883269517,
None,None,0,0,0,0,0,3,3,3,,,,,,,,,,,,,,,,,1804.4473600536585,stop,squareblack.png,right,0.35,1804.4665138423443,1804.4665138423443,1804.9634287580848,1804.9634287580848,1804.9801105558872,1805.313823491335,1805.8296902030706,1805.9636115431786,1806.965449027717,1806.9821792468429,right,1,0.4391815960407257,1806.9821792468429,1806.9821792468429,1807.4922320768237,1807.4922320768237,0.0012223348021507263,0.490001380443573,0.8405203446745872,1807.4671094492078,practice,1,,,,,,,,,,,,,,,,,,,,,,,,,,,,,s038,001,2024-09-26_11h02.24.969,simplestop_skeleton,2022.2.2,60.58202883269517,
None,None,0,0,0,0,1,0,4,1,,,,,,,,,,,,,,,,,1807.4675344526768,stop,circleblack.png,left,0.3,1807.4922320768237,1807.4922320768237,1807.9833254292607,1807.9833254292607,1807.9999406635761,1808.2839006856084,1808.7854675725102,1808.9838512018323,1809.9859004244208,1810.00223762542,left,1,0.4217262864112854,1810.00223762542,1810.00223762542,1810.5067034065723,1810.5067034065723,0.007904067635536194,0.49036963284015656,0.7907524481415749,1810.4871597662568,practice,1,,,,,,,,,,,,,,,,,,,,,,,,,,,,,s038,001,2024-09-26_11h02.24.969,simplestop_skeleton,2022.2.2,60.58202883269517,
None,None,0,0,0,0,1,1,5,3,,,,,,,,,,,,,,,,,1810.4875751659274,go,circleblack.png,left,0.25,1810.5067034065723,1810.5067034065723,1811.0032338947058,1811.0032338947058,1811.0200220495462,1811.253770031035,1811.7544905915856,1812.0047909542918,1813.0056551247835,1813.022209070623,None,0,,1813.022209070623,1813.022209070623,1813.5267326012254,1813.5267326012254,0.0012753978371620178,0.4901775196194649,0.7401369959115982,1813.507146783173,practice,1,,,,,,,,,,,,,,,,,,,,,,,,,,,,,s038,001,2024-09-26_11h02.24.969,simplestop_skeleton,2022.2.2,60.58202883269517,
None,None,0,0,0,0,1,2,6,3,,,,,,,,,,,,,,,,,1813.5075981095433,go,circleblack.png,left,0.25,1813.5267326012254,1813.5267326012254,1814.0234542116523,1814.0234542116523,1814.0402314066887,1814.2739317193627,1814.7895210534334,1815.023771032691,1816.0254504978657,1816.042294293642,left,1,0.4464188814163208,1816.042294293642,1816.042294293642,,,0.0013558194041252136,0.4898458197712898,0.7401804551482201,1816.527129009366,practice,1,,,,,,,,,,,,,,,,,,,,,,,,,,,,,s038,001,2024-09-26_11h02.24.969,simplestop_skeleton,2022.2.2,60.58202883269517,
None,None,0,0,0,0,1,3,7,1,,,,,,,,,,,,,,,,,1816.5275599956512,go,squareblack.png,right,0.25,1816.5468739047647,1816.5468739047647,1817.0434572547674,1817.0434572547674,1817.0599550902843,1817.2938489839435,1817.7929340600967,1818.043614372611,1819.0457266196609,1819.0623905733228,right,1,0.34514597803354263,1819.0623905733228,1819.0623905733228,1819.5667433217168,1819.5667433217168,0.0017053112387657166,0.49055229872465134,0.7404012233018875,1819.5472616776824,practice,1,,,,,,,,,,,,,,,,,,,,,,,,,,,,,s038,001,2024-09-26_11h02.24.969,simplestop_skeleton,2022.2.2,60.58202883269517,
None,None,0,0,0,0,2,0,8,2,,,,,,,,,,,,,,,,,1819.5476843714714,stop,squareblack.png,right,0.25,1819.5667433217168,1819.5667433217168,1820.0634505078197,1820.0634505078197,1820.0802355706692,1820.3138593360782,1820.8142619729042,1821.0654026269913,1822.0656056329608,1822.0823357254267,right,1,0.6166602894663811,1822.0823357254267,1822.0823357254267,,,0.0011840984225273132,0.49003445357084274,0.7401756197214127,1822.5670565739274,practice,1,,,,,,,,,,,,,,,,,,,,,,,,,,,,,s038,001,2024-09-26_11h02.24.969,simplestop_skeleton,2022.2.2,60.58202883269517,
None,None,0,0,0,0,2,1,9,2,,,,,,,,,,,,,,,,,1822.5674943998456,go,circleblack.png,left,0.2,1822.5872438251972,1822.5872438251972,1823.083603233099,1823.083603233099,1823.10006955266,1823.2837221100926,1823.7994512543082,1824.0840118825436,1825.0856123492122,1825.1023706644773,left,1,0.3943312093615532,1825.1023706644773,1825.1023706644773,,,0.0018915608525276184,0.4899500831961632,0.6905048787593842,1825.58709936589,practice,1,,,,,,,,,,,,,,,,,,,,,,,,,,,,,s038,001,2024-09-26_11h02.24.969,simplestop_skeleton,2022.2.2,60.58202883269517,
None,None,0,0,0,0,2,2,10,1,,,,,,,,,,,,,,,,,1825.587519571185,go,squareblack.png,right,0.2,1825.6068428084254,1825.6068428084254,1826.1036331951618,1826.1036331951618,1826.1203333511949,1826.3033941611648,1826.8040759563446,1827.103962160647,1828.105847209692,1828.122221969068,right,1,0.4142890125513077,1828.122221969068,1828.122221969068,1828.6270564571023,1828.6270564571023,0.0016921982169151306,0.48992982506752014,0.6902236193418503,1828.6069910898805,practice,1,,,,,,,,,,,,,,,,,,,,,,,,,,,,,s038,001,2024-09-26_11h02.24.969,simplestop_skeleton,2022.2.2,60.58202883269517,
$currentCorrectResponse,$currentGoStim,0,0,0,0,2,3,11,0,,,,,,,,,,,,,,,,,1828.607413828373,stop,circleblack.png,left,0.2,1828.6270564571023,1828.6270564571023,1829.1234052926302,1829.1234052926302,1829.1400394067168,1829.3224390298128,1829.8244455903769,1830.124621488154,1831.1256949305534,1831.142410904169,left,1,0.45886949449777603,1831.142410904169,1831.142410904169,,,0.0018077567219734192,0.49004852026700974,0.6890541240572929,1831.627104125917,practice,1,,,,,,,,,,,,,,,,,,,,,,,,,,,,,s038,001,2024-09-26_11h02.24.969,simplestop_skeleton,2022.2.2,60.58202883269517,
None,None,0,0,0,0,3,0,12,1,,,,,,,,,,,,,,,,,1831.6275233775377,stop,squareblack.png,right,0.15,1831.6471209824085,1831.6471209824085,1832.1435617133975,1832.1435617133975,1832.1599378064275,1832.2937412038445,1832.7940080985427,1833.1446316242218,1834.1453671082854,1834.161969922483,None,0,,1834.161969922483,1834.161969922483,1834.6668191924691,1834.6668191924691,0.001731276512145996,0.489867128431797,0.6399446204304695,1834.6469093859196,practice,1,,,,,,,,,,,,,,,,,,,,,,,,,,,,,s038,001,2024-09-26_11h02.24.969,simplestop_skeleton,2022.2.2,60.58202883269517,
None,None,0,0,0,0,3,1,13,2,,,,,,,,,,,,,,,,,1834.6473269537091,stop,circleblack.png,left,0.2,1834.6668191924691,1834.6668191924691,1835.1632276400924,1835.1632276400924,1835.1802191510797,1835.363439872861,1835.8639634624124,1836.1643613353372,1837.1653643473983,1837.182357057929,None,0,,1837.182357057929,1837.182357057929,,,0.0018449798226356506,0.4900258705019951,0.6900972127914429,1837.6676219701767,practice,1,,,,,,,,,,,,,,,,,,,,,,,,,,,,,s038,001,2024-09-26_11h02.24.969,simplestop_skeleton,2022.2.2,60.58202883269517,
$currentCorrectResponse,$currentGoStim,0,0,0,0,3,2,14,0,,,,,,,,,,,,,,,,,1837.6683265715837,go,squareblack.png,right,0.25,1837.6879976466298,1837.6879976466298,1838.1821417063475,1838.1821417063475,1838.2004571259022,1838.4330117851496,1838.9341016411781,1839.1844440996647,1840.1856959164143,1840.2022832036018,right,1,0.40772270411252975,1840.2022832036018,1840.2022832036018,1840.7071836143732,1840.7071836143732,0.0023480281233787537,0.48951322585344315,0.7389067485928535,1840.6869523972273,practice,1,,,,,,,,,,,,,,,,,,,,,,,,,,,,,s038,001,2024-09-26_11h02.24.969,simplestop_skeleton,2022.2.2,60.58202883269517,
None,None,0,0,0,0,3,3,15,2,,,,,,,,,,,,,,,,,1840.6873764693737,go,circleblack.png,left,0.25,1840.7071836143732,1840.7071836143732,1841.203390493989,1841.203390493989,1841.2200157642365,1841.4537862762809,1841.9541609808803,1842.2039509639144,1843.2055642083287,1843.2223694697022,left,1,0.5025059729814529,1843.2223694697022,1843.2223694697022,1843.7274215742946,1843.7274215742946,0.0018542185425758362,0.4903659075498581,0.7405680269002914,1843.7069257199764,practice,1,,,,,,,,,,,,,,,,,,,,,,,,,,,,,s038,001,2024-09-26_11h02.24.969,simplestop_skeleton,2022.2.2,60.58202883269517,
$currentCorrectResponse,$currentGoStim,0,0,0,0,4,0,16,0,,,,,,,,,,,,,,,,,1843.7073396220803,stop,squareblack.png,right,0.25,1843.7274215742946,1843.7274215742946,1844.223600961268,1844.223600961268,1844.240362636745,1844.4740074798465,1844.9741824492812,1845.224429704249,1846.2255284041166,1846.2424890846014,None,0,,1846.2424890846014,1846.2424890846014,1846.7464725598693,1846.7464725598693,0.0017114952206611633,0.49001651257276535,0.7404072284698486,1846.7271408066154,practice,1,,,,,,,,,,,,,,,,,,,,,,,,,,,,,s038,001,2024-09-26_11h02.24.969,simplestop_skeleton,2022.2.2,60.58202883269517,
None,None,0,0,0,0,4,1,17,1,,,,,,,,,,,,,,,,,1846.7275602668524,go,squareblack.png,right,0.3,1846.7464725598693,1846.7464725598693,1847.2434210553765,1847.2434210553765,1847.2601903304458,1847.5437798202038,1848.0441657453775,1848.2446011379361,1849.24551948905,1849.24551948905,left,0,0.368206188082695,1849.24551948905,1849.24551948905,1849.7503632828593,1849.7503632828593,0.0011782869696617126,0.49005693942308426,0.7903609946370125,1849.730601631105,practice,1,,,,,,,,,,,,,,,,,,,,,,,,,,,,,s038,001,2024-09-26_11h02.24.969,simplestop_skeleton,2022.2.2,60.58202883269517,
$currentCorrectResponse,$currentGoStim,0,0,0,0,4,2,18,0,,,,,,,,,,,,,,,,,1849.7310186177492,go,circleblack.png,left,0.3,1849.7503632828593,1849.7503632828593,1850.2467597350478,1850.2467597350478,1850.2635837048292,1850.5470970794559,1851.0463046655059,1851.2476681545377,1852.2489041239023,1852.2653845697641,left,1,0.3678441345691681,1852.2653845697641,1852.2653845697641,1852.7702435702085,1852.7702435702085,0.0018739700317382812,0.49018674343824387,0.7902976050972939,1852.7504291534424,practice,1,,,,,,,,,,,,,,,,,,,,,,,,,,,,,s038,001,2024-09-26_11h02.24.969,simplestop_skeleton,2022.2.2,60.58202883269517,
None,None,0,0,0,0,4,3,19,3,,,,,,,,,,,,,,,,,1852.7508410960436,go,circleblack.png,left,0.3,1852.7702435702085,1852.7702435702085,1853.266670756042,1853.266670756042,1853.283479206264,1853.5670434311032,1854.0660552605987,1854.267141930759,1855.2687376514077,1855.2854668721557,left,1,0.5025545582175255,1855.2854668721557,1855.2854668721557,,,0.0013957098126411438,0.4899149686098099,0.7905819788575172,1855.7702668830752,practice,1,,,,,,,,,,,,,,,,,,,,,,,,,,,,,s038,001,2024-09-26_11h02.24.969,simplestop_skeleton,2022.2.2,60.58202883269517,
None,None,0,0,0,0,5,0,20,1,,,,,,,,,,,,,,,,,1855.7706870138645,go,squareblack.png,right,0.3,1855.7901963368058,1855.7901963368058,1856.2866458520293,1856.2866458520293,1856.303266003728,1856.586906850338,1857.0882956907153,1857.2865215018392,1858.2890500724316,1858.3057431057096,right,1,0.6065620258450508,1858.3057431057096,1858.3057431057096,1858.809946589172,1858.809946589172,0.0016937479376792908,0.49021468311548233,0.7908522263169289,1858.7905135303736,practice,1,,,,,,,,,,,,,,,,,,,,,,,,,,,,,s038,001,2024-09-26_11h02.24.969,simplestop_skeleton,2022.2.2,60.58202883269517,
$currentCorrectResponse,$currentGoStim,0,0,0,0,5,1,21,0,,,,,,,,,,,,,,,,,1858.790928453207,go,squareblack.png,right,0.3,1858.809946589172,1858.809946589172,1859.3053959161043,1859.3053959161043,1859.3222196027637,1859.6070191413164,1860.1078030616045,1860.3076345920563,1861.3089047297835,1861.3256010711193,right,1,0.47538726031780243,1861.3256010711193,1861.3256010711193,1861.8303607702255,1861.8303607702255,0.0012083649635314941,0.48849812150001526,0.7897825539112091,1861.8103219643235,practice,1,,,,,,,,,,,,,,,,,,,,,,,,,,,,,s038,001,2024-09-26_11h02.24.969,simplestop_skeleton,2022.2.2,60.58202883269517,
None,None,0,0,0,0,5,2,22,2,,,,,,,,,,,,,,,,,1861.8107480555773,go,circleblack.png,left,0.3,1861.8303607702255,1861.8303607702255,1862.326751254499,1862.326751254499,1862.3434531763196,1862.6270046010613,1863.1264986917377,1863.327335074544,1864.3290571048856,1864.3456174433231,left,1,0.32340021431446075,1864.3456174433231,1864.3456174433231,1864.8501271903515,1864.8501271903515,0.0018884390592575073,0.48986315727233887,0.7902925461530685,1864.8304216861725,practice,1,,,,,,,,,,,,,,,,,,,,,,,,,,,,,s038,001,2024-09-26_11h02.24.969,simplestop_skeleton,2022.2.2,60.58202883269517,
None,None,0,0,0,0,5,3,23,3,,,,,,,,,,,,,,,,,1864.8308304920793,stop,circleblack.png,left,0.3,1864.8501271903515,1864.8501271903515,1865.3468338176608,1865.3468338176608,1865.3635023608804,1865.646915346384,1866.1476439386606,1866.3478808999062,1867.3487758785486,1867.3654555380344,None,0,,1867.3654555380344,1867.3654555380344,,,0.0013302713632583618,0.49014949798583984,0.7905240952968597,1867.850298218429,practice,1,,,,,,,,,,,,,,,,,,,,,,,,,,,,,s038,001,2024-09-26_11h02.24.969,simplestop_skeleton,2022.2.2,60.58202883269517,
,,0,0,0,0,,,,,,,,,,,,,"[{'fileName': 'circleblack.png', 'correct_response': 'left', 'condition': 'go'}, {'fileName': 'squareblack.png', 'correct_response': 'right', 'condition': 'go'}, {'fileName': 'circleblack.png', 'correct_response': 'left', 'condition': 'stop'}, {'fileName': 'squareblack.png', 'correct_response': 'right', 'condition': 'go'}, {'fileName': 'circleblack.png', 'correct_response': 'left', 'condition': 'go'}, {'fileName': 'circleblack.png', 'correct_response': 'left', 'condition': 'go'}, {'fileName': 'circleblack.png', 'correct_response': 'left', 'condition': 'stop'}, {'fileName': 'squareblack.png', 'correct_response': 'right', 'condition': 'go'}, {'fileName': 'squareblack.png', 'correct_response': 'right', 'condition': 'go'}, {'fileName': 'squareblack.png', 'correct_response': 'right', 'condition': 'stop'}, {'fileName': 'circleblack.png', 'correct_response': 'left', 'condition': 'go'}, {'fileName': 'squareblack.png', 'correct_response': 'right', 'condition': 'stop'}, {'fileName': 'circleblack.png', 'correct_response': 'left', 'condition': 'go'}, {'fileName': 'squareblack.png', 'correct_response': 'right', 'condition': 'go'}, {'fileName': 'squareblack.png', 'correct_response': 'right', 'condition': 'go'}, {'fileName': 'squareblack.png', 'correct_response': 'right', 'condition': 'go'}, {'fileName': 'circleblack.png', 'correct_response': 'left', 'condition': 'stop'}, {'fileName': 'circleblack.png', 'correct_response': 'left', 'condition': 'stop'}, {'fileName': 'squareblack.png', 'correct_response': 'right', 'condition': 'stop'}, {'fileName': 'squareblack.png', 'correct_response': 'right', 'condition': 'stop'}, {'fileName': 'circleblack.png', 'correct_response': 'left', 'condition': 'go'}, {'fileName': 'squareblack.png', 'correct_response': 'right', 'condition': 'go'}, {'fileName': 'circleblack.png', 'correct_response': 'left', 'condition': 'go'}, {'fileName': 'circleblack.png', 'correct_response': 'left', 'condition': 'go'}]",,,,,,,,,,,,,,,,,,,,,,,,,,,,,,,,,,,,1867.8683146834373,1867.8683146834373,return,6.222177162766457,,,,,,,,,,,,,,,,,,,,,,,,,s038,001,2024-09-26_11h02.24.969,simplestop_skeleton,2022.2.2,60.58202883269517,
None,None,,,,,,,,,0,0,0,0,0,0,0,1,,,,,,,,,1885.0353293269873,go,circleblack.png,left,0.35,,,,,,,,,,,,,,,,,,0.0023348405957221985,0.49075327813625336,,1887.5393717736006,test,1,,,,,1874.1230288892984,1874.1230288892984,1885.054725304246,1885.5523475036025,1885.5523475036025,1885.5689336583018,1885.9026600942016,1886.4031605795026,1886.553513765335,1887.5584437400103,left,1,0.4196821078658104,0.35,,,,,,,,,,,s038,001,2024-09-26_11h02.24.969,simplestop_skeleton,2022.2.2,60.58202883269517,
None,None,,,,,,,,,0,0,0,0,0,1,1,3,,,,,,,,,1887.539914175868,go,circleblack.png,left,0.35,,,,,,,,,,,,,,,,,,0.0014396756887435913,0.48948049545288086,,1890.0419788882136,test,1,,,,,,,1887.5584437400103,1888.054948978126,1888.054948978126,1888.0720653161407,1888.4058417752385,1888.9056474789977,1889.0555553212762,1890.065959572792,left,1,0.3449728861451149,0.35,,,,,,,,,,,s038,001,2024-09-26_11h02.24.969,simplestop_skeleton,2022.2.2,60.58202883269517,
$currentCorrectResponse,$currentGoStim,,,,,,,,,0,0,0,0,0,2,2,0,,,,,,,,,1890.0424261838198,stop,squareblack.png,right,0.35,,,,,,,,,,,,,,,,,,0.007234342396259308,0.4895358458161354,0.8400292843580246,1892.544807113707,test,1,,,,,,,1890.065959572792,1890.5578836351633,1890.5578836351633,1890.574391759932,1890.9080332294106,1891.4074566438794,1891.558016680181,1892.5643037259579,right,1,0.4012645557522774,0.3,,,,,,,,,,,s038,001,2024-09-26_11h02.24.969,simplestop_skeleton,2022.2.2,60.58202883269517,
None,None,,,,,,,,,0,0,0,0,0,3,3,1,,,,,,,,,1892.5452401861548,go,circleblack.png,left,0.3,,,,,,,,,,,,,,,,,,0.0019334778189659119,0.48940370976924896,,1895.0472012534738,test,1,,,,,,,1892.5643037259579,1893.060462795198,1893.060462795198,1893.0775873214006,1893.3608703240752,1893.861561216414,1894.062609218061,1895.0662535130978,left,1,0.5900539234280586,0.3,,,,,,,,,,,s038,001,2024-09-26_11h02.24.969,simplestop_skeleton,2022.2.2,60.58202883269517,
None,None,,,,,,,,,0,0,0,0,1,0,4,3,,,,,,,,,1895.0476439669728,go,squareblack.png,right,0.3,,,,,,,,,,,,,,,,,,0.001620747148990631,0.48996608704328537,,1897.549944728613,test,1,,,,,,,1895.0662535130978,1895.563403710723,1895.563403710723,1895.5800601541996,1895.863755568862,1896.3627655133605,1896.5640488043427,1897.568635456264,right,1,0.46265260875225067,0.3,,,,,,,,,,,s038,001,2024-09-26_11h02.24.969,simplestop_skeleton,2022.2.2,60.58202883269517,
None,None,,,,,,,,,0,0,0,0,1,1,5,1,,,,,,,,,1897.5503759011626,go,squareblack.png,right,0.3,,,,,,,,,,,,,,,,,,0.0012686103582382202,0.48991645872592926,,1900.0530065074563,test,1,,,,,,,1897.568635456264,1898.0660382509232,1898.0660382509232,1898.0829304382205,1898.3665286004543,1898.8821988105774,1899.0665747746825,1900.0722429603338,right,1,0.46448924392461777,0.3,,,,,,,,,,,s038,001,2024-09-26_11h02.24.969,simplestop_skeleton,2022.2.2,60.58202883269517,
$currentCorrectResponse,$currentGoStim,,,,,,,,,0,0,0,0,1,2,6,0,,,,,,,,,1900.0534511432052,stop,circleblack.png,left,0.3,,,,,,,,,,,,,,,,,,0.001875557005405426,0.4894303008913994,0.7900562807917595,1902.555975407362,test,1,,,,,,,1900.0722429603338,1900.568763628602,1900.568763628602,1900.5855048447847,1900.869431912899,1901.36962261796,1901.568613909185,1902.5750925838947,left,1,0.5727002248167992,0.25,,,,,,,,,,,s038,001,2024-09-26_11h02.24.969,simplestop_skeleton,2022.2.2,60.58202883269517,
$currentCorrectResponse,$currentGoStim,,,,,,,,,0,0,0,0,1,3,7,0,,,,,,,,,1902.5564106330276,go,squareblack.png,right,0.25,,,,,,,,,,,,,,,,,,0.0017555207014083862,0.4893413782119751,,1905.058212712407,test,1,,,,,,,1902.5750925838947,1903.0717032030225,1903.0717032030225,1903.088194705546,1903.3218734115362,1903.822246722877,1904.071427538991,1905.0772583782673,right,1,0.6777038350701332,0.25,,,,,,,,,,,s038,001,2024-09-26_11h02.24.969,simplestop_skeleton,2022.2.2,60.58202883269517,
None,None,,,,,,,,,0,0,0,0,2,0,8,3,,,,,,,,,1905.0586541295052,stop,circleblack.png,left,0.25,,,,,,,,,,,,,,,,,,0.001755930483341217,0.4899085536599159,0.7400565519928932,1907.5609216094017,test,1,,,,,,,1905.0772583782673,1905.574181817472,1905.574181817472,1905.5909850150347,1905.8246144652367,1906.3250087872148,1906.575356297195,1907.5800175890326,None,0,,0.3,,,,,,,,,,,s038,001,2024-09-26_11h02.24.969,simplestop_skeleton,2022.2.2,60.58202883269517,
None,None,,,,,,,,,0,0,0,0,2,1,9,3,,,,,,,,,1907.5613639578223,stop,squareblack.png,right,0.3,,,,,,,,,,,,,,,,,,0.0016690120100975037,0.49002693593502045,0.7901651337742805,1910.064126111567,test,1,,,,,,,1907.5800175890326,1908.0769909471273,1908.0769909471273,1908.093676969409,1908.3781154304743,1908.893383346498,1909.077793635428,1910.0834027007222,right,1,0.46837060153484344,0.25,,,,,,,,,,,s038,001,2024-09-26_11h02.24.969,simplestop_skeleton,2022.2.2,60.58202883269517,
None,None,,,,,,,,,0,0,0,0,2,2,10,2,,,,,,,,,1910.0645969584584,go,circleblack.png,left,0.25,,,,,,,,,,,,,,,,,,0.0018607079982757568,0.4895187094807625,,1912.566620670259,test,1,,,,,,,1910.0834027007222,1910.580282151699,1910.580282151699,1910.5964089110494,1910.8303988203406,1911.346067391336,1911.5804569795728,1912.5856177434325,left,1,0.4391199201345444,0.25,,,,,,,,,,,s038,001,2024-09-26_11h02.24.969,simplestop_skeleton,2022.2.2,60.58202883269517,
$currentCorrectResponse,$currentGoStim,,,,,,,,,0,0,0,0,2,3,11,0,,,,,,,,,1912.5670491307974,go,squareblack.png,right,0.25,,,,,,,,,,,,,,,,,,0.00152607262134552,0.48960401862859726,,1915.0694691687822,test,1,,,,,,,1912.5856177434325,1913.0826801285148,1913.0826801285148,1913.0993338376284,1913.332844004035,1913.8509364053607,1914.08308532089,1915.0887091979384,right,1,0.34946807473897934,0.25,,,,,,,,,,,s038,001,2024-09-26_11h02.24.969,simplestop_skeleton,2022.2.2,60.58202883269517,
None,None,,,,,,,,,0,0,0,0,3,0,12,1,,,,,,,,,1915.0699115768075,go,circleblack.png,left,0.25,,,,,,,,,,,,,,,,,,0.001908630132675171,0.48962415009737015,,1917.5722457692027,test,1,,,,,,,1915.0887091979384,1915.5853710621595,1915.5853710621595,1915.6020138040185,1915.8354615271091,1916.3363814353943,1916.5865407809615,1917.591457620263,left,1,0.7121495977044106,0.25,,,,,,,,,,,s038,001,2024-09-26_11h02.24.969,simplestop_skeleton,2022.2.2,60.58202883269517,
None,None,,,,,,,,,0,0,0,0,3,1,13,1,,,,,,,,,1917.572681479156,go,circleblack.png,left,0.25,,,,,,,,,,,,,,,,,,0.0014178305864334106,0.4896658584475517,,1920.0747341737151,test,1,,,,,,,1917.591457620263,1918.0881097018719,1918.0881097018719,1918.1050891801715,1918.338236182928,1918.8389166891575,1919.0879408493638,1920.093642346561,left,1,0.5560476332902908,0.25,,,,,,,,,,,s038,001,2024-09-26_11h02.24.969,simplestop_skeleton,2022.2.2,60.58202883269517,
None,None,,,,,,,,,0,0,0,0,3,2,14,3,,,,,,,,,1920.0751686021686,stop,circleblack.png,left,0.25,,,,,,,,,,,,,,,,,,0.0012443438172340393,0.4897664561867714,0.7401351481676102,1922.5775917991996,test,1,,,,,,,1920.093642346561,1920.5907568708062,1920.5907568708062,1920.6076136603951,1920.8410917520523,1921.3415172845125,1921.5918160378933,1922.596483938396,None,0,,0.3,,,,,,,,,,,s038,001,2024-09-26_11h02.24.969,simplestop_skeleton,2022.2.2,60.58202883269517,
$currentCorrectResponse,$currentGoStim,,,,,,,,,0,0,0,0,3,3,15,0,,,,,,,,,1922.578024506569,stop,circleblack.png,left,0.3,,,,,,,,,,,,,,,,,,0.0014292970299720764,0.4897495433688164,0.7898988276720047,1925.0803507566452,test,1,,,,,,,1922.596483938396,1923.0937152057886,1923.0937152057886,1923.110280290246,1923.394033640623,1923.8947562724352,1924.0947113782167,1925.0994151458144,None,0,,0.35,,,,,,,,,,,s038,001,2024-09-26_11h02.24.969,simplestop_skeleton,2022.2.2,60.58202883269517,
$currentCorrectResponse,$currentGoStim,,,,,,,,,0,0,0,0,4,0,16,0,,,,,,,,,1925.0807849615812,stop,squareblack.png,right,0.35,,,,,,,,,,,,,,,,,,0.0016720965504646301,0.4899050369858742,0.8402702510356903,1927.5831263139844,test,1,,,,,,,1925.0994151458144,1925.596468001604,1925.596468001604,1925.6131107509136,1925.9467837810516,1926.447431780398,1926.5972851738334,1927.6007150784135,None,0,,0.4,,,,,,,,,,,s038,001,2024-09-26_11h02.24.969,simplestop_skeleton,2022.2.2,60.58202883269517,
None,None,,,,,,,,,0,0,0,0,4,1,17,2,,,,,,,,,1927.5835538357496,go,squareblack.png,right,0.4,,,,,,,,,,,,,,,,,,0.0012274160981178284,0.4900132045149803,,1930.0856821760535,test,1,,,,,,,1927.6007150784135,1928.0991112589836,1928.0991112589836,1928.1156543120742,1928.4994799941778,1928.998647160828,1929.099418900907,1930.104412548244,right,1,0.5353017672896385,0.4,,,,,,,,,,,s038,001,2024-09-26_11h02.24.969,simplestop_skeleton,2022.2.2,60.58202883269517,
None,None,,,,,,,,,0,0,0,0,4,2,18,2,,,,,,,,,1930.0861224979162,go,squareblack.png,right,0.4,,,,,,,,,,,,,,,,,,0.0012913569808006287,0.4897289127111435,,1932.5885189026594,test,1,,,,,,,1930.104412548244,1930.6020862683654,1930.6020862683654,1930.6187485978007,1931.0012082904577,1931.5034665092826,1931.601803995669,1932.606124907732,right,1,0.5826843529939651,0.4,,,,,,,,,,,s038,001,2024-09-26_11h02.24.969,simplestop_skeleton,2022.2.2,60.58202883269517,
None,None,,,,,,,,,0,0,0,0,4,3,19,3,,,,,,,,,1932.5889589488506,go,squareblack.png,right,0.4,,,,,,,,,,,,,,,,,,0.0011784136295318604,0.488818421959877,,1935.0914663597941,test,1,,,,,,,1932.606124907732,1933.1034992039204,1933.1034992039204,1933.120060712099,1933.5052439197898,1934.0044735968113,1934.1060544624925,1935.1101259887218,right,1,0.5991543084383011,0.4,,,,,,,,,,,s038,001,2024-09-26_11h02.24.969,simplestop_skeleton,2022.2.2,60.58202883269517,
$currentCorrectResponse,$currentGoStim,,,,,,,,,0,0,0,0,5,0,20,0,,,,,,,,,1935.0919038280845,stop,squareblack.png,right,0.4,,,,,,,,,,,,,,,,,,0.0013762861490249634,0.4899192452430725,0.8900437578558922,1937.5944342464209,test,1,,,,,,,1935.1101259887218,1935.6074823737144,1935.6074823737144,1935.6243042349815,1936.0078072920442,1936.508845858276,1936.608933761716,1937.6138726174831,None,0,,0.45,,,,,,,,,,,s038,001,2024-09-26_11h02.24.969,simplestop_skeleton,2022.2.2,60.58202883269517,
None,None,,,,,,,,,0,0,0,0,5,1,21,1,,,,,,,,,1937.5948884114623,go,squareblack.png,right,0.45,,,,,,,,,,,,,,,,,,0.0015003979206085205,0.487712137401104,,1940.0968520641327,test,1,,,,,,,1937.6138726174831,1938.1088464558125,1938.1088464558125,1938.125869654119,1938.5602509379387,1939.0613000914454,1939.111597687006,1940.1221982091665,right,1,0.6165159121155739,0.45,,,,,,,,,,,s038,001,2024-09-26_11h02.24.969,simplestop_skeleton,2022.2.2,60.58202883269517,
None,None,,,,,,,,,0,0,0,0,5,2,22,3,,,,,,,,,1940.0972836464643,go,circleblack.png,left,0.45,,,,,,,,,,,,,,,,,,0.008501246571540833,0.4902116507291794,,1942.5999544635415,test,1,,,,,,,1940.1221982091665,1940.6130081787705,1940.6130081787705,1940.6298215314746,1941.0636225491762,1941.5637377277017,1941.6136471256614,1942.6186068728566,left,1,0.322346456348896,0.45,,,,,,,,,,,s038,001,2024-09-26_11h02.24.969,simplestop_skeleton,2022.2.2,60.58202883269517,
None,None,,,,,,,,,0,0,0,0,5,3,23,2,,,,,,,,,1942.600403957069,go,circleblack.png,left,0.45,,,,,,,,,,,,,,,,,,0.001361645758152008,0.48961906135082245,,1945.1022693663836,test,1,,,,,,,1942.6186068728566,1943.1157474517822,1943.1157474517822,1943.1323780864477,1943.5660536512733,1944.0655717253685,1944.1154351979494,1945.1215467751026,left,1,0.5345934852957726,0.45,,,,,,,,,,,s038,001,2024-09-26_11h02.24.969,simplestop_skeleton,2022.2.2,60.58202883269517,
None,None,,,,,,,,,0,0,0,0,6,0,24,3,,,,,,,,,1945.1027027443051,go,squareblack.png,right,0.45,,,,,,,,,,,,,,,,,,0.001654893159866333,0.4899909496307373,,1947.605007007718,test,1,,,,,,,1945.1215467751026,1945.6186396703124,1945.6186396703124,1945.6351100876927,1946.069115780294,1946.5847647637129,1946.6204839125276,1947.6243372410536,right,1,0.5794758051633835,0.45,,,,,,,,,,,s038,001,2024-09-26_11h02.24.969,simplestop_skeleton,2022.2.2,60.58202883269517,
None,None,,,,,,,,,0,0,0,0,6,1,25,2,,,,,,,,,1947.6054451987147,go,circleblack.png,left,0.45,,,,,,,,,,,,,,,,,,0.0017194971442222595,0.49001143127679825,,1950.1080990433693,test,1,,,,,,,1947.6243372410536,1948.1213911622763,1948.1213911622763,1948.137790620327,1948.571573406458,1949.0709167718887,1949.1210560575128,1950.1273498684168,left,1,0.55218256264925,0.45,,,,,,,,,,,s038,001,2024-09-26_11h02.24.969,simplestop_skeleton,2022.2.2,60.58202883269517,
None,None,,,,,,,,,0,0,0,0,6,2,26,2,,,,,,,,,1950.1085383966565,stop,squareblack.png,right,0.45,,,,,,,,,,,,,,,,,,0.0015577077865600586,0.4896497130393982,0.9400686025619507,1952.6110513582826,test,1,,,,,,,1950.1273498684168,1950.6241573542356,1950.6241573542356,1950.640743456781,1951.0744908601046,1951.5738086029887,1951.6239190399647,1952.630131624639,right,1,0.6279365420341492,0.4,,,,,,,,,,,s038,001,2024-09-26_11h02.24.969,simplestop_skeleton,2022.2.2,60.58202883269517,
None,None,,,,,,,,,0,0,0,0,6,3,27,2,,,,,,,,,1952.6114952117205,go,squareblack.png,right,0.4,,,,,,,,,,,,,,,,,,0.0014643669128417969,0.48929552733898163,,1955.1138537079096,test,1,,,,,,,1952.630131624639,1953.1267717704177,1953.1267717704177,1953.1434147804976,1953.5271470919251,1954.0276920124888,1954.1282569766045,1955.1333607062697,right,1,0.7854512706398964,0.4,,,,,,,,,,,s038,001,2024-09-26_11h02.24.969,simplestop_skeleton,2022.2.2,60.58202883269517,
$currentCorrectResponse,$currentGoStim,,,,,,,,,0,0,0,0,7,0,28,0,,,,,,,,,1955.1142867952585,stop,circleblack.png,left,0.4,,,,,,,,,,,,,,,,,,0.0019758790731430054,0.48927100002765656,0.8897406756877899,1957.6168842166662,test,1,,,,,,,1955.1333607062697,1955.6294944807887,1955.6294944807887,1955.6463955268264,1956.0301970168948,1956.531398139894,1956.6302618011832,1957.6359936073422,left,1,0.45600440353155136,0.35,,,,,,,,,,,s038,001,2024-09-26_11h02.24.969,simplestop_skeleton,2022.2.2,60.58202883269517,
None,None,,,,,,,,,0,0,0,0,7,1,29,2,,,,,,,,,1957.617330417037,stop,circleblack.png,left,0.35,,,,,,,,,,,,,,,,,,0.001568824052810669,0.4892955422401428,0.8392595425248146,1960.1192270368338,test,1,,,,,,,1957.6359936073422,1958.1325152143836,1958.1325152143836,1958.1489185392857,1958.4828419610858,1958.9833756908774,1959.1332192793489,1960.1383849307895,None,0,,0.4,,,,,,,,,,,s038,001,2024-09-26_11h02.24.969,simplestop_skeleton,2022.2.2,60.58202883269517,
None,None,,,,,,,,,0,0,0,0,7,2,30,1,,,,,,,,,1960.1196989044547,stop,squareblack.png,right,0.4,,,,,,,,,,,,,,,,,,0.0018512457609176636,0.48942431807518005,0.8898857161402702,1962.621945977211,test,1,,,,,,,1960.1383849307895,1960.6348662525415,1960.6348662525415,1960.6517351344228,1961.0354716852307,1961.5359779894352,1961.6363152042031,1962.6410870626569,None,0,,0.45,,,,,,,,,,,s038,001,2024-09-26_11h02.24.969,simplestop_skeleton,2022.2.2,60.58202883269517,
None,None,,,,,,,,,0,0,0,0,7,3,31,1,,,,,,,,,1962.6223945990205,go,circleblack.png,left,0.45,,,,,,,,,,,,,,,,,,0.0018278509378433228,0.4896552041172981,,1965.1249815374613,test,1,,,,,,,1962.6410870626569,1963.1376919448376,1963.1376919448376,1963.1544130071998,1963.588092572987,1964.0890862196684,1964.1391317918897,1965.1441951915622,left,1,0.5346395149827003,0.45,,,,,,,,,,,s038,001,2024-09-26_11h02.24.969,simplestop_skeleton,2022.2.2,60.58202883269517,
None,None,,,,,,,,,0,0,0,0,8,0,32,1,,,,,,,,,1965.1254430562258,go,squareblack.png,right,0.45,,,,,,,,,,,,,,,,,,0.0016921237111091614,0.4898517429828644,,1967.6274791806936,test,1,,,,,,,1965.1441951915622,1965.6407271325588,1965.6407271325588,1965.657423503697,1966.0916709005833,1966.5914316773415,1966.641224808991,1967.6458947509527,right,1,0.39759065210819244,0.45,,,,,,,,,,,s038,001,2024-09-26_11h02.24.969,simplestop_skeleton,2022.2.2,60.58202883269517,
None,None,,,,,,,,,0,0,0,0,8,1,33,1,,,,,,,,,1967.6279147043824,go,squareblack.png,right,0.45,,,,,,,,,,,,,,,,,,0.0013159960508346558,0.4899337440729141,,1970.1302184164524,test,1,,,,,,,1967.6458947509527,1968.1437247619033,1968.1437247619033,1968.1599271669984,1968.5938060432673,1969.0943774580956,1969.1439998149872,1970.1495809331536,right,1,0.3219328075647354,0.45,,,,,,,,,,,s038,001,2024-09-26_11h02.24.969,simplestop_skeleton,2022.2.2,60.58202883269517,
$currentCorrectResponse,$currentGoStim,,,,,,,,,0,0,0,0,8,2,34,0,,,,,,,,,1970.1306497231126,go,circleblack.png,left,0.45,,,,,,,,,,,,,,,,,,0.0019054189324378967,0.4899396747350693,,1972.6329108253121,test,1,,,,,,,1970.1495809331536,1970.6463960558176,1970.6463960558176,1970.6627579256892,1971.0966436862946,1971.5967639759183,1971.6464933007956,1972.6520235463977,left,1,0.28578992933034897,0.45,,,,,,,,,,,s038,001,2024-09-26_11h02.24.969,simplestop_skeleton,2022.2.2,60.58202883269517,
None,None,,,,,,,,,0,0,0,0,8,3,35,3,,,,,,,,,1972.633351251483,go,circleblack.png,left,0.45,,,,,,,,,,,,,,,,,,0.0013983622193336487,0.48974156379699707,,1975.1357163339853,test,1,,,,,,,1972.6520235463977,1973.1492520272732,1973.1492520272732,1973.165700621903,1973.5992816835642,1974.0992538258433,1974.1494526043534,1975.1548728570342,left,1,0.3778739720582962,0.45,,,,,,,,,,,s038,001,2024-09-26_11h02.24.969,simplestop_skeleton,2022.2.2,60.58202883269517,
None,None,,,,,,,,,0,0,0,0,9,0,36,2,,,,,,,,,1975.1361505836248,stop,circleblack.png,left,0.45,,,,,,,,,,,,,,,,,,0.0013547316193580627,0.48973871022462845,0.940111942589283,1977.6385087743402,test,1,,,,,,,1975.1548728570342,1975.6514954268932,1975.6514954268932,1975.6681820452213,1976.102024935186,1976.6018586680293,1976.6521582975984,1977.6627797409892,right,0,0.3121272623538971,0.4,,,,,,,,,,,s038,001,2024-09-26_11h02.24.969,simplestop_skeleton,2022.2.2,60.58202883269517,
None,None,,,,,,,,,0,0,0,0,9,1,37,1,,,,,,,,,1977.6389497965574,stop,squareblack.png,right,0.4,,,,,,,,,,,,,,,,,,0.007621884346008301,0.4894717410206795,0.8900514617562294,1980.141012482345,test,1,,,,,,,1977.6627797409892,1978.1542789936066,1978.1542789936066,1978.171266965568,1978.5546829774976,1979.0546573624015,1979.1548375189304,1980.1605090424418,right,1,0.2510789707303047,0.35,,,,,,,,,,,s038,001,2024-09-26_11h02.24.969,simplestop_skeleton,2022.2.2,60.58202883269517,
None,None,,,,,,,,,0,0,0,0,9,2,38,2,,,,,,,,,1980.141442231834,stop,circleblack.png,left,0.35,,,,,,,,,,,,,,,,,,0.001906082034111023,0.48970674723386765,0.8401490151882172,1982.643809452653,test,1,,,,,,,1980.1605090424418,1980.6569367870688,1980.6569367870688,1980.6736591905355,1981.0076853707433,1981.5087889656425,1981.6573332250118,1982.6628239154816,left,1,0.38354072719812393,0.3,,,,,,,,,,,s038,001,2024-09-26_11h02.24.969,simplestop_skeleton,2022.2.2,60.58202883269517,
None,None,,,,,,,,,0,0,0,0,9,3,39,3,,,,,,,,,1982.644236460328,stop,squareblack.png,right,0.3,,,,,,,,,,,,,,,,,,0.0016523152589797974,0.48979277163743973,0.789941817522049,1985.146665520966,test,1,,,,,,,1982.6628239154816,1983.1597613245249,1983.1597613245249,1983.17631547153,1983.4602571204305,1983.9607286527753,1984.1613125875592,1985.1658786311746,None,0,,0.35,,,,,,,,,,,s038,001,2024-09-26_11h02.24.969,simplestop_skeleton,2022.2.2,60.58202883269517,
$currentCorrectResponse,$currentGoStim,,,,,,,,,0,0,0,0,10,0,40,0,,,,,,,,,1985.147097222507,go,circleblack.png,left,0.35,,,,,,,,,,,,,,,,,,0.001818045973777771,0.48975250869989395,,1987.649400047958,test,1,,,,,,,1985.1658786311746,1985.6625069603324,1985.6625069603324,1985.6794640123844,1986.0131286606193,1986.5138977468014,1986.6623283848166,1987.6680354699492,left,1,0.6017538458108902,0.35,,,,,,,,,,,s038,001,2024-09-26_11h02.24.969,simplestop_skeleton,2022.2.2,60.58202883269517,
None,None,,,,,,,,,0,0,0,0,10,1,41,1,,,,,,,,,1987.6498243436217,go,circleblack.png,left,0.35,,,,,,,,,,,,,,,,,,0.0012759566307067871,0.4899046868085861,,1990.152196533978,test,1,,,,,,,1987.6680354699492,1988.1654931232333,1988.1654931232333,1988.1820769384503,1988.515716470778,1989.0166509598494,1989.1666630208492,1990.171141050756,left,1,0.7402019426226616,0.35,,,,,,,,,,,s038,001,2024-09-26_11h02.24.969,simplestop_skeleton,2022.2.2,60.58202883269517,
$currentCorrectResponse,$currentGoStim,,,,,,,,,0,0,0,0,10,2,42,0,,,,,,,,,1990.1526323854923,go,squareblack.png,right,0.35,,,,,,,,,,,,,,,,,,0.0017245486378669739,0.4898103103041649,,1992.6548460796475,test,1,,,,,,,1990.171141050756,1990.6682558357716,1990.6682558357716,1990.6848153471947,1991.018526867032,1991.517683967948,1991.667949669063,1992.6734489426017,right,1,0.414359413087368,0.35,,,,,,,,,,,s038,001,2024-09-26_11h02.24.969,simplestop_skeleton,2022.2.2,60.58202883269517,
None,None,,,,,,,,,0,0,0,0,10,3,43,3,,,,,,,,,1992.655273579061,go,squareblack.png,right,0.35,,,,,,,,,,,,,,,,,,0.0011801719665527344,0.4896805211901665,,1995.1577106267214,test,1,,,,,,,1992.6734489426017,1993.171175956726,1993.171175956726,1993.187636077404,1993.521403349936,1994.0218579918146,1994.1722736135125,1995.1768371909857,right,1,0.7183321043848991,0.35,,,,,,,,,,,s038,001,2024-09-26_11h02.24.969,simplestop_skeleton,2022.2.2,60.58202883269517,
None,None,,,,,,,,,0,0,0,0,11,0,44,2,,,,,,,,,1995.1581332460046,go,circleblack.png,left,0.35,,,,,,,,,,,,,,,,,,0.0017907246947288513,0.4897387623786926,,1997.660630568862,test,1,,,,,,,1995.1768371909857,1995.673834964633,1995.673834964633,1995.6904509663582,1996.0243597999215,1996.5246720090508,1996.673765487969,1997.6802435219288,left,1,0.5532651618123055,0.35,,,,,,,,,,,s038,001,2024-09-26_11h02.24.969,simplestop_skeleton,2022.2.2,60.58202883269517,
None,None,,,,,,,,,0,0,0,0,11,1,45,2,,,,,,,,,1997.661055199802,go,squareblack.png,right,0.35,,,,,,,,,,,,,,,,,,0.0018547400832176208,0.4895961508154869,,2000.1631110683084,test,1,,,,,,,1997.6802435219288,1998.1765126213431,1998.1765126213431,1998.1935685425997,1998.5269953161478,1999.042674422264,1999.178933918476,2000.1821775734425,right,1,0.5181981101632118,0.35,,,,,,,,,,,s038,001,2024-09-26_11h02.24.969,simplestop_skeleton,2022.2.2,60.58202883269517,
None,None,,,,,,,,,0,0,0,0,11,2,46,3,,,,,,,,,2000.1635366529226,go,squareblack.png,right,0.35,,,,,,,,,,,,,,,,,,0.0012786760926246643,0.48970927298069,,2002.6658327654004,test,1,,,,,,,2000.1821775734425,2000.6796724572778,2000.6796724572778,2000.6959166303277,2001.0296356230974,2001.5288047417998,2001.6797371059656,2002.6850423961878,right,1,0.42582543194293976,0.35,,,,,,,,,,,s038,001,2024-09-26_11h02.24.969,simplestop_skeleton,2022.2.2,60.58202883269517,
$currentCorrectResponse,$currentGoStim,,,,,,,,,0,0,0,0,11,3,47,0,,,,,,,,,2002.6662559136748,go,circleblack.png,left,0.35,,,,,,,,,,,,,,,,,,0.0019164904952049255,0.4900759682059288,,2005.1688791364431,test,1,,,,,,,2002.6850423961878,2003.182128995657,2003.182128995657,2003.1987189352512,2003.532623372972,2004.0493292063475,2004.1825239509344,2005.189832471311,right,0,0.3064101114869118,0.35,,,,,,,,,,,s038,001,2024-09-26_11h02.24.969,simplestop_skeleton,2022.2.2,60.58202883269517,
,,,,,,,,,,0,0,0,0,,,,,,"[{'fileName': 'squareblack.png', 'correct_response': 'right', 'condition': 'stop'}, {'fileName': 'squareblack.png', 'correct_response': 'right', 'condition': 'go'}, {'fileName': 'circleblack.png', 'correct_response': 'left', 'condition': 'go'}, {'fileName': 'circleblack.png', 'correct_response': 'left', 'condition': 'go'}, {'fileName': 'circleblack.png', 'correct_response': 'left', 'condition': 'stop'}, {'fileName': 'circleblack.png', 'correct_response': 'left', 'condition': 'go'}, {'fileName': 'squareblack.png', 'correct_response': 'right', 'condition': 'stop'}, {'fileName': 'circleblack.png', 'correct_response': 'left', 'condition': 'go'}, {'fileName': 'squareblack.png', 'correct_response': 'right', 'condition': 'go'}, {'fileName': 'squareblack.png', 'correct_response': 'right', 'condition': 'go'}, {'fileName': 'squareblack.png', 'correct_response': 'right', 'condition': 'go'}, {'fileName': 'circleblack.png', 'correct_response': 'left', 'condition': 'stop'}, {'fileName': 'circleblack.png', 'correct_response': 'left', 'condition': 'go'}, {'fileName': 'circleblack.png', 'correct_response': 'left', 'condition': 'go'}, {'fileName': 'squareblack.png', 'correct_response': 'right', 'condition': 'go'}, {'fileName': 'squareblack.png', 'correct_response': 'right', 'condition': 'stop'}, {'fileName': 'squareblack.png', 'correct_response': 'right', 'condition': 'go'}, {'fileName': 'squareblack.png', 'correct_response': 'right', 'condition': 'stop'}, {'fileName': 'circleblack.png', 'correct_response': 'left', 'condition': 'go'}, {'fileName': 'squareblack.png', 'correct_response': 'right', 'condition': 'go'}, {'fileName': 'circleblack.png', 'correct_response': 'left', 'condition': 'go'}, {'fileName': 'circleblack.png', 'correct_response': 'left', 'condition': 'stop'}, {'fileName': 'squareblack.png', 'correct_response': 'right', 'condition': 'go'}, {'fileName': 'circleblack.png', 'correct_response': 'left', 'condition': 'stop'}, {'fileName': 'squareblack.png', 'correct_response': 'right', 'condition': 'stop'}, {'fileName': 'circleblack.png', 'correct_response': 'left', 'condition': 'go'}, {'fileName': 'squareblack.png', 'correct_response': 'right', 'condition': 'go'}, {'fileName': 'circleblack.png', 'correct_response': 'left', 'condition': 'go'}, {'fileName': 'squareblack.png', 'correct_response': 'right', 'condition': 'go'}, {'fileName': 'circleblack.png', 'correct_response': 'left', 'condition': 'go'}, {'fileName': 'circleblack.png', 'correct_response': 'left', 'condition': 'stop'}, {'fileName': 'circleblack.png', 'correct_response': 'left', 'condition': 'stop'}, {'fileName': 'squareblack.png', 'correct_response': 'right', 'condition': 'go'}, {'fileName': 'squareblack.png', 'correct_response': 'right', 'condition': 'go'}, {'fileName': 'circleblack.png', 'correct_response': 'left', 'condition': 'go'}, {'fileName': 'squareblack.png', 'correct_response': 'right', 'condition': 'stop'}, {'fileName': 'circleblack.png', 'correct_response': 'left', 'condition': 'go'}, {'fileName': 'circleblack.png', 'correct_response': 'left', 'condition': 'go'}, {'fileName': 'squareblack.png', 'correct_response': 'right', 'condition': 'go'}, {'fileName': 'squareblack.png', 'correct_response': 'right', 'condition': 'stop'}, {'fileName': 'circleblack.png', 'correct_response': 'left', 'condition': 'go'}, {'fileName': 'circleblack.png', 'correct_response': 'left', 'condition': 'stop'}, {'fileName': 'circleblack.png', 'correct_response': 'left', 'condition': 'go'}, {'fileName': 'squareblack.png', 'correct_response': 'right', 'condition': 'stop'}, {'fileName': 'squareblack.png', 'correct_response': 'right', 'condition': 'go'}, {'fileName': 'squareblack.png', 'correct_response': 'right', 'condition': 'go'}, {'fileName': 'squareblack.png', 'correct_response': 'right', 'condition': 'go'}, {'fileName': 'circleblack.png', 'correct_response': 'left', 'condition': 'stop'}]",,,,,,,,,,,,,,,,,,,,,,,,,,,,,,,,,,,,,,,,,,,,,,,,,,,,,2005.189832471311,2005.189832471311,return,7.269986741244793,,,,,,,s038,001,2024-09-26_11h02.24.969,simplestop_skeleton,2022.2.2,60.58202883269517,
None,None,,,,,,,,,1,0,1,0,0,0,0,2,,,,,,,,,2012.4931807294488,stop,squareblack.png,right,0.35,,,,,,,,,,,,,,,,,,0.0025303438305854797,0.4900190085172653,0.8405176773667336,2014.9962685257196,test,2,,,,,,,2012.5137317478657,2013.009559430182,2013.009559430182,2013.026475198567,2013.3600311353803,2013.860557243228,2014.0106897428632,2015.015415608883,right,1,0.7130938991904259,0.3,,,,,,,,,,,s038,001,2024-09-26_11h02.24.969,simplestop_skeleton,2022.2.2,60.58202883269517,
$currentCorrectResponse,$currentGoStim,,,,,,,,,1,0,1,0,0,1,1,0,,,,,,,,,2014.996814057231,go,squareblack.png,right,0.3,,,,,,,,,,,,,,,,,,0.0014219582080841064,0.48971306532621384,,2017.4991277754307,test,2,,,,,,,2015.015415608883,2015.5121005699039,2015.5121005699039,2015.5286940187216,2015.812560506165,2016.3130594715476,2016.5150706470013,2017.5203260704875,right,1,0.5101470351219177,0.3,,,,,,,,,,,s038,001,2024-09-26_11h02.24.969,simplestop_skeleton,2022.2.2,60.58202883269517,
None,None,,,,,,,,,1,0,1,0,0,2,2,2,,,,,,,,,2017.4995649456978,go,circleblack.png,left,0.3,,,,,,,,,,,,,,,,,,0.0045099034905433655,0.4895545467734337,,2020.0016075223684,test,2,,,,,,,2017.5203260704875,2018.014905616641,2018.014905616641,2018.031675040722,2018.315492078662,2018.8153244704008,2019.0154236927629,2020.0201535746455,left,1,0.48999451100826263,0.3,,,,,,,,,,,s038,001,2024-09-26_11h02.24.969,simplestop_skeleton,2022.2.2,60.58202883269517,
None,None,,,,,,,,,1,0,1,0,0,3,3,1,,,,,,,,,2020.0020356327295,go,circleblack.png,left,0.3,,,,,,,,,,,,,,,,,,0.0012642070651054382,0.4899596720933914,,2022.504184447229,test,2,,,,,,,2020.0201535746455,2020.5176513195038,2020.5176513195038,2020.5345023423433,2020.8179430514574,2021.3171573281288,2021.5181146636605,2022.5228863209486,left,1,0.3694309741258621,0.3,,,,,,,,,,,s038,001,2024-09-26_11h02.24.969,simplestop_skeleton,2022.2.2,60.58202883269517,
None,None,,,,,,,,,1,0,1,0,1,0,4,2,,,,,,,,,2022.5046143010259,stop,circleblack.png,left,0.3,,,,,,,,,,,,,,,,,,0.0012366995215415955,0.4903939217329025,0.790508359670639,2025.00716586411,test,2,,,,,,,2022.5228863209486,2023.0207029804587,2023.0207029804587,2023.0374198779464,2023.3206761553884,2023.8198733478785,2024.0210022330284,2025.0263487547636,left,1,0.4310968816280365,0.25,,,,,,,,,,,s038,001,2024-09-26_11h02.24.969,simplestop_skeleton,2022.2.2,60.58202883269517,
None,None,,,,,,,,,1,0,1,0,1,1,5,3,,,,,,,,,2025.0076553970575,go,circleblack.png,left,0.25,,,,,,,,,,,,,,,,,,0.0012720301747322083,0.489824116230011,,2027.5097974017262,test,2,,,,,,,2025.0263487547636,2025.5232004448771,2025.5232004448771,2025.5400002002716,2025.7735884413123,2026.2743038013577,2026.5230445340276,2027.5289359465241,left,1,0.5018235594034195,0.25,,,,,,,,,,,s038,001,2024-09-26_11h02.24.969,simplestop_skeleton,2022.2.2,60.58202883269517,
None,None,,,,,,,,,1,0,1,0,1,2,6,2,,,,,,,,,2027.5102223455906,stop,squareblack.png,right,0.25,,,,,,,,,,,,,,,,,,0.0017032995820045471,0.4901179224252701,0.7402058467268944,2030.0129559859633,test,2,,,,,,,2027.5289359465241,2028.0258458554745,2028.0258458554745,2028.0425518453121,2028.2765241637826,2028.7921682819724,2029.026501558721,2030.0338064208627,right,1,0.425584152340889,0.2,,,,,,,,,,,s038,001,2024-09-26_11h02.24.969,simplestop_skeleton,2022.2.2,60.58202883269517,
None,None,,,,,,,,,1,0,1,0,1,3,7,3,,,,,,,,,2030.013393111527,go,circleblack.png,left,0.2,,,,,,,,,,,,,,,,,,0.0021671801805496216,0.487638883292675,,2032.515519797802,test,2,,,,,,,2030.0338064208627,2030.5287507399917,2030.5287507399917,2030.545495055616,2030.7291322946548,2031.229545533657,2031.5290869548917,2032.5345981866121,left,1,0.46744709461927414,0.2,,,,,,,,,,,s038,001,2024-09-26_11h02.24.969,simplestop_skeleton,2022.2.2,60.58202883269517,
None,None,,,,,,,,,1,0,1,0,2,0,8,1,,,,,,,,,2032.515955708921,go,squareblack.png,right,0.2,,,,,,,,,,,,,,,,,,0.0015730038285255432,0.4896900877356529,,2035.0181539580226,test,2,,,,,,,2032.5345981866121,2033.0314544662833,2033.0314544662833,2033.048316091299,2033.2316327244043,2033.7329177111387,2034.0313219502568,2035.0367789193988,right,1,0.635630413889885,0.2,,,,,,,,,,,s038,001,2024-09-26_11h02.24.969,simplestop_skeleton,2022.2.2,60.58202883269517,
None,None,,,,,,,,,1,0,1,0,2,1,9,3,,,,,,,,,2035.0186322778463,go,squareblack.png,right,0.2,,,,,,,,,,,,,,,,,,0.001183152198791504,0.4901365265250206,,2037.5210159495473,test,2,,,,,,,2035.0367789193988,2035.5344413742423,2035.5344413742423,2035.5509763211012,2035.734752908349,2036.2351712286472,2036.5346028283238,2037.5394111424685,right,1,0.551594577729702,0.2,,,,,,,,,,,s038,001,2024-09-26_11h02.24.969,simplestop_skeleton,2022.2.2,60.58202883269517,
None,None,,,,,,,,,1,0,1,0,2,2,10,1,,,,,,,,,2037.5214462280273,go,squareblack.png,right,0.2,,,,,,,,,,,,,,,,,,0.0011961981654167175,0.4899088218808174,,2040.0241352766752,test,2,,,,,,,2037.5394111424685,2038.0371938049793,2038.0371938049793,2038.053812943399,2038.2372790277004,2038.7379938066006,2039.0367229804397,2040.0435864850879,right,1,0.6350125372409821,0.2,,,,,,,,,,,s038,001,2024-09-26_11h02.24.969,simplestop_skeleton,2022.2.2,60.58202883269517,
None,None,,,,,,,,,1,0,1,0,2,3,11,2,,,,,,,,,2040.024565115571,stop,circleblack.png,left,0.2,,,,,,,,,,,,,,,,,,0.00251103937625885,0.4891851767897606,0.6894069612026215,2042.5269399359822,test,2,,,,,,,2040.0435864850879,2040.5401254966855,2040.5401254966855,2040.5567342340946,2040.7399206236005,2041.240680463612,2041.539796628058,2042.5459084138274,left,1,0.5014084428548813,0.15,,,,,,,,,,,s038,001,2024-09-26_11h02.24.969,simplestop_skeleton,2022.2.2,60.58202883269517,
None,None,,,,,,,,,1,0,1,0,3,0,12,1,,,,,,,,,2042.527387470007,go,circleblack.png,left,0.15,,,,,,,,,,,,,,,,,,0.0014146268367767334,0.48923375457525253,,2045.029455140233,test,2,,,,,,,2042.5459084138274,2043.0426307097077,2043.0426307097077,2043.0594051927328,2043.1927235499024,2043.6934987828135,2044.0422998666763,2045.0484477207065,left,1,0.6388726904988289,0.15,,,,,,,,,,,s038,001,2024-09-26_11h02.24.969,simplestop_skeleton,2022.2.2,60.58202883269517,
$currentCorrectResponse,$currentGoStim,,,,,,,,,1,0,1,0,3,1,13,0,,,,,,,,,2045.0298939049244,go,circleblack.png,left,0.15,,,,,,,,,,,,,,,,,,0.0013761147856712341,0.4899582788348198,,2047.5323398187757,test,2,,,,,,,2045.0484477207065,2045.545657031238,2045.545657031238,2045.5621842443943,2045.695728622377,2046.1961118727922,2046.5451006516814,2047.5515480712056,left,1,0.5717185586690903,0.15,,,,,,,,,,,s038,001,2024-09-26_11h02.24.969,simplestop_skeleton,2022.2.2,60.58202883269517,
$currentCorrectResponse,$currentGoStim,,,,,,,,,1,0,1,0,3,2,14,0,,,,,,,,,2047.532776556909,go,squareblack.png,right,0.15,,,,,,,,,,,,,,,,,,0.0017716214060783386,0.48954251408576965,,2050.0354761704803,test,2,,,,,,,2047.5515480712056,2048.04810988158,2048.04810988158,2048.065074712038,2048.1982727125287,2048.698852658272,2049.049457088113,2050.0540433377028,right,1,0.7463157773017883,0.15,,,,,,,,,,,s038,001,2024-09-26_11h02.24.969,simplestop_skeleton,2022.2.2,60.58202883269517,
None,None,,,,,,,,,1,0,1,0,3,3,15,1,,,,,,,,,2050.0359117537737,stop,squareblack.png,right,0.15,,,,,,,,,,,,,,,,,,0.0013744831085205078,0.4892440214753151,0.6395746171474457,2052.5375427901745,test,2,,,,,,,2050.0540433377028,2050.5509508773685,2050.5509508773685,2050.5676283612847,2050.7012777999043,2051.201729632914,2051.5520883128047,2052.555360123515,None,0,,0.2,,,,,,,,,,,s038,001,2024-09-26_11h02.24.969,simplestop_skeleton,2022.2.2,60.58202883269517,
None,None,,,,,,,,,1,0,1,0,4,0,16,3,,,,,,,,,2052.5379747003317,go,squareblack.png,right,0.2,,,,,,,,,,,,,,,,,,0.0012035369873046875,0.4900199621915817,,2055.040407307446,test,2,,,,,,,2052.555360123515,2053.053808055818,2053.053808055818,2053.0705029293895,2053.2539312019944,2053.7544842734933,2054.0533001944423,2055.059379838407,right,1,0.5660615414381027,0.2,,,,,,,,,,,s038,001,2024-09-26_11h02.24.969,simplestop_skeleton,2022.2.2,60.58202883269517,
None,None,,,,,,,,,1,0,1,0,4,1,17,2,,,,,,,,,2055.0409235954285,stop,squareblack.png,right,0.2,,,,,,,,,,,,,,,,,,0.0013106241822242737,0.48948514461517334,0.6897571459412575,2057.542966745794,test,2,,,,,,,2055.059379838407,2055.556527815759,2055.556527815759,2055.573184259236,2055.7567882165313,2056.257107421756,2056.557511933148,2057.5620276108384,None,0,,0.25,,,,,,,,,,,s038,001,2024-09-26_11h02.24.969,simplestop_skeleton,2022.2.2,60.58202883269517,
None,None,,,,,,,,,1,0,1,0,4,2,18,1,,,,,,,,,2057.543395847082,go,circleblack.png,left,0.25,,,,,,,,,,,,,,,,,,0.0018231496214866638,0.4901149496436119,,2060.045761078596,test,2,,,,,,,2057.5620276108384,2058.059041157365,2058.059041157365,2058.0758992284536,2058.3096902370453,2058.8101177811623,2059.0612936243415,2060.065063968301,left,1,0.47198980301618576,0.25,,,,,,,,,,,s038,001,2024-09-26_11h02.24.969,simplestop_skeleton,2022.2.2,60.58202883269517,
None,None,,,,,,,,,1,0,1,0,4,3,19,1,,,,,,,,,2060.046185053885,go,squareblack.png,right,0.25,,,,,,,,,,,,,,,,,,0.0017429590225219727,0.48970822244882584,,2062.5486886799335,test,2,,,,,,,2060.065063968301,2060.5618928670883,2060.5618928670883,2060.578651845455,2060.8121128603816,2061.3113965839148,2061.5624295398593,2062.5680855438113,right,1,0.4402175843715668,0.25,,,,,,,,,,,s038,001,2024-09-26_11h02.24.969,simplestop_skeleton,2022.2.2,60.58202883269517,
None,None,,,,,,,,,1,0,1,0,5,0,20,3,,,,,,,,,2062.5491237416863,go,circleblack.png,left,0.25,,,,,,,,,,,,,,,,,,0.001787729561328888,0.4895234853029251,,2065.0515669062734,test,2,,,,,,,2062.5680855438113,2063.064585790038,2063.064585790038,2063.081421159208,2063.31489777565,2063.8141733035445,2064.065104626119,2065.070233605802,left,1,0.351020485162735,0.25,,,,,,,,,,,s038,001,2024-09-26_11h02.24.969,simplestop_skeleton,2022.2.2,60.58202883269517,
$currentCorrectResponse,$currentGoStim,,,,,,,,,1,0,1,0,5,1,21,0,,,,,,,,,2065.0520099177957,stop,circleblack.png,left,0.25,,,,,,,,,,,,,,,,,,0.0012907013297080994,0.48956162482500076,0.7399039939045906,2067.55410605669,test,2,,,,,,,2065.070233605802,2065.5674531012774,2065.5674531012774,2065.5840858519077,2065.8177123889327,2066.318280182779,2066.5687340572476,2067.5731529593468,None,0,,0.3,,,,,,,,,,,s038,001,2024-09-26_11h02.24.969,simplestop_skeleton,2022.2.2,60.58202883269517,
$currentCorrectResponse,$currentGoStim,,,,,,,,,1,0,1,0,5,2,22,0,,,,,,,,,2067.5545473247766,go,squareblack.png,right,0.3,,,,,,,,,,,,,,,,,,0.0016332417726516724,0.4898369610309601,,2070.0569986775517,test,2,,,,,,,2067.5731529593468,2068.07018507272,2068.07018507272,2068.0869012624025,2068.3706309199333,2068.8863550126553,2069.0709111094475,2070.0763346999884,right,1,0.421925887465477,0.3,,,,,,,,,,,s038,001,2024-09-26_11h02.24.969,simplestop_skeleton,2022.2.2,60.58202883269517,
$currentCorrectResponse,$currentGoStim,,,,,,,,,1,0,1,0,5,3,23,0,,,,,,,,,2070.057433709502,stop,circleblack.png,left,0.3,,,,,,,,,,,,,,,,,,0.001895993947982788,0.4898776561021805,0.7899044454097748,2072.5596746504307,test,2,,,,,,,2070.0763346999884,2070.572985805571,2070.572985805571,2070.589700087905,2070.873305439949,2071.389257878065,2071.573397524655,2072.578391969204,left,1,0.4278385415673256,0.25,,,,,,,,,,,s038,001,2024-09-26_11h02.24.969,simplestop_skeleton,2022.2.2,60.58202883269517,
$currentCorrectResponse,$currentGoStim,,,,,,,,,1,0,1,0,6,0,24,0,,,,,,,,,2072.560111127794,stop,squareblack.png,right,0.25,,,,,,,,,,,,,,,,,,0.0016365572810173035,0.4899018704891205,0.7403394058346748,2075.062543220818,test,2,,,,,,,2072.578391969204,2073.0757851079106,2073.0757851079106,2073.092269897461,2073.325932174921,2073.827822878957,2074.076095610857,2075.0822865888476,right,1,0.20166704058647156,0.2,,,,,,,,,,,s038,001,2024-09-26_11h02.24.969,simplestop_skeleton,2022.2.2,60.58202883269517,
$currentCorrectResponse,$currentGoStim,,,,,,,,,1,0,1,0,6,1,25,0,,,,,,,,,2075.0629835501313,go,circleblack.png,left,0.2,,,,,,,,,,,,,,,,,,0.0019129663705825806,0.4893239960074425,,2077.565184675157,test,2,,,,,,,2075.0822865888476,2075.5783119872212,2075.5783119872212,2075.5950533896685,2075.778659798205,2076.2780084833503,2076.5786517784,2077.5845059752464,left,1,0.6878595948219299,0.2,,,,,,,,,,,s038,001,2024-09-26_11h02.24.969,simplestop_skeleton,2022.2.2,60.58202883269517,
None,None,,,,,,,,,1,0,1,0,6,2,26,2,,,,,,,,,2077.5656304508448,go,squareblack.png,right,0.2,,,,,,,,,,,,,,,,,,0.0016774982213974,0.4897395744919777,,2080.0678906068206,test,2,,,,,,,2077.5845059752464,2078.0810168609023,2078.0810168609023,2078.0977366939187,2078.281372986734,2078.7819924652576,2079.0826074406505,2080.0872279033065,right,1,0.7126436159014702,0.2,,,,,,,,,,,s038,001,2024-09-26_11h02.24.969,simplestop_skeleton,2022.2.2,60.58202883269517,
None,None,,,,,,,,,1,0,1,0,6,3,27,1,,,,,,,,,2080.0683337152004,go,circleblack.png,left,0.2,,,,,,,,,,,,,,,,,,0.001684047281742096,0.4898965060710907,,2082.5707569420338,test,2,,,,,,,2080.0872279033065,2080.584184154868,2080.584184154868,2080.600817911327,2080.78445456177,2081.2849117591977,2081.5837204158306,2082.589990891516,left,1,0.6450289264321327,0.2,,,,,,,,,,,s038,001,2024-09-26_11h02.24.969,simplestop_skeleton,2022.2.2,60.58202883269517,
None,None,,,,,,,,,1,0,1,0,7,0,28,2,,,,,,,,,2082.5711935162544,go,squareblack.png,right,0.2,,,,,,,,,,,,,,,,,,0.00167044997215271,0.489713653922081,,2085.0740355849266,test,2,,,,,,,2082.589990891516,2083.0867463201284,2083.0867463201284,2083.103835783899,2083.287000633776,2083.788009941578,2084.0865192487836,2085.0932113826275,right,1,0.6843628957867622,0.2,,,,,,,,,,,s038,001,2024-09-26_11h02.24.969,simplestop_skeleton,2022.2.2,60.58202883269517,
None,None,,,,,,,,,1,0,1,0,7,1,29,3,,,,,,,,,2085.0744706988335,go,circleblack.png,left,0.2,,,,,,,,,,,,,,,,,,0.0017963498830795288,0.4893280193209648,,2087.576218113303,test,2,,,,,,,2085.0932113826275,2085.589578181505,2085.589578181505,2085.6061739698052,2085.7897499129176,2086.290336512029,2086.5906598493457,2087.595029003918,left,1,0.8189482912421227,0.2,,,,,,,,,,,s038,001,2024-09-26_11h02.24.969,simplestop_skeleton,2022.2.2,60.58202883269517,
None,None,,,,,,,,,1,0,1,0,7,2,30,1,,,,,,,,,2087.5766551047564,stop,circleblack.png,left,0.2,,,,,,,,,,,,,,,,,,0.0012396275997161865,0.48994697630405426,0.690171979367733,2090.079399242997,test,2,,,,,,,2087.595029003918,2088.092499189079,2088.092499189079,2088.1090636849403,2088.2926040887833,2088.7932748645544,2089.093700952828,2090.098200365901,None,0,,0.25,,,,,,,,,,,s038,001,2024-09-26_11h02.24.969,simplestop_skeleton,2022.2.2,60.58202883269517,
None,None,,,,,,,,,1,0,1,0,7,3,31,1,,,,,,,,,2090.0798310637474,stop,circleblack.png,left,0.25,,,,,,,,,,,,,,,,,,0.0014526620507240295,0.48949339240789413,0.7398643270134926,2092.5821605995297,test,2,,,,,,,2090.098200365901,2090.595048196614,2090.595048196614,2090.611802943051,2090.845322109759,2091.3459990620613,2091.596379980445,2092.6012414246798,None,0,,0.3,,,,,,,,,,,s038,001,2024-09-26_11h02.24.969,simplestop_skeleton,2022.2.2,60.58202883269517,
$currentCorrectResponse,$currentGoStim,,,,,,,,,1,0,1,0,8,0,32,0,,,,,,,,,2092.582606717944,go,squareblack.png,right,0.3,,,,,,,,,,,,,,,,,,0.001818336546421051,0.48944041877985,,2095.085018888116,test,2,,,,,,,2092.6012414246798,2093.0979846790433,2093.0979846790433,2093.114625774324,2093.398372963071,2093.898860126734,2094.0992320626974,2095.10373031348,right,1,0.7389971166849136,0.3,,,,,,,,,,,s038,001,2024-09-26_11h02.24.969,simplestop_skeleton,2022.2.2,60.58202883269517,
None,None,,,,,,,,,1,0,1,0,8,1,33,2,,,,,,,,,2095.085463643074,go,squareblack.png,right,0.3,,,,,,,,,,,,,,,,,,0.0014287382364273071,0.4897224009037018,,2097.5873775333166,test,2,,,,,,,2095.10373031348,2095.6006240844727,2095.6006240844727,2095.617278493941,2095.9009905830026,2096.401038788259,2096.601169079542,2097.6067855358124,right,1,0.793293796479702,0.3,,,,,,,,,,,s038,001,2024-09-26_11h02.24.969,simplestop_skeleton,2022.2.2,60.58202883269517,
$currentCorrectResponse,$currentGoStim,,,,,,,,,1,0,1,0,8,2,34,0,,,,,,,,,2097.5878964737058,go,circleblack.png,left,0.3,,,,,,,,,,,,,,,,,,0.0019765421748161316,0.4895756095647812,,2100.0900867804885,test,2,,,,,,,2097.6067855358124,2098.103456251323,2098.103456251323,2098.1199441105127,2098.403629504144,2098.904361926019,2099.1030496805906,2100.109892785549,left,1,0.5813349783420563,0.3,,,,,,,,,,,s038,001,2024-09-26_11h02.24.969,simplestop_skeleton,2022.2.2,60.58202883269517,
None,None,,,,,,,,,1,0,1,0,8,3,35,1,,,,,,,,,2100.0905206799507,stop,squareblack.png,right,0.3,,,,,,,,,,,,,,,,,,0.0018326938152313232,0.48946619033813477,0.7898735031485558,2102.592933498323,test,2,,,,,,,2100.109892785549,2100.606258161366,2100.606258161366,2100.6230300292373,2100.9064992815256,2101.407010920346,2101.607362359762,2102.612346664071,None,0,,0.35,,,,,,,,,,,s038,001,2024-09-26_11h02.24.969,simplestop_skeleton,2022.2.2,60.58202883269517,
None,None,,,,,,,,,1,0,1,0,9,0,36,3,,,,,,,,,2102.5933699905872,go,circleblack.png,left,0.35,,,,,,,,,,,,,,,,,,0.001861289143562317,0.48980944603681564,,2105.095591597259,test,2,,,,,,,2102.612346664071,2103.108738079667,2103.108738079667,2103.1257849633694,2103.4593574926257,2103.9749918580055,2104.1095437556505,2105.114495418966,left,1,0.44080687314271927,0.35,,,,,,,,,,,s038,001,2024-09-26_11h02.24.969,simplestop_skeleton,2022.2.2,60.58202883269517,
None,None,,,,,,,,,1,0,1,0,9,1,37,2,,,,,,,,,2105.0960238426924,go,circleblack.png,left,0.35,,,,,,,,,,,,,,,,,,0.0012484118342399597,0.4898703396320343,,2107.5982053652406,test,2,,,,,,,2105.114495418966,2105.611606270075,2105.611606270075,2105.6282937973738,2105.9621878117323,2106.4779290407896,2106.6112684085965,2107.617184653878,left,1,0.540806233882904,0.35,,,,,,,,,,,s038,001,2024-09-26_11h02.24.969,simplestop_skeleton,2022.2.2,60.58202883269517,
$currentCorrectResponse,$currentGoStim,,,,,,,,,1,0,1,0,9,2,38,0,,,,,,,,,2107.598640754819,go,squareblack.png,right,0.35,,,,,,,,,,,,,,,,,,0.0017735213041305542,0.4900109991431236,,2110.1010478809476,test,2,,,,,,,2107.617184653878,2108.1143069416285,2108.1143069416285,2108.1313013508916,2108.464644372463,2108.963696576655,2109.115187212825,2110.1194840297103,left,0,0.43492918461561203,0.35,,,,,,,,,,,s038,001,2024-09-26_11h02.24.969,simplestop_skeleton,2022.2.2,60.58202883269517,
None,None,,,,,,,,,1,0,1,0,9,3,39,3,,,,,,,,,2110.1014884635806,stop,squareblack.png,right,0.35,,,,,,,,,,,,,,,,,,0.0011975914239883423,0.48987171798944473,0.8400923311710358,2112.603862427175,test,2,,,,,,,2110.1194840297103,2110.617040351033,2110.617040351033,2110.6336929276586,2110.967366285622,2111.4666521549225,2111.6188713535666,2112.6232527270913,left,0,0.4512620121240616,0.3,,,,,,,,,,,s038,001,2024-09-26_11h02.24.969,simplestop_skeleton,2022.2.2,60.58202883269517,
None,None,,,,,,,,,1,0,1,0,10,0,40,1,,,,,,,,,2112.6043140366673,go,circleblack.png,left,0.3,,,,,,,,,,,,,,,,,,0.001817859709262848,0.48978858441114426,,2115.106511823833,test,2,,,,,,,2112.6232527270913,2113.1197303682566,2113.1197303682566,2113.1364398002625,2113.420334748924,2113.9360956847668,2114.120289064944,2115.1255038008094,left,1,0.360061451792717,0.3,,,,,,,,,,,s038,001,2024-09-26_11h02.24.969,simplestop_skeleton,2022.2.2,60.58202883269517,
None,None,,,,,,,,,1,0,1,0,10,1,41,2,,,,,,,,,2115.106944076717,stop,circleblack.png,left,0.3,,,,,,,,,,,,,,,,,,0.0013143345713615417,0.48987366259098053,0.7900040373206139,2117.609404809773,test,2,,,,,,,2115.1255038008094,2115.622711278498,2115.622711278498,2115.6392162516713,2115.923039250076,2116.438897907734,2116.623011752963,2117.628319531679,left,1,0.4218672811985016,0.25,,,,,,,,,,,s038,001,2024-09-26_11h02.24.969,simplestop_skeleton,2022.2.2,60.58202883269517,
None,None,,,,,,,,,1,0,1,0,10,2,42,3,,,,,,,,,2117.609918437898,go,circleblack.png,left,0.25,,,,,,,,,,,,,,,,,,0.0013721659779548645,0.4895230308175087,,2120.111907862127,test,2,,,,,,,2117.628319531679,2118.125599220395,2118.125599220395,2118.1422502696514,2118.3758189231157,2118.8750600889325,2119.125941775739,2120.131228543818,left,1,0.446430042386055,0.25,,,,,,,,,,,s038,001,2024-09-26_11h02.24.969,simplestop_skeleton,2022.2.2,60.58202883269517,
None,None,,,,,,,,,1,0,1,0,10,3,43,3,,,,,,,,,2120.112332031131,stop,squareblack.png,right,0.25,,,,,,,,,,,,,,,,,,0.0017136633396148682,0.49013111740350723,0.7401702329516411,2122.614711329341,test,2,,,,,,,2120.131228543818,2120.628148421645,2120.628148421645,2120.6447368338704,2120.8784743770957,2121.3791489228606,2121.629243955016,2122.633722476661,None,0,,0.3,,,,,,,,,,,s038,001,2024-09-26_11h02.24.969,simplestop_skeleton,2022.2.2,60.58202883269517,
$currentCorrectResponse,$currentGoStim,,,,,,,,,1,0,1,0,11,0,44,0,,,,,,,,,2122.6151479631662,go,squareblack.png,right,0.3,,,,,,,,,,,,,,,,,,0.0013004690408706665,0.4896642789244652,,2125.1176412403584,test,2,,,,,,,2122.633722476661,2123.130941450596,2123.130941450596,2123.147768765688,2123.4311030209064,2123.930730573833,2124.130731023848,2125.136637225747,left,0,0.5074665546417236,0.3,,,,,,,,,,,s038,001,2024-09-26_11h02.24.969,simplestop_skeleton,2022.2.2,60.58202883269517,
None,None,,,,,,,,,1,0,1,0,11,1,45,3,,,,,,,,,2125.1180717349052,go,squareblack.png,right,0.3,,,,,,,,,,,,,,,,,,0.0013578906655311584,0.4901115223765373,,2127.6204506754875,test,2,,,,,,,2125.136637225747,2125.6339193731546,2125.6339193731546,2125.6490764021873,2125.933470390737,2126.434601403773,2126.634903423488,2127.6392206326127,None,0,,0.3,,,,,,,,,,,s038,001,2024-09-26_11h02.24.969,simplestop_skeleton,2022.2.2,60.58202883269517,
None,None,,,,,,,,,1,0,1,0,11,2,46,3,,,,,,,,,2127.6208909898996,go,squareblack.png,right,0.3,,,,,,,,,,,,,,,,,,0.0011838749051094055,0.48983731865882874,,2130.1234399154782,test,2,,,,,,,2127.6392206326127,2128.1365377157927,2128.1365377157927,2128.15331068635,2128.435498766601,2128.9374790117145,2129.1377259343863,2130.1486623734236,right,1,0.41848360002040863,0.3,,,,,,,,,,,s038,001,2024-09-26_11h02.24.969,simplestop_skeleton,2022.2.2,60.58202883269517,
None,None,,,,,,,,,1,0,1,0,11,3,47,2,,,,,,,,,2130.1238875836134,stop,circleblack.png,left,0.3,,,,,,,,,,,,,,,,,,0.00870688259601593,0.48948095738887787,0.790109358727932,2132.6260854378343,test,2,,,,,,,2130.1486623734236,2130.6393180713058,2130.6393180713058,2130.655913680792,2130.939605101943,2131.4399781003594,2131.6405775025487,2132.64155869931,None,0,,0.35,,,,,,,,,,,s038,001,2024-09-26_11h02.24.969,simplestop_skeleton,2022.2.2,60.58202883269517,
,,,,,,,,,,1,0,1,0,,,,,,,,,,,,,,,,,,,,,,,,,,,,,,,,,,,,,,,,,,,,,,,,,,,,,,,,,,,2132.64155869931,2132.64155869931,return,6.593460604548454,"[{'fileName': 'circleblack.png', 'correct_response': 'left', 'condition': 'go'}, {'fileName': 'squareblack.png', 'correct_response': 'right', 'condition': 'go'}, {'fileName': 'squareblack.png', 'correct_response': 'right', 'condition': 'go'}, {'fileName': 'squareblack.png', 'correct_response': 'right', 'condition': 'stop'}, {'fileName': 'squareblack.png', 'correct_response': 'right', 'condition': 'go'}, {'fileName': 'circleblack.png', 'correct_response': 'left', 'condition': 'go'}, {'fileName': 'squareblack.png', 'correct_response': 'right', 'condition': 'go'}, {'fileName': 'circleblack.png', 'correct_response': 'left', 'condition': 'go'}, {'fileName': 'circleblack.png', 'correct_response': 'left', 'condition': 'stop'}, {'fileName': 'circleblack.png', 'correct_response': 'left', 'condition': 'go'}, {'fileName': 'circleblack.png', 'correct_response': 'left', 'condition': 'stop'}, {'fileName': 'squareblack.png', 'correct_response': 'right', 'condition': 'stop'}, {'fileName': 'circleblack.png', 'correct_response': 'left', 'condition': 'go'}, {'fileName': 'squareblack.png', 'correct_response': 'right', 'condition': 'go'}, {'fileName': 'circleblack.png', 'correct_response': 'left', 'condition': 'go'}, {'fileName': 'circleblack.png', 'correct_response': 'left', 'condition': 'go'}, {'fileName': 'squareblack.png', 'correct_response': 'right', 'condition': 'go'}, {'fileName': 'squareblack.png', 'correct_response': 'right', 'condition': 'go'}, {'fileName': 'circleblack.png', 'correct_response': 'left', 'condition': 'stop'}, {'fileName': 'squareblack.png', 'correct_response': 'right', 'condition': 'stop'}, {'fileName': 'squareblack.png', 'correct_response': 'right', 'condition': 'stop'}, {'fileName': 'circleblack.png', 'correct_response': 'left', 'condition': 'go'}, {'fileName': 'squareblack.png', 'correct_response': 'right', 'condition': 'go'}, {'fileName': 'circleblack.png', 'correct_response': 'left', 'condition': 'stop'}, {'fileName': 'squareblack.png', 'correct_response': 'right', 'condition': 'go'}, {'fileName': 'circleblack.png', 'correct_response': 'left', 'condition': 'go'}, {'fileName': 'squareblack.png', 'correct_response': 'right', 'condition': 'go'}, {'fileName': 'circleblack.png', 'correct_response': 'left', 'condition': 'stop'}, {'fileName': 'circleblack.png', 'correct_response': 'left', 'condition': 'go'}, {'fileName': 'squareblack.png', 'correct_response': 'right', 'condition': 'go'}, {'fileName': 'circleblack.png', 'correct_response': 'left', 'condition': 'go'}, {'fileName': 'circleblack.png', 'correct_response': 'left', 'condition': 'go'}, {'fileName': 'squareblack.png', 'correct_response': 'right', 'condition': 'stop'}, {'fileName': 'circleblack.png', 'correct_response': 'left', 'condition': 'stop'}, {'fileName': 'squareblack.png', 'correct_response': 'right', 'condition': 'stop'}, {'fileName': 'squareblack.png', 'correct_response': 'right', 'condition': 'go'}, {'fileName': 'circleblack.png', 'correct_response': 'left', 'condition': 'go'}, {'fileName': 'squareblack.png', 'correct_response': 'right', 'condition': 'go'}, {'fileName': 'squareblack.png', 'correct_response': 'right', 'condition': 'go'}, {'fileName': 'circleblack.png', 'correct_response': 'left', 'condition': 'go'}, {'fileName': 'circleblack.png', 'correct_response': 'left', 'condition': 'go'}, {'fileName': 'squareblack.png', 'correct_response': 'right', 'condition': 'stop'}, {'fileName': 'squareblack.png', 'correct_response': 'right', 'condition': 'stop'}, {'fileName': 'circleblack.png', 'correct_response': 'left', 'condition': 'stop'}, {'fileName': 'squareblack.png', 'correct_response': 'right', 'condition': 'go'}, {'fileName': 'circleblack.png', 'correct_response': 'left', 'condition': 'stop'}, {'fileName': 'squareblack.png', 'correct_response': 'right', 'condition': 'go'}, {'fileName': 'circleblack.png', 'correct_response': 'left', 'condition': 'go'}]",,,,,,s038,001,2024-09-26_11h02.24.969,simplestop_skeleton,2022.2.2,60.58202883269517,
None,None,,,,,,,,,2,0,2,0,0,0,0,2,,,,,,,,,2139.2643595784903,go,circleblack.png,left,0.35,,,,,,,,,,,,,,,,,,0.0019986778497695923,0.49144768714904785,,2141.769829712808,test,3,,,,,,,2139.2851708754897,2139.7819306328893,2139.7819306328893,2139.7991758584976,2140.133074693382,2140.633619733155,2140.784089922905,2141.7937010228634,right,0,0.9666813537478447,0.35,,,,,,,,,,,s038,001,2024-09-26_11h02.24.969,simplestop_skeleton,2022.2.2,60.58202883269517,
$currentCorrectResponse,$currentGoStim,,,,,,,,,2,0,2,0,0,1,1,0,,,,,,,,,2141.7703597024083,go,squareblack.png,right,0.35,,,,,,,,,,,,,,,,,,0.007321484386920929,0.4894738644361496,,2144.2724214047194,test,3,,,,,,,2141.7937010228634,2142.285415329039,2142.285415329039,2142.302251048386,2142.6359202489257,2143.1516443416476,2143.286180496216,2144.29110853374,right,1,0.36201243102550507,0.35,,,,,,,,,,,s038,001,2024-09-26_11h02.24.969,simplestop_skeleton,2022.2.2,60.58202883269517,
$currentCorrectResponse,$currentGoStim,,,,,,,,,2,0,2,0,0,2,2,0,,,,,,,,,2144.27285002172,go,squareblack.png,right,0.35,,,,,,,,,,,,,,,,,,0.0013065338134765625,0.48989387601614,,2146.77507789433,test,3,,,,,,,2144.29110853374,2144.7881617322564,2144.7881617322564,2144.805135950446,2145.1385762542486,2145.639110393822,2145.787920437753,2146.7937632352114,right,1,0.6267450377345085,0.35,,,,,,,,,,,s038,001,2024-09-26_11h02.24.969,simplestop_skeleton,2022.2.2,60.58202883269517,
None,None,,,,,,,,,2,0,2,0,0,3,3,3,,,,,,,,,2146.7755181342363,stop,squareblack.png,right,0.35,,,,,,,,,,,,,,,,,,0.001352362334728241,0.489763006567955,0.8398748263716698,2149.2779932394624,test,3,,,,,,,2146.7937632352114,2147.2911126464605,2147.2911126464605,2147.3077057227492,2147.641556598246,2148.1571582630277,2148.291528083384,2149.2969130799174,right,1,0.378738209605217,0.3,,,,,,,,,,,s038,001,2024-09-26_11h02.24.969,simplestop_skeleton,2022.2.2,60.58202883269517,
$currentCorrectResponse,$currentGoStim,,,,,,,,,2,0,2,0,1,0,4,0,,,,,,,,,2149.278426364064,go,squareblack.png,right,0.3,,,,,,,,,,,,,,,,,,0.0013537108898162842,0.4895747900009155,,2151.7807559147477,test,3,,,,,,,2149.2969130799174,2149.794095337391,2149.794095337391,2149.810421846807,2150.094365283847,2150.594635307789,2150.793353781104,2151.8053030967712,right,1,0.5847553759813309,0.3,,,,,,,,,,,s038,001,2024-09-26_11h02.24.969,simplestop_skeleton,2022.2.2,60.58202883269517,
None,None,,,,,,,,,2,0,2,0,1,1,5,2,,,,,,,,,2151.7811925411224,go,circleblack.png,left,0.3,,,,,,,,,,,,,,,,,,0.00782783329486847,0.4896465763449669,,2154.2831370159984,test,3,,,,,,,2151.8053030967712,2152.2964397370815,2152.2964397370815,2152.3132537528872,2152.596872225404,2153.0959181711078,2153.2971208021045,2154.3021878302097,left,1,0.35731475055217743,0.3,,,,,,,,,,,s038,001,2024-09-26_11h02.24.969,simplestop_skeleton,2022.2.2,60.58202883269517,
None,None,,,,,,,,,2,0,2,0,1,2,6,3,,,,,,,,,2154.2835733816028,go,squareblack.png,right,0.3,,,,,,,,,,,,,,,,,,0.001591309905052185,0.49004076421260834,,2156.785946048796,test,3,,,,,,,2154.3021878302097,2154.7992388159037,2154.7992388159037,2154.8159320876002,2155.0995586141944,2155.600281625986,2155.798949472606,2156.804840542376,right,1,0.5177396312355995,0.3,,,,,,,,,,,s038,001,2024-09-26_11h02.24.969,simplestop_skeleton,2022.2.2,60.58202883269517,
None,None,,,,,,,,,2,0,2,0,1,3,7,3,,,,,,,,,2156.786375105381,go,circleblack.png,left,0.3,,,,,,,,,,,,,,,,,,0.0017425566911697388,0.4899878203868866,,2159.2889760658145,test,3,,,,,,,2156.804840542376,2157.301901243627,2157.301901243627,2157.3185933232307,2157.6025640666485,2158.102199755609,2158.303197398782,2159.30771894753,left,1,0.5395380109548569,0.3,,,,,,,,,,,s038,001,2024-09-26_11h02.24.969,simplestop_skeleton,2022.2.2,60.58202883269517,
None,None,,,,,,,,,2,0,2,0,2,0,8,1,,,,,,,,,2159.2894092276692,stop,circleblack.png,left,0.3,,,,,,,,,,,,,,,,,,0.0013785362243652344,0.489596888422966,0.7900698259472847,2161.7918260097504,test,3,,,,,,,2159.30771894753,2159.8049838393927,2159.8049838393927,2159.8215409368277,2160.1052032262087,2160.6057993099093,2160.804426677525,2161.8106420338154,left,1,0.5862204283475876,0.25,,,,,,,,,,,s038,001,2024-09-26_11h02.24.969,simplestop_skeleton,2022.2.2,60.58202883269517,
None,None,,,,,,,,,2,0,2,0,2,1,9,1,,,,,,,,,2161.792251586914,go,circleblack.png,left,0.25,,,,,,,,,,,,,,,,,,0.0013991594314575195,0.48963308334350586,,2164.294147744775,test,3,,,,,,,2161.8106420338154,2162.3074986562133,2162.3074986562133,2162.3242653235793,2162.557866819203,2163.057179391384,2163.3088756501675,2164.3128276094794,left,1,0.4365113005042076,0.25,,,,,,,,,,,s038,001,2024-09-26_11h02.24.969,simplestop_skeleton,2022.2.2,60.58202883269517,
$currentCorrectResponse,$currentGoStim,,,,,,,,,2,0,2,0,2,2,10,0,,,,,,,,,2164.294586546719,stop,circleblack.png,left,0.25,,,,,,,,,,,,,,,,,,0.001295916736125946,0.48999031633138657,0.7399900555610657,2166.7971239835024,test,3,,,,,,,2164.3128276094794,2164.8102446869016,2164.8102446869016,2164.8268581330776,2165.0604519471526,2165.561082340777,2165.811309248209,2166.8160874173045,None,0,,0.3,,,,,,,,,,,s038,001,2024-09-26_11h02.24.969,simplestop_skeleton,2022.2.2,60.58202883269517,
$currentCorrectResponse,$currentGoStim,,,,,,,,,2,0,2,0,2,3,11,0,,,,,,,,,2166.7975669428706,stop,squareblack.png,right,0.3,,,,,,,,,,,,,,,,,,0.0016616880893707275,0.4898151233792305,0.7898743227124214,2169.3003205880523,test,3,,,,,,,2166.8160874173045,2167.3129257932305,2167.3129257932305,2167.329718619585,2167.6133234724402,2168.129373125732,2168.313580162823,2169.3192871138453,right,1,0.3980194479227066,0.25,,,,,,,,,,,s038,001,2024-09-26_11h02.24.969,simplestop_skeleton,2022.2.2,60.58202883269517,
$currentCorrectResponse,$currentGoStim,,,,,,,,,2,0,2,0,3,0,12,0,,,,,,,,,2169.3007579669356,go,circleblack.png,left,0.25,,,,,,,,,,,,,,,,,,0.0018368884921073914,0.4894038662314415,,2171.802686072886,test,3,,,,,,,2169.3192871138453,2169.8159079924226,2169.8159079924226,2169.8324616625905,2170.0660030320287,2170.5667426735163,2170.8155762180686,2171.8217061311007,left,1,0.5518588647246361,0.25,,,,,,,,,,,s038,001,2024-09-26_11h02.24.969,simplestop_skeleton,2022.2.2,60.58202883269517,
None,None,,,,,,,,,2,0,2,0,3,1,13,1,,,,,,,,,2171.8031127005816,go,squareblack.png,right,0.25,,,,,,,,,,,,,,,,,,0.0015644952654838562,0.48955872654914856,,2174.305297963321,test,3,,,,,,,2171.8217061311007,2172.3185835704207,2172.3185835704207,2172.335735693574,2172.569218568504,2173.0686261430383,2173.319673895836,2174.3242883756757,right,1,0.6880135536193848,0.25,,,,,,,,,,,s038,001,2024-09-26_11h02.24.969,simplestop_skeleton,2022.2.2,60.58202883269517,
None,None,,,,,,,,,2,0,2,0,3,2,14,2,,,,,,,,,2174.3058151453733,go,circleblack.png,left,0.25,,,,,,,,,,,,,,,,,,0.0016871169209480286,0.48992587625980377,,2176.807820469141,test,3,,,,,,,2174.3242883756757,2174.821628347039,2174.821628347039,2174.838172391057,2175.0716740712523,2175.5725783854723,2175.821076706052,2176.8266677856445,left,1,0.6519652456045151,0.25,,,,,,,,,,,s038,001,2024-09-26_11h02.24.969,simplestop_skeleton,2022.2.2,60.58202883269517,
None,None,,,,,,,,,2,0,2,0,3,3,15,2,,,,,,,,,2176.808253161609,go,circleblack.png,left,0.25,,,,,,,,,,,,,,,,,,0.0012687519192695618,0.4901881739497185,,2179.3110451474786,test,3,,,,,,,2176.8266677856445,2177.3243348374963,2177.3243348374963,2177.3410812541842,2177.574579127133,2178.0749106630683,2178.3238692954183,2179.3304924070835,left,1,0.6840338185429573,0.25,,,,,,,,,,,s038,001,2024-09-26_11h02.24.969,simplestop_skeleton,2022.2.2,60.58202883269517,
None,None,,,,,,,,,2,0,2,0,4,0,16,2,,,,,,,,,2179.311486147344,go,squareblack.png,right,0.25,,,,,,,,,,,,,,,,,,0.0017344281077384949,0.48926205933094025,,2181.8134458959103,test,3,,,,,,,2179.3304924070835,2179.8269315958023,2179.8269315958023,2179.8436849340796,2180.0773573741317,2180.5779934823513,2180.826669216156,2181.831954918802,right,1,0.6833909749984741,0.25,,,,,,,,,,,s038,001,2024-09-26_11h02.24.969,simplestop_skeleton,2022.2.2,60.58202883269517,
None,None,,,,,,,,,2,0,2,0,4,1,17,3,,,,,,,,,2181.8138893172145,go,squareblack.png,right,0.25,,,,,,,,,,,,,,,,,,0.001178942620754242,0.48992010951042175,,2184.3166417628527,test,3,,,,,,,2181.831954918802,2182.3296814113855,2182.3296814113855,2182.346492037177,2182.5799611881375,2183.0805178508162,2183.3293030411005,2184.3360069692135,right,1,0.4946821480989456,0.25,,,,,,,,,,,s038,001,2024-09-26_11h02.24.969,simplestop_skeleton,2022.2.2,60.58202883269517,
None,None,,,,,,,,,2,0,2,0,4,2,18,3,,,,,,,,,2184.3170938268304,stop,circleblack.png,left,0.25,,,,,,,,,,,,,,,,,,0.001992940902709961,0.48928388208150864,0.7396141886711121,2186.8192091956735,test,3,,,,,,,2184.3360069692135,2184.832904458046,2184.832904458046,2184.849103152752,2185.082720950246,2185.582020893693,2185.8332370594144,2186.8382975906134,left,1,0.4106515720486641,0.2,,,,,,,,,,,s038,001,2024-09-26_11h02.24.969,simplestop_skeleton,2022.2.2,60.58202883269517,
None,None,,,,,,,,,2,0,2,0,4,3,19,3,,,,,,,,,2186.819644600153,stop,squareblack.png,right,0.2,,,,,,,,,,,,,,,,,,0.0016900897026062012,0.4897143915295601,0.6900645270943642,2189.32200589031,test,3,,,,,,,2186.8382975906134,2187.335094384849,2187.335094384849,2187.3518391922116,2187.5355225652456,2188.0359569340944,2188.33647184819,2189.3406615257263,None,0,,0.25,,,,,,,,,,,s038,001,2024-09-26_11h02.24.969,simplestop_skeleton,2022.2.2,60.58202883269517,
None,None,,,,,,,,,2,0,2,0,5,0,20,1,,,,,,,,,2189.322431281209,stop,squareblack.png,right,0.25,,,,,,,,,,,,,,,,,,0.0012859702110290527,0.489666149020195,0.7399246469140053,2191.8248574510217,test,3,,,,,,,2189.3406615257263,2189.8381039202213,2189.8381039202213,2189.854574047029,2190.088253326714,2190.5886432006955,2190.8392330110073,2191.8444302603602,None,0,,0.3,,,,,,,,,,,s038,001,2024-09-26_11h02.24.969,simplestop_skeleton,2022.2.2,60.58202883269517,
None,None,,,,,,,,,2,0,2,0,5,1,21,1,,,,,,,,,2191.825292006135,go,circleblack.png,left,0.3,,,,,,,,,,,,,,,,,,0.0019884631037712097,0.48979270458221436,,2194.3277030289173,test,3,,,,,,,2191.8444302603602,2192.340605273843,2192.340605273843,2192.3576376363635,2192.641153857112,2193.1402260884643,2193.3404976949096,2194.346767157316,left,1,0.47577036917209625,0.3,,,,,,,,,,,s038,001,2024-09-26_11h02.24.969,simplestop_skeleton,2022.2.2,60.58202883269517,
None,None,,,,,,,,,2,0,2,0,5,2,22,2,,,,,,,,,2194.3281441628933,go,squareblack.png,right,0.3,,,,,,,,,,,,,,,,,,0.0017627179622650146,0.48935361206531525,,2196.8301836252213,test,3,,,,,,,2194.346767157316,2194.8433936461806,2194.8433936461806,2194.8602016866207,2195.1441042870283,2195.66023953259,2195.8431741446257,2196.849457293749,right,1,0.4467903822660446,0.3,,,,,,,,,,,s038,001,2024-09-26_11h02.24.969,simplestop_skeleton,2022.2.2,60.58202883269517,
$currentCorrectResponse,$currentGoStim,,,,,,,,,2,0,2,0,5,3,23,0,,,,,,,,,2196.83062043041,stop,circleblack.png,left,0.3,,,,,,,,,,,,,,,,,,0.001660853624343872,0.48975670337677,0.7900429889559746,2199.332913413644,test,3,,,,,,,2196.849457293749,2197.3461900800467,2197.3461900800467,2197.36284814775,2197.6467057466507,2198.1471164748073,2198.347131177783,2199.3517665341496,None,0,,0.35,,,,,,,,,,,s038,001,2024-09-26_11h02.24.969,simplestop_skeleton,2022.2.2,60.58202883269517,
$currentCorrectResponse,$currentGoStim,,,,,,,,,2,0,2,0,6,0,24,0,,,,,,,,,2199.333347402513,go,squareblack.png,right,0.35,,,,,,,,,,,,,,,,,,0.001635909080505371,0.4896908923983574,,2201.835497945547,test,3,,,,,,,2199.3517665341496,2199.8487921357155,2199.8487921357155,2199.8656774759293,2200.199228487909,2200.6998082995415,2200.8484662771225,2201.8549333810806,right,1,0.6208388209342957,0.35,,,,,,,,,,,s038,001,2024-09-26_11h02.24.969,simplestop_skeleton,2022.2.2,60.58202883269517,
None,None,,,,,,,,,2,0,2,0,6,1,25,2,,,,,,,,,2201.8359233364463,go,circleblack.png,left,0.35,,,,,,,,,,,,,,,,,,0.0018517673015594482,0.48955850303173065,,2204.3385734036565,test,3,,,,,,,2201.8549333810806,2202.3515428975224,2202.3515428975224,2202.3682838603854,2202.7021352127194,2203.2025249674916,2203.351295530796,2204.3573251217604,left,1,0.5918936356902122,0.35,,,,,,,,,,,s038,001,2024-09-26_11h02.24.969,simplestop_skeleton,2022.2.2,60.58202883269517,
None,None,,,,,,,,,2,0,2,0,6,2,26,1,,,,,,,,,2204.338999815285,go,squareblack.png,right,0.35,,,,,,,,,,,,,,,,,,0.0017119497060775757,0.4901145324110985,,2206.841257095337,test,3,,,,,,,2204.3573251217604,2204.8545149862766,2204.8545149862766,2204.8714456111193,2205.2049161940813,2205.7054585292935,2205.854170449078,2206.8605511263013,right,1,0.5767338424921036,0.35,,,,,,,,,,,s038,001,2024-09-26_11h02.24.969,simplestop_skeleton,2022.2.2,60.58202883269517,
$currentCorrectResponse,$currentGoStim,,,,,,,,,2,0,2,0,6,3,27,0,,,,,,,,,2206.8416873812675,stop,circleblack.png,left,0.35,,,,,,,,,,,,,,,,,,0.0019549429416656494,0.49000220000743866,0.8400968760251999,2209.344112239778,test,3,,,,,,,2206.8605511263013,2207.3572993800044,2207.3572993800044,2207.373912960291,2207.7078102454543,2208.2234105989337,2208.359013453126,2209.362825103104,left,1,0.43388329446315765,0.3,,,,,,,,,,,s038,001,2024-09-26_11h02.24.969,simplestop_skeleton,2022.2.2,60.58202883269517,
None,None,,,,,,,,,2,0,2,0,7,0,28,1,,,,,,,,,2209.344540067017,go,circleblack.png,left,0.3,,,,,,,,,,,,,,,,,,0.0013839751482009888,0.4900440648198128,,2211.846716210246,test,3,,,,,,,2209.362825103104,2209.8601028099656,2209.8601028099656,2209.8768801912665,2210.1602683365345,2210.6607980653644,2210.8596413359046,2211.8656157180667,left,1,0.6243229880928993,0.3,,,,,,,,,,,s038,001,2024-09-26_11h02.24.969,simplestop_skeleton,2022.2.2,60.58202883269517,
None,None,,,,,,,,,2,0,2,0,7,1,29,1,,,,,,,,,2211.8471480607986,go,squareblack.png,right,0.3,,,,,,,,,,,,,,,,,,0.001595325767993927,0.4899153858423233,,2214.3497276604176,test,3,,,,,,,2211.8656157180667,2212.3627288490534,2212.3627288490534,2212.379319176078,2212.663051970303,2213.162184379995,2213.3624324277043,2214.368961662054,right,1,0.5032698288559914,0.3,,,,,,,,,,,s038,001,2024-09-26_11h02.24.969,simplestop_skeleton,2022.2.2,60.58202883269517,
None,None,,,,,,,,,2,0,2,0,7,2,30,3,,,,,,,,,2214.35016644001,go,circleblack.png,left,0.3,,,,,,,,,,,,,,,,,,0.0018989592790603638,0.4896680638194084,,2216.852107398212,test,3,,,,,,,2214.368961662054,2214.865694962442,2214.865694962442,2214.882137827575,2215.1657911762595,2215.6654842346907,2215.8650808930397,2216.870572142303,left,1,0.5726248174905777,0.3,,,,,,,,,,,s038,001,2024-09-26_11h02.24.969,simplestop_skeleton,2022.2.2,60.58202883269517,
None,None,,,,,,,,,2,0,2,0,7,3,31,3,,,,,,,,,2216.852544218302,go,circleblack.png,left,0.3,,,,,,,,,,,,,,,,,,0.0012453049421310425,0.4901053160429001,,2219.35513766855,test,3,,,,,,,2216.870572142303,2217.3684732168913,2217.3684732168913,2217.384806342423,2217.66883392632,2218.1693235188723,2218.3679498285055,2219.374181434512,left,1,0.5719485655426979,0.3,,,,,,,,,,,s038,001,2024-09-26_11h02.24.969,simplestop_skeleton,2022.2.2,60.58202883269517,
None,None,,,,,,,,,2,0,2,0,8,0,32,2,,,,,,,,,2219.3555622696877,stop,squareblack.png,right,0.3,,,,,,,,,,,,,,,,,,0.0016258582472801208,0.4900525137782097,0.7900606393814087,2221.8577916920185,test,3,,,,,,,2219.374181434512,2219.8711879104376,2219.8711879104376,2219.8877657726407,2220.171571083367,2220.6719679012895,2220.8706741556525,2221.8768415525556,right,1,0.5360886380076408,0.25,,,,,,,,,,,s038,001,2024-09-26_11h02.24.969,simplestop_skeleton,2022.2.2,60.58202883269517,
None,None,,,,,,,,,2,0,2,0,8,1,33,2,,,,,,,,,2221.8582161590457,stop,circleblack.png,left,0.25,,,,,,,,,,,,,,,,,,0.0017334893345832825,0.4898992255330086,0.7402949929237366,2224.36049208045,test,3,,,,,,,2221.8768415525556,2222.3740460649133,2222.3740460649133,2222.39060510695,2222.624241501093,2223.12481084466,2223.37511459738,2224.379499129951,None,0,,0.3,,,,,,,,,,,s038,001,2024-09-26_11h02.24.969,simplestop_skeleton,2022.2.2,60.58202883269517,
None,None,,,,,,,,,2,0,2,0,8,2,34,3,,,,,,,,,2224.3609227091074,stop,squareblack.png,right,0.3,,,,,,,,,,,,,,,,,,0.001679152250289917,0.4901842996478081,0.790266640484333,2226.8632150515914,test,3,,,,,,,2224.379499129951,2224.876808963716,2224.876808963716,2224.8934244811535,2225.176975287497,2225.6773519665003,2225.8779596164823,2226.880838982761,None,0,,0.35,,,,,,,,,,,s038,001,2024-09-26_11h02.24.969,simplestop_skeleton,2022.2.2,60.58202883269517,
None,None,,,,,,,,,2,0,2,0,8,3,35,3,,,,,,,,,2226.8636405467987,go,squareblack.png,right,0.35,,,,,,,,,,,,,,,,,,0.0012537017464637756,0.48992040753364563,,2229.3657943308353,test,3,,,,,,,2226.880838982761,2227.379412740469,2227.379412740469,2227.3963433355093,2227.729656793177,2228.230334430933,2228.3790614306927,2229.384894989431,right,1,0.6367933601140976,0.35,,,,,,,,,,,s038,001,2024-09-26_11h02.24.969,simplestop_skeleton,2022.2.2,60.58202883269517,
$currentCorrectResponse,$currentGoStim,,,,,,,,,2,0,2,0,9,0,36,0,,,,,,,,,2229.3662367910147,go,circleblack.png,left,0.35,,,,,,,,,,,,,,,,,,0.001836240291595459,0.48992716521024704,,2231.868710167706,test,3,,,,,,,2229.384894989431,2229.882378101349,2229.882378101349,2229.8986155688763,2230.232669174671,2230.732990704477,2230.8816433250904,2231.887786477804,left,1,0.6908328980207443,0.35,,,,,,,,,,,s038,001,2024-09-26_11h02.24.969,simplestop_skeleton,2022.2.2,60.58202883269517,
None,None,,,,,,,,,2,0,2,0,9,1,37,1,,,,,,,,,2231.8691604062915,go,squareblack.png,right,0.35,,,,,,,,,,,,,,,,,,0.001644730567932129,0.489793099462986,,2234.3715578839183,test,3,,,,,,,2231.887786477804,2232.3848953545094,2232.3848953545094,2232.401462569833,2232.7352615892887,2233.2509311139584,2233.3852377533913,2234.390462309122,right,1,0.3893318921327591,0.35,,,,,,,,,,,s038,001,2024-09-26_11h02.24.969,simplestop_skeleton,2022.2.2,60.58202883269517,
$currentCorrectResponse,$currentGoStim,,,,,,,,,2,0,2,0,9,2,38,0,,,,,,,,,2234.371994666755,go,squareblack.png,right,0.35,,,,,,,,,,,,,,,,,,0.0012356415390968323,0.4898165091872215,,2236.8743025809526,test,3,,,,,,,2234.390462309122,2234.8876853063703,2234.8876853063703,2234.9041725695133,2235.2380881756544,2235.753938086331,2235.887672446668,2236.8937022686005,right,1,0.44254621863365173,0.35,,,,,,,,,,,s038,001,2024-09-26_11h02.24.969,simplestop_skeleton,2022.2.2,60.58202883269517,
None,None,,,,,,,,,2,0,2,0,9,3,39,2,,,,,,,,,2236.8747470602393,go,circleblack.png,left,0.35,,,,,,,,,,,,,,,,,,0.001925826072692871,0.4897545278072357,,2239.377415984869,test,3,,,,,,,2236.8937022686005,2237.390661276877,2237.390661276877,2237.4070109426975,2237.7407119572163,2238.2399534210563,2238.3899739980698,2239.3975394293666,left,1,0.48073137551546097,0.35,,,,,,,,,,,s038,001,2024-09-26_11h02.24.969,simplestop_skeleton,2022.2.2,60.58202883269517,
$currentCorrectResponse,$currentGoStim,,,,,,,,,2,0,2,0,10,0,40,0,,,,,,,,,2239.377967618406,go,circleblack.png,left,0.35,,,,,,,,,,,,,,,,,,0.002138987183570862,0.4886469393968582,,2241.879843004048,test,3,,,,,,,2239.3975394293666,2239.8930847123265,2239.8930847123265,2239.9097202792764,2240.243484683335,2240.7593921869993,2240.8929860144854,2241.898931697011,right,0,0.429375521838665,0.35,,,,,,,,,,,s038,001,2024-09-26_11h02.24.969,simplestop_skeleton,2022.2.2,60.58202883269517,
None,None,,,,,,,,,2,0,2,0,10,1,41,3,,,,,,,,,2241.8802725821733,stop,squareblack.png,right,0.35,,,,,,,,,,,,,,,,,,0.00165538489818573,0.490043967962265,0.8389415144920349,2244.382632687688,test,3,,,,,,,2241.898931697011,2242.39591281116,2242.39591281116,2242.4125527516007,2242.7448633387685,2243.246672026813,2243.397045351565,2244.401562638581,None,0,,0.4,,,,,,,,,,,s038,001,2024-09-26_11h02.24.969,simplestop_skeleton,2022.2.2,60.58202883269517,
None,None,,,,,,,,,2,0,2,0,10,2,42,2,,,,,,,,,2244.3830588683486,stop,squareblack.png,right,0.4,,,,,,,,,,,,,,,,,,0.0013152137398719788,0.4894762560725212,0.8901622071862221,2246.885345682502,test,3,,,,,,,2244.401562638581,2244.8986686468124,2244.8986686468124,2244.9154320061207,2245.299242682755,2245.79827439785,2245.8983932211995,2246.904534868896,right,1,0.5429437682032585,0.35,,,,,,,,,,,s038,001,2024-09-26_11h02.24.969,simplestop_skeleton,2022.2.2,60.58202883269517,
None,None,,,,,,,,,2,0,2,0,10,3,43,2,,,,,,,,,2246.885844051838,stop,circleblack.png,left,0.35,,,,,,,,,,,,,,,,,,0.0017736852169036865,0.4897399842739105,0.8403322100639343,2249.3882141038775,test,3,,,,,,,2246.904534868896,2247.401438958943,2247.401438958943,2247.418047271669,2247.751757621765,2248.252566359937,2248.402681015432,2249.407450608909,None,0,,0.4,,,,,,,,,,,s038,001,2024-09-26_11h02.24.969,simplestop_skeleton,2022.2.2,60.58202883269517,
None,None,,,,,,,,,2,0,2,0,11,0,44,1,,,,,,,,,2249.388656705618,go,squareblack.png,right,0.4,,,,,,,,,,,,,,,,,,0.00160922110080719,0.4898511916399002,,2251.891223050654,test,3,,,,,,,2249.407450608909,2249.9042449742556,2249.9042449742556,2249.9211229383945,2250.3046330809593,2250.8039853572845,2250.903832755983,2251.910563521087,right,1,0.6123991534113884,0.4,,,,,,,,,,,s038,001,2024-09-26_11h02.24.969,simplestop_skeleton,2022.2.2,60.58202883269517,
None,None,,,,,,,,,2,0,2,0,11,1,45,3,,,,,,,,,2251.8916641548276,stop,circleblack.png,left,0.4,,,,,,,,,,,,,,,,,,0.0018686503171920776,0.4896261915564537,0.8900872766971588,2254.3936655148864,test,3,,,,,,,2251.910563521087,2252.406785018742,2252.406785018742,2252.4236838445067,2252.807322561741,2253.3066095262766,2253.4067657589912,2254.412657827139,left,1,0.5554578974843025,0.35,,,,,,,,,,,s038,001,2024-09-26_11h02.24.969,simplestop_skeleton,2022.2.2,60.58202883269517,
None,None,,,,,,,,,2,0,2,0,11,2,46,1,,,,,,,,,2254.3940997496247,go,squareblack.png,right,0.35,,,,,,,,,,,,,,,,,,0.00163973867893219,0.48985905945301056,,2256.8965412452817,test,3,,,,,,,2254.412657827139,2254.909577384591,2254.909577384591,2254.9263928458095,2255.2599270269275,2255.7606872320175,2255.909829109907,2256.915663205087,right,1,0.6618526056408882,0.35,,,,,,,,,,,s038,001,2024-09-26_11h02.24.969,simplestop_skeleton,2022.2.2,60.58202883269517,
None,None,,,,,,,,,2,0,2,0,11,3,47,1,,,,,,,,,2256.896976709366,go,circleblack.png,left,0.35,,,,,,,,,,,,,,,,,,0.0017785727977752686,0.48968955129384995,,2259.3989228606224,test,3,,,,,,,2256.915663205087,2257.412784419954,2257.412784419954,2257.4291712865233,2257.762901648879,2258.2632759436965,2258.413675531745,2259.414461173117,left,1,0.8580491095781326,0.35,,,,,,,,,,,s038,001,2024-09-26_11h02.24.969,simplestop_skeleton,2022.2.2,60.58202883269517,
