corrGoResp,shape,practiceBlocks.thisRepN,practiceBlocks.thisTrialN,practiceBlocks.thisN,practiceBlocks.thisIndex,practiceTrials.thisRepN,practiceTrials.thisTrialN,practiceTrials.thisN,practiceTrials.thisIndex,stopBlocks.thisRepN,stopBlocks.thisTrialN,stopBlocks.thisN,stopBlocks.thisIndex,testTrials.thisRepN,testTrials.thisTrialN,testTrials.thisN,testTrials.thisIndex,stopPracTrialList,Test Block: 1,welcome.started,start_exp.started,start_exp.keys,start_exp.rt,instrStopText.started,start_prac.started,StartTrialTimeStamp,trialType,goStim,correctResponse,ssd,fixation.started,rules.started,goStim.started,goResp.started,fixation.stopped,stopSignal.started,stopSignal.stopped,goStim.stopped,goResp.stopped,rules.stopped,goResp.keys,goResp.corr,text.started,rules_2.started,fixationOnset,goStimOnset,stopSignalOnset,EndTrialTimeStamp,Phase,Block,text.stopped,rules_2.stopped,goResp.rt,text_5.started,key_resp_3.started,key_resp_3.keys,key_resp_3.rt,key_resp.started,testText.started,test_fixation.started,goStim_test.started,goResp_test.started,test_fixation.stopped,stopSignal_test.started,stopSignal_test.stopped,goStim_test.stopped,goResp_test.stopped,goResp_test.keys,goResp_test.corr,goResp_test.rt,EndingSSD,text_6.started,key_resp_4.started,key_resp_4.keys,key_resp_4.rt,Test Block: 2,Test Block: 3,ending_text.started,end_resp.started,end_resp.keys,end_resp.rt,participant,session,date,expName,psychopyVersion,frameRate,
,,,,,,,,,,,,,,,,,,"[{'fileName': 'squareblack.png', 'correct_response': 'right', 'condition': 'go'}, {'fileName': 'squareblack.png', 'correct_response': 'right', 'condition': 'go'}, {'fileName': 'circleblack.png', 'correct_response': 'left', 'condition': 'go'}, {'fileName': 'squareblack.png', 'correct_response': 'right', 'condition': 'stop'}, {'fileName': 'circleblack.png', 'correct_response': 'left', 'condition': 'go'}, {'fileName': 'circleblack.png', 'correct_response': 'left', 'condition': 'stop'}, {'fileName': 'squareblack.png', 'correct_response': 'right', 'condition': 'go'}, {'fileName': 'squareblack.png', 'correct_response': 'right', 'condition': 'go'}, {'fileName': 'circleblack.png', 'correct_response': 'left', 'condition': 'stop'}, {'fileName': 'circleblack.png', 'correct_response': 'left', 'condition': 'go'}, {'fileName': 'squareblack.png', 'correct_response': 'right', 'condition': 'stop'}, {'fileName': 'circleblack.png', 'correct_response': 'left', 'condition': 'go'}, {'fileName': 'squareblack.png', 'correct_response': 'right', 'condition': 'go'}, {'fileName': 'squareblack.png', 'correct_response': 'right', 'condition': 'go'}, {'fileName': 'circleblack.png', 'correct_response': 'left', 'condition': 'go'}, {'fileName': 'circleblack.png', 'correct_response': 'left', 'condition': 'go'}, {'fileName': 'squareblack.png', 'correct_response': 'right', 'condition': 'stop'}, {'fileName': 'circleblack.png', 'correct_response': 'left', 'condition': 'stop'}, {'fileName': 'circleblack.png', 'correct_response': 'left', 'condition': 'stop'}, {'fileName': 'squareblack.png', 'correct_response': 'right', 'condition': 'go'}, {'fileName': 'circleblack.png', 'correct_response': 'left', 'condition': 'go'}, {'fileName': 'circleblack.png', 'correct_response': 'left', 'condition': 'go'}, {'fileName': 'squareblack.png', 'correct_response': 'right', 'condition': 'go'}, {'fileName': 'squareblack.png', 'correct_response': 'right', 'condition': 'stop'}]","[{'fileName': 'circleblack.png', 'correct_response': 'left', 'condition': 'go'}, {'fileName': 'circleblack.png', 'correct_response': 'left', 'condition': 'stop'}, {'fileName': 'squareblack.png', 'correct_response': 'right', 'condition': 'go'}, {'fileName': 'squareblack.png', 'correct_response': 'right', 'condition': 'go'}, {'fileName': 'squareblack.png', 'correct_response': 'right', 'condition': 'go'}, {'fileName': 'circleblack.png', 'correct_response': 'left', 'condition': 'go'}, {'fileName': 'circleblack.png', 'correct_response': 'left', 'condition': 'go'}, {'fileName': 'squareblack.png', 'correct_response': 'right', 'condition': 'go'}, {'fileName': 'circleblack.png', 'correct_response': 'left', 'condition': 'go'}, {'fileName': 'squareblack.png', 'correct_response': 'right', 'condition': 'stop'}, {'fileName': 'squareblack.png', 'correct_response': 'right', 'condition': 'stop'}, {'fileName': 'circleblack.png', 'correct_response': 'left', 'condition': 'stop'}, {'fileName': 'circleblack.png', 'correct_response': 'left', 'condition': 'go'}, {'fileName': 'squareblack.png', 'correct_response': 'right', 'condition': 'go'}, {'fileName': 'circleblack.png', 'correct_response': 'left', 'condition': 'stop'}, {'fileName': 'squareblack.png', 'correct_response': 'right', 'condition': 'go'}, {'fileName': 'circleblack.png', 'correct_response': 'left', 'condition': 'go'}, {'fileName': 'squareblack.png', 'correct_response': 'right', 'condition': 'go'}, {'fileName': 'squareblack.png', 'correct_response': 'right', 'condition': 'stop'}, {'fileName': 'circleblack.png', 'correct_response': 'left', 'condition': 'go'}, {'fileName': 'squareblack.png', 'correct_response': 'right', 'condition': 'go'}, {'fileName': 'squareblack.png', 'correct_response': 'right', 'condition': 'stop'}, {'fileName': 'circleblack.png', 'correct_response': 'left', 'condition': 'stop'}, {'fileName': 'circleblack.png', 'correct_response': 'left', 'condition': 'go'}, {'fileName': 'circleblack.png', 'correct_response': 'left', 'condition': 'go'}, {'fileName': 'circleblack.png', 'correct_response': 'left', 'condition': 'stop'}, {'fileName': 'squareblack.png', 'correct_response': 'right', 'condition': 'stop'}, {'fileName': 'circleblack.png', 'correct_response': 'left', 'condition': 'go'}, {'fileName': 'squareblack.png', 'correct_response': 'right', 'condition': 'go'}, {'fileName': 'squareblack.png', 'correct_response': 'right', 'condition': 'go'}, {'fileName': 'circleblack.png', 'correct_response': 'left', 'condition': 'go'}, {'fileName': 'squareblack.png', 'correct_response': 'right', 'condition': 'go'}, {'fileName': 'circleblack.png', 'correct_response': 'left', 'condition': 'stop'}, {'fileName': 'squareblack.png', 'correct_response': 'right', 'condition': 'go'}, {'fileName': 'circleblack.png', 'correct_response': 'left', 'condition': 'go'}, {'fileName': 'squareblack.png', 'correct_response': 'right', 'condition': 'stop'}, {'fileName': 'squareblack.png', 'correct_response': 'right', 'condition': 'go'}, {'fileName': 'circleblack.png', 'correct_response': 'left', 'condition': 'go'}, {'fileName': 'circleblack.png', 'correct_response': 'left', 'condition': 'stop'}, {'fileName': 'circleblack.png', 'correct_response': 'left', 'condition': 'go'}, {'fileName': 'circleblack.png', 'correct_response': 'left', 'condition': 'stop'}, {'fileName': 'squareblack.png', 'correct_response': 'right', 'condition': 'stop'}, {'fileName': 'squareblack.png', 'correct_response': 'right', 'condition': 'go'}, {'fileName': 'circleblack.png', 'correct_response': 'left', 'condition': 'go'}, {'fileName': 'squareblack.png', 'correct_response': 'right', 'condition': 'go'}, {'fileName': 'squareblack.png', 'correct_response': 'right', 'condition': 'go'}, {'fileName': 'circleblack.png', 'correct_response': 'left', 'condition': 'go'}, {'fileName': 'squareblack.png', 'correct_response': 'right', 'condition': 'stop'}]",2931.183359324932,2931.183359324932,return,5.757801808416843,,,,,,,,,,,,,,,,,,,,,,,,,,,,,,,,,,,,,,,,,,,,,,,,,,,,,,,,,,,s043,001,2024-09-27_16h09.25.137,simplestop_skeleton,2022.2.2,59.86915366502262,
None,None,0,0,0,0,0,0,0,2,,,,,,,,,,,,,,,2936.9895983859897,2936.9895983859897,2982.042425364256,go,squareblack.png,right,0.35,2982.0655897408724,2982.0655897408724,2982.55781558156,2982.55781558156,2982.5744392722845,2982.9079972729087,2983.4087509438396,2983.5588076859713,2984.5597673505545,2984.5790396630764,None,0,2984.5790396630764,2984.5790396630764,0.002745330333709717,0.4890366569161415,0.8396083265542984,2985.078254200518,practice,1,,,,,,,,,,,,,,,,,,,,,,,,,,,,,,,,s043,001,2024-09-27_16h09.25.137,simplestop_skeleton,2022.2.2,59.86915366502262,
None,None,0,0,0,0,0,1,1,2,,,,,,,,,,,,,,,,,2985.0788035318255,go,squareblack.png,right,0.35,2985.0982495620847,2985.0982495620847,2985.5947134122252,2985.5947134122252,2985.6109821349382,2985.9449150264263,2986.4440071210265,2986.594022385776,2987.5952379107475,2987.612030662596,None,0,2987.612030662596,2987.612030662596,0.001326732337474823,0.48941612243652344,0.8398064970970154,2988.0966293886304,practice,1,2988.119686216116,2988.119686216116,,,,,,,,,,,,,,,,,,,,,,,,,,,,,,s043,001,2024-09-27_16h09.25.137,simplestop_skeleton,2022.2.2,59.86915366502262,
None,None,0,0,0,0,0,2,2,3,,,,,,,,,,,,,,,,,2988.0970622375607,go,circleblack.png,left,0.35,2988.119686216116,2988.119686216116,2988.6130733191967,2988.6130733191967,2988.6297318041325,2988.9632989168167,2989.4642855897546,2989.6140115708113,2990.615892753005,2990.6325624734163,None,0,2990.6325624734163,2990.6325624734163,0.007788054645061493,0.4901946932077408,0.8403989300131798,2991.1177564561367,practice,1,,,,,,,,,,,,,,,,,,,,,,,,,,,,,,,,s043,001,2024-09-27_16h09.25.137,simplestop_skeleton,2022.2.2,59.86915366502262,
$currentCorrectResponse,$currentGoStim,0,0,0,0,0,3,3,0,,,,,,,,,,,,,,,,,2991.118212468922,stop,squareblack.png,right,0.35,2991.1375964581966,2991.1375964581966,2991.6341467276216,2991.6341467276216,2991.6509254798293,2991.98474214226,2992.485096372664,2992.6354185417295,2993.6364348456264,2993.653075195849,None,0,2993.653075195849,2993.653075195849,0.0018313080072402954,0.4903576672077179,0.8404972702264786,2994.138073079288,practice,1,,,,,,,,,,,,,,,,,,,,,,,,,,,,,,,,s043,001,2024-09-27_16h09.25.137,simplestop_skeleton,2022.2.2,59.86915366502262,
None,None,0,0,0,0,1,0,4,3,,,,,,,,,,,,,,,,,2994.1385384723544,go,circleblack.png,left,0.4,2994.1581369265914,2994.1581369265914,2994.6547973454,2994.6547973454,2994.6712875962257,2995.054989270866,2995.55407358706,2995.654137223959,2996.6552633196115,2996.6719969287515,left,1,2996.6719969287515,2996.6719969287515,0.0018392354249954224,0.4900076761841774,0.8906503692269325,2997.156953394413,practice,1,2997.174624107778,2997.174624107778,0.531284473836422,,,,,,,,,,,,,,,,,,,,,,,,,,,,,s043,001,2024-09-27_16h09.25.137,simplestop_skeleton,2022.2.2,59.86915366502262,
None,None,0,0,0,0,1,1,5,3,,,,,,,,,,,,,,,,,2997.157561466098,stop,circleblack.png,left,0.4,2997.174624107778,2997.174624107778,2997.6730397567153,2997.6730397567153,2997.6897601783276,2998.0733923390508,2998.5738844275475,2998.6741989701986,2999.6758791282773,2999.6758791282773,left,1,2999.6758791282773,2999.6758791282773,0.0013392344117164612,0.48972003906965256,0.8900686651468277,3000.1609573438764,practice,1,,,0.4015009328722954,,,,,,,,,,,,,,,,,,,,,,,,,,,,,s043,001,2024-09-27_16h09.25.137,simplestop_skeleton,2022.2.2,59.86915366502262,
$currentCorrectResponse,$currentGoStim,0,0,0,0,1,2,6,0,,,,,,,,,,,,,,,,,3000.1614131852984,go,squareblack.png,right,0.35,3000.180899247527,3000.180899247527,3000.677404627204,3000.677404627204,3000.6944223940372,3001.0284077376127,3001.543844252825,3001.6772884353995,3002.680190369487,3002.680190369487,left,0,3002.680190369487,3002.680190369487,0.0016681775450706482,0.490351177752018,0.8411586359143257,3003.1795177534223,practice,1,,,0.32566555589437485,,,,,,,,,,,,,,,,,,,,,,,,,,,,,s043,001,2024-09-27_16h09.25.137,simplestop_skeleton,2022.2.2,59.86915366502262,
None,None,0,0,0,0,1,3,7,1,,,,,,,,,,,,,,,,,3003.179966285825,go,squareblack.png,right,0.35,3003.1968949064612,3003.1968949064612,3003.6962560489774,3003.6962560489774,3003.6962560489774,3004.0464812889695,3004.5470612868667,3004.6973498612642,3005.699059173465,3005.699059173465,right,1,3005.699059173465,3005.699059173465,0.0012062638998031616,0.4902866631746292,0.8405289426445961,3006.1843417212367,practice,1,,,0.3941960707306862,,,,,,,,,,,,,,,,,,,,,,,,,,,,,s043,001,2024-09-27_16h09.25.137,simplestop_skeleton,2022.2.2,59.86915366502262,
None,None,0,0,0,0,2,0,8,2,,,,,,,,,,,,,,,,,3006.184771358967,stop,circleblack.png,left,0.35,3006.20463308692,3006.20463308692,3006.7009135633707,3006.7009135633707,3006.717514939606,3007.051350861788,3007.550585024059,3007.7004385739565,3008.70194837451,3008.7184567973018,left,1,3008.7184567973018,3008.7184567973018,0.001926235854625702,0.4902060553431511,0.8403907865285873,3009.20310986042,practice,1,3009.2346218451858,3009.2346218451858,0.36188605427742004,,,,,,,,,,,,,,,,,,,,,,,,,,,,,s043,001,2024-09-27_16h09.25.137,simplestop_skeleton,2022.2.2,59.86915366502262,
None,None,0,0,0,0,2,1,9,2,,,,,,,,,,,,,,,,,3009.203542880714,go,circleblack.png,left,0.3,3009.2346218451858,3009.2346218451858,3009.719622194767,3009.719622194767,3009.736244931817,3010.019676208496,3010.520406410098,3010.720586463809,3011.7221881076694,3011.739429846406,right,0,3011.739429846406,3011.739429846406,0.001284971833229065,0.49017830193042755,0.7902387753129005,3012.2243605554104,practice,1,,,0.3919270411133766,,,,,,,,,,,,,,,,,,,,,,,,,,,,,s043,001,2024-09-27_16h09.25.137,simplestop_skeleton,2022.2.2,59.86915366502262,
$currentCorrectResponse,$currentGoStim,0,0,0,0,2,2,10,0,,,,,,,,,,,,,,,,,3012.2247995734215,stop,squareblack.png,right,0.3,3012.244674935937,3012.244674935937,3012.7407738491893,3012.7407738491893,3012.757428109646,3013.0413295701146,3013.540393434465,3013.740684762597,3014.7420602962375,3014.7584796324372,right,1,3014.7584796324372,3014.7584796324372,0.0018681436777114868,0.4901842698454857,0.7906552329659462,3015.243104323745,practice,1,3015.261205174029,3015.261205174029,0.466784730553627,,,,,,,,,,,,,,,,,,,,,,,,,,,,,s043,001,2024-09-27_16h09.25.137,simplestop_skeleton,2022.2.2,59.86915366502262,
None,None,0,0,0,0,2,3,11,1,,,,,,,,,,,,,,,,,3015.243537850678,go,circleblack.png,left,0.25,3015.261205174029,3015.261205174029,3015.759492456913,3015.759492456913,3015.776266977191,3016.009726166725,3016.5103295072913,3016.7606305852532,3017.7623412013054,3017.7623412013054,left,1,3017.7623412013054,3017.7623412013054,0.0017619356513023376,0.49007757008075714,0.7403698340058327,3018.247698381543,practice,1,,,0.3228321820497513,,,,,,,,,,,,,,,,,,,,,,,,,,,,,s043,001,2024-09-27_16h09.25.137,simplestop_skeleton,2022.2.2,59.86915366502262,
None,None,0,0,0,0,3,0,12,2,,,,,,,,,,,,,,,,,3018.2481478452682,go,squareblack.png,right,0.25,3018.267631225288,3018.267631225288,3018.7641676291823,3018.7641676291823,3018.7807712703943,3019.0143531784415,3019.513598293066,3019.7638189271092,3020.766831256449,3020.766831256449,right,1,3020.766831256449,3020.766831256449,0.0017636939883232117,0.48998475074768066,0.7404821068048477,3021.2662130072713,practice,1,,,0.38118013739585876,,,,,,,,,,,,,,,,,,,,,,,,,,,,,s043,001,2024-09-27_16h09.25.137,simplestop_skeleton,2022.2.2,59.86915366502262,
$currentCorrectResponse,$currentGoStim,0,0,0,0,3,1,13,0,,,,,,,,,,,,,,,,,3021.266653649509,go,squareblack.png,right,0.25,3021.2835939973593,3021.2835939973593,3021.7827957570553,3021.7827957570553,3021.7827957570553,3022.0329578518867,3022.5334784165025,3022.783883690834,3023.7855169326067,3023.7855169326067,right,1,3023.7855169326067,3023.7855169326067,0.00121963769197464,0.4903891906142235,0.7405058518052101,3024.2709366828203,practice,1,,,0.48006850481033325,,,,,,,,,,,,,,,,,,,,,,,,,,,,,s043,001,2024-09-27_16h09.25.137,simplestop_skeleton,2022.2.2,59.86915366502262,
$currentCorrectResponse,$currentGoStim,0,0,0,0,3,2,14,0,,,,,,,,,,,,,,,,,3024.2713687866926,go,circleblack.png,left,0.25,3024.2912510856986,3024.2912510856986,3024.7875762060285,3024.7875762060285,3024.8044228106737,3025.037727341056,3025.537091933191,3025.7871520891786,3026.788302950561,3026.8048989400268,left,1,3026.8048989400268,3026.8048989400268,0.0019645243883132935,0.4902462810277939,0.7407856434583664,3027.2898266389966,practice,1,3027.3070415705442,3027.3070415705442,0.30605708807706833,,,,,,,,,,,,,,,,,,,,,,,,,,,,,s043,001,2024-09-27_16h09.25.137,simplestop_skeleton,2022.2.2,59.86915366502262,
None,None,0,0,0,0,3,3,15,2,,,,,,,,,,,,,,,,,3027.2902543395758,go,circleblack.png,left,0.25,3027.3070415705442,3027.3070415705442,3027.806366674602,3027.806366674602,3027.806366674602,3028.0563666820526,3028.557573184371,3028.807311348617,3029.8089160099626,3029.8089160099626,left,1,3029.8089160099626,3029.8089160099626,0.0012549608945846558,0.49021289497613907,0.7403450906276703,3030.2945525571704,practice,1,,,0.3742067962884903,,,,,,,,,,,,,,,,,,,,,,,,,,,,,s043,001,2024-09-27_16h09.25.137,simplestop_skeleton,2022.2.2,59.86915366502262,
None,None,0,0,0,0,4,0,16,3,,,,,,,,,,,,,,,,,3030.294987745583,stop,squareblack.png,right,0.25,3030.3145778924227,3030.3145778924227,3030.8107041567564,3030.8107041567564,3030.8272421509027,3031.061248585582,3031.560363456607,3031.8105181381106,3032.8115732967854,3032.828267596662,right,1,3032.828267596662,3032.828267596662,0.0017355307936668396,0.4896680638194084,0.7399585396051407,3033.31310172379,practice,1,3033.3310041353106,3033.3310041353106,0.35134338587522507,,,,,,,,,,,,,,,,,,,,,,,,,,,,,s043,001,2024-09-27_16h09.25.137,simplestop_skeleton,2022.2.2,59.86915366502262,
$currentCorrectResponse,$currentGoStim,0,0,0,0,4,1,17,0,,,,,,,,,,,,,,,,,3033.3135302364826,stop,circleblack.png,left,0.2,3033.3310041353106,3033.3310041353106,3033.829495795071,3033.829495795071,3033.846199207008,3034.029595762491,3034.530294008553,3034.8306160494685,3035.832370199263,3035.832370199263,left,1,3035.832370199263,3035.832370199263,0.001700475811958313,0.49025387316942215,0.6900785267353058,3036.317629545927,practice,1,,,0.402946300804615,,,,,,,,,,,,,,,,,,,,,,,,,,,,,s043,001,2024-09-27_16h09.25.137,simplestop_skeleton,2022.2.2,59.86915366502262,
None,None,0,0,0,0,4,2,18,1,,,,,,,,,,,,,,,,,3036.3180619105697,stop,circleblack.png,left,0.15,3036.337724044919,3036.337724044919,3036.8339507952332,3036.8339507952332,3036.850889764726,3036.984194777906,3037.484909839928,3037.835390597582,3038.836273021996,3038.852984070778,None,0,3038.852984070778,3038.852984070778,0.0013178661465644836,0.49008942395448685,0.6401209160685539,3039.3377262428403,practice,1,3039.357648588717,3039.357648588717,,,,,,,,,,,,,,,,,,,,,,,,,,,,,,s043,001,2024-09-27_16h09.25.137,simplestop_skeleton,2022.2.2,59.86915366502262,
None,None,0,0,0,0,4,3,19,1,,,,,,,,,,,,,,,,,3039.3381712660193,go,squareblack.png,right,0.2,3039.357648588717,3039.357648588717,3039.8543759807944,3039.8543759807944,3039.8708179071546,3040.0542704090476,3040.5552237406373,3040.854131050408,3041.855205923319,3041.8718503192067,right,1,3041.8718503192067,3041.8718503192067,0.0017197057604789734,0.49016425758600235,0.6904998496174812,3042.3563940003514,practice,1,3042.3744685575366,3042.3744685575366,0.4391528517007828,,,,,,,,,,,,,,,,,,,,,,,,,,,,,s043,001,2024-09-27_16h09.25.137,simplestop_skeleton,2022.2.2,59.86915366502262,
None,None,0,0,0,0,5,0,20,3,,,,,,,,,,,,,,,,,3042.3568580299616,go,circleblack.png,left,0.2,3042.3744685575366,3042.3744685575366,3042.874326981604,3042.874326981604,3042.874326981604,3043.074817329645,3043.590258166194,3043.873881459236,3044.874826192856,3044.874826192856,left,1,3044.874826192856,3044.874826192856,0.001812167465686798,0.4910241514444351,0.6919812262058258,3045.360877171159,practice,1,,,0.4371817037463188,,,,,,,,,,,,,,,,,,,,,,,,,,,,,s043,001,2024-09-27_16h09.25.137,simplestop_skeleton,2022.2.2,59.86915366502262,
None,None,0,0,0,0,5,1,21,1,,,,,,,,,,,,,,,,,3045.361331425607,go,circleblack.png,left,0.2,3045.3805296197534,3045.3805296197534,3045.877527616918,3045.877527616918,3045.894122377038,3046.0775644630194,3046.5782290026546,3046.8772531822324,3047.880734741688,3047.880734741688,left,1,3047.880734741688,3047.880734741688,0.0012561902403831482,0.49039170891046524,0.6903583258390427,3048.379521973431,practice,1,,,0.59811881929636,,,,,,,,,,,,,,,,,,,,,,,,,,,,,s043,001,2024-09-27_16h09.25.137,simplestop_skeleton,2022.2.2,59.86915366502262,
None,None,0,0,0,0,5,2,22,1,,,,,,,,,,,,,,,,,3048.3803009688854,go,squareblack.png,right,0.2,3048.397808223963,3048.397808223963,3048.897485136986,3048.897485136986,3048.897485136986,3049.097631588578,3049.5966401025653,3049.8970013707876,3050.89811924845,3050.89811924845,right,1,3050.89811924845,3050.89811924845,0.001606181263923645,0.49169910699129105,0.6906714960932732,3051.384228244424,practice,1,,,0.31792985647916794,,,,,,,,,,,,,,,,,,,,,,,,,,,,,s043,001,2024-09-27_16h09.25.137,simplestop_skeleton,2022.2.2,59.86915366502262,
None,None,0,0,0,0,5,3,23,3,,,,,,,,,,,,,,,,,3051.384677581489,stop,squareblack.png,right,0.2,3051.4040071964264,3051.4040071964264,3051.9007335156202,3051.9007335156202,3051.917491286993,3052.100946582854,3052.600109323859,3052.9004174545407,3053.901640109718,3053.9184443876147,right,1,3053.9184443876147,3053.9184443876147,0.001192718744277954,0.49028130620718,0.6902848929166794,3054.4029779061675,practice,1,3054.434404298663,3054.434404298663,0.3556784391403198,,,,,,,,,,,,,,,,,,,,,,,,,,,,,s043,001,2024-09-27_16h09.25.137,simplestop_skeleton,2022.2.2,59.86915366502262,
,,0,0,0,0,,,,,,,,,,,,,"[{'fileName': 'circleblack.png', 'correct_response': 'left', 'condition': 'go'}, {'fileName': 'squareblack.png', 'correct_response': 'right', 'condition': 'go'}, {'fileName': 'squareblack.png', 'correct_response': 'right', 'condition': 'go'}, {'fileName': 'squareblack.png', 'correct_response': 'right', 'condition': 'go'}, {'fileName': 'circleblack.png', 'correct_response': 'left', 'condition': 'go'}, {'fileName': 'squareblack.png', 'correct_response': 'right', 'condition': 'stop'}, {'fileName': 'squareblack.png', 'correct_response': 'right', 'condition': 'go'}, {'fileName': 'circleblack.png', 'correct_response': 'left', 'condition': 'go'}, {'fileName': 'squareblack.png', 'correct_response': 'right', 'condition': 'stop'}, {'fileName': 'circleblack.png', 'correct_response': 'left', 'condition': 'stop'}, {'fileName': 'circleblack.png', 'correct_response': 'left', 'condition': 'stop'}, {'fileName': 'circleblack.png', 'correct_response': 'left', 'condition': 'go'}, {'fileName': 'circleblack.png', 'correct_response': 'left', 'condition': 'stop'}, {'fileName': 'circleblack.png', 'correct_response': 'left', 'condition': 'stop'}, {'fileName': 'circleblack.png', 'correct_response': 'left', 'condition': 'go'}, {'fileName': 'squareblack.png', 'correct_response': 'right', 'condition': 'go'}, {'fileName': 'squareblack.png', 'correct_response': 'right', 'condition': 'go'}, {'fileName': 'circleblack.png', 'correct_response': 'left', 'condition': 'go'}, {'fileName': 'squareblack.png', 'correct_response': 'right', 'condition': 'go'}, {'fileName': 'squareblack.png', 'correct_response': 'right', 'condition': 'stop'}, {'fileName': 'squareblack.png', 'correct_response': 'right', 'condition': 'go'}, {'fileName': 'circleblack.png', 'correct_response': 'left', 'condition': 'go'}, {'fileName': 'squareblack.png', 'correct_response': 'right', 'condition': 'stop'}, {'fileName': 'circleblack.png', 'correct_response': 'left', 'condition': 'go'}]",,,,,,,,,,,,,,,,,,,,,,,,,,,,,,,,,,,,3054.434404298663,3054.434404298663,return,2.315461538732052,,,,,,,,,,,,,,,,,,,,,,,,,s043,001,2024-09-27_16h09.25.137,simplestop_skeleton,2022.2.2,59.86915366502262,
None,None,,,,,,,,,0,0,0,0,0,0,0,2,,,,,,,,,3060.5132927298546,go,circleblack.png,left,0.15,,,,,,,,,,,,,,,0.0033233314752578735,0.4880272373557091,,3063.014491930604,test,1,,,,,,,,3056.771435931325,3056.771435931325,3060.5373359173536,3061.02764839679,3061.02764839679,3061.0441622063518,3061.177515640855,3061.6785134747624,3062.0288173928857,3063.033833384514,left,1,0.4380119740962982,0.15,,,,,,,,,,,s043,001,2024-09-27_16h09.25.137,simplestop_skeleton,2022.2.2,59.86915366502262,
None,None,,,,,,,,,0,0,0,0,0,1,1,3,,,,,,,,,3063.0150377228856,stop,circleblack.png,left,0.15,,,,,,,,,,,,,,,0.0014228597283363342,0.4893163666129112,0.6392758414149284,3065.5157018452883,test,1,,,,,,,,,,3063.033833384514,3063.5305400192738,3063.5305400192738,3063.546850502491,3063.680424384773,3064.1812479794025,3064.5313542187214,3065.5385997593403,None,0,,0.2,,,,,,,,,,,s043,001,2024-09-27_16h09.25.137,simplestop_skeleton,2022.2.2,59.86915366502262,
None,None,,,,,,,,,0,0,0,0,0,2,2,1,,,,,,,,,3065.5161535963416,go,squareblack.png,right,0.2,,,,,,,,,,,,,,,0.00715908408164978,0.48947667330503464,,3068.0193504542112,test,1,,,,,,,,,,3065.5385997593403,3066.031738206744,3066.031738206744,3066.048412054777,3066.2317305356264,3066.7324215248227,3067.0329297855496,3068.037556514144,right,1,0.3955506756901741,0.2,,,,,,,,,,,s043,001,2024-09-27_16h09.25.137,simplestop_skeleton,2022.2.2,59.86915366502262,
None,None,,,,,,,,,0,0,0,0,0,3,3,2,,,,,,,,,3068.0197971835732,go,squareblack.png,right,0.2,,,,,,,,,,,,,,,0.00139579176902771,0.48816824704408646,,3070.522172637284,test,1,,,,,,,,,,3068.037556514144,3068.534363768995,3068.534363768995,3068.550970174372,3068.7346120625734,3069.235713161528,3069.5359341576695,3070.5405789613724,right,1,0.36611457914114,0.2,,,,,,,,,,,s043,001,2024-09-27_16h09.25.137,simplestop_skeleton,2022.2.2,59.86915366502262,
$currentCorrectResponse,$currentGoStim,,,,,,,,,0,0,0,0,1,0,4,0,,,,,,,,,3070.5226303860545,go,squareblack.png,right,0.2,,,,,,,,,,,,,,,0.0016964226961135864,0.4875737652182579,,3073.025818578899,test,1,,,,,,,,,,3070.5405789613724,3071.037066191435,3071.037066191435,3071.0537143200636,3071.237215168774,3071.738140396774,3072.0382667407393,3073.0521774217486,right,1,0.35856350511312485,0.2,,,,,,,,,,,s043,001,2024-09-27_16h09.25.137,simplestop_skeleton,2022.2.2,59.86915366502262,
$currentCorrectResponse,$currentGoStim,,,,,,,,,0,0,0,0,1,1,5,0,,,,,,,,,3073.02630943805,go,circleblack.png,left,0.2,,,,,,,,,,,,,,,0.007626824080944061,0.48639121651649475,,3075.5267963707447,test,1,,,,,,,,,,3073.0521774217486,3073.539766199887,3073.539766199887,3073.5565735399723,3073.739949941635,3074.2407549619675,3074.540807336569,3075.543918840587,left,1,0.3925436660647392,0.2,,,,,,,,,,,s043,001,2024-09-27_16h09.25.137,simplestop_skeleton,2022.2.2,59.86915366502262,
$currentCorrectResponse,$currentGoStim,,,,,,,,,0,0,0,0,1,2,6,0,,,,,,,,,3075.5272890627384,go,circleblack.png,left,0.2,,,,,,,,,,,,,,,0.0012501701712608337,0.4892880916595459,,3078.029137916863,test,1,,,,,,,,,,3075.543918840587,3076.04255053401,3076.04255053401,3076.0592613890767,3076.242752082646,3076.743550464511,3077.043566405773,3078.046087823808,left,1,0.49192076176404953,0.2,,,,,,,,,,,s043,001,2024-09-27_16h09.25.137,simplestop_skeleton,2022.2.2,59.86915366502262,
$currentCorrectResponse,$currentGoStim,,,,,,,,,0,0,0,0,1,3,7,0,,,,,,,,,3078.0295855775476,go,squareblack.png,right,0.2,,,,,,,,,,,,,,,0.0015983954071998596,0.4902051091194153,,3080.532007485628,test,1,,,,,,,,,,3078.046087823808,3078.545765027404,3078.545765027404,3078.545765027404,3078.7464149966836,3079.246091797948,3079.546340301633,3080.5493912920356,right,1,0.35730841755867004,0.2,,,,,,,,,,,s043,001,2024-09-27_16h09.25.137,simplestop_skeleton,2022.2.2,59.86915366502262,
None,None,,,,,,,,,0,0,0,0,2,0,8,2,,,,,,,,,3080.532462388277,go,circleblack.png,left,0.2,,,,,,,,,,,,,,,0.0017852783203125,0.4900527372956276,,3083.0347482189536,test,1,,,,,,,,,,3080.5493912920356,3081.048421189189,3081.048421189189,3081.048421189189,3081.248563311994,3081.748798146844,3082.0491283759475,3083.0522627979517,left,1,0.3271604850888252,0.2,,,,,,,,,,,s043,001,2024-09-27_16h09.25.137,simplestop_skeleton,2022.2.2,59.86915366502262,
None,None,,,,,,,,,0,0,0,0,2,1,9,1,,,,,,,,,3083.0352211892605,stop,squareblack.png,right,0.2,,,,,,,,,,,,,,,0.0015910491347312927,0.4906737878918648,0.691479854285717,3085.5387552306056,test,1,,,,,,,,,,3083.0522627979517,3083.551761120558,3083.551761120558,3083.551761120558,3083.7529351115227,3084.268242739141,3084.551922276616,3085.556138522923,right,1,0.36537714302539825,0.15,,,,,,,,,,,s043,001,2024-09-27_16h09.25.137,simplestop_skeleton,2022.2.2,59.86915366502262,
None,None,,,,,,,,,0,0,0,0,2,2,10,2,,,,,,,,,3085.5395007431507,stop,squareblack.png,right,0.15,,,,,,,,,,,,,,,0.0013305619359016418,0.4887000545859337,0.6403994858264923,3088.040492221713,test,1,,,,,,,,,,3085.556138522923,3086.05478104949,3086.05478104949,3086.071073383093,3086.2058652192354,3086.7210167571902,3087.0547219738364,3088.057735912502,right,1,0.480175219476223,0.1,,,,,,,,,,,s043,001,2024-09-27_16h09.25.137,simplestop_skeleton,2022.2.2,59.86915366502262,
$currentCorrectResponse,$currentGoStim,,,,,,,,,0,0,0,0,2,3,11,0,,,,,,,,,3088.0409551411867,stop,circleblack.png,left,0.1,,,,,,,,,,,,,,,0.0018259361386299133,0.4901268556714058,0.5898414701223373,3090.544611558318,test,1,,,,,,,,,,3088.057735912502,3088.5566442981362,3088.5566442981362,3088.5566442981362,3088.656596891582,3089.157078370452,3089.557762131095,3090.5640374422073,None,0,,0.15,,,,,,,,,,,s043,001,2024-09-27_16h09.25.137,simplestop_skeleton,2022.2.2,59.86915366502262,
None,None,,,,,,,,,0,0,0,0,3,0,12,3,,,,,,,,,3090.5451482981443,go,circleblack.png,left,0.15,,,,,,,,,,,,,,,0.001412607729434967,0.48863765597343445,,3093.045763708651,test,1,,,,,,,,,,3090.5640374422073,3091.0600419715047,3091.0600419715047,3091.076685078442,3091.211435496807,3091.7272799760103,3092.0602966174483,3093.06301446259,left,1,0.33485589921474457,0.15,,,,,,,,,,,s043,001,2024-09-27_16h09.25.137,simplestop_skeleton,2022.2.2,59.86915366502262,
None,None,,,,,,,,,0,0,0,0,3,1,13,2,,,,,,,,,3093.046224191785,go,squareblack.png,right,0.15,,,,,,,,,,,,,,,0.0016605556011199951,0.48967059701681137,,3095.548631347716,test,1,,,,,,,,,,3093.06301446259,3093.561823695898,3093.561823695898,3093.578625418246,3093.712170109153,3094.212518617511,3094.56305475533,3095.5664618238807,right,1,0.4257557541131973,0.15,,,,,,,,,,,s043,001,2024-09-27_16h09.25.137,simplestop_skeleton,2022.2.2,59.86915366502262,
None,None,,,,,,,,,0,0,0,0,3,2,14,2,,,,,,,,,3095.549091935158,stop,circleblack.png,left,0.15,,,,,,,,,,,,,,,0.0017718300223350525,0.4906769245862961,0.6415726989507675,3098.0515665337443,test,1,,,,,,,,,,3095.5664618238807,3096.065473049879,3096.065473049879,3096.065473049879,3096.2166844159365,3096.732014082372,3097.0657947435975,3098.068860962987,left,1,0.3522486686706543,0.1,,,,,,,,,,,s043,001,2024-09-27_16h09.25.137,simplestop_skeleton,2022.2.2,59.86915366502262,
$currentCorrectResponse,$currentGoStim,,,,,,,,,0,0,0,0,3,3,15,0,,,,,,,,,3098.052023254335,go,squareblack.png,right,0.1,,,,,,,,,,,,,,,0.0017311349511146545,0.4894976243376732,,3100.554032675922,test,1,,,,,,,,,,3098.068860962987,3098.567503154278,3098.567503154278,3098.5842531993985,3098.6676018461585,3099.1682268306613,3099.5684784427285,3100.5712957680225,right,1,0.34630434960126877,0.1,,,,,,,,,,,s043,001,2024-09-27_16h09.25.137,simplestop_skeleton,2022.2.2,59.86915366502262,
None,None,,,,,,,,,0,0,0,0,4,0,16,3,,,,,,,,,3100.554480664432,go,circleblack.png,left,0.1,,,,,,,,,,,,,,,0.0016964375972747803,0.49016160517930984,,3103.056885972619,test,1,,,,,,,,,,3100.5712957680225,3101.0702377706766,3101.0702377706766,3101.0702377706766,3101.170619726181,3101.6710782945156,3102.072500295937,3103.0739632844925,left,1,0.48386798799037933,0.1,,,,,,,,,,,s043,001,2024-09-27_16h09.25.137,simplestop_skeleton,2022.2.2,59.86915366502262,
None,None,,,,,,,,,0,0,0,0,4,1,17,3,,,,,,,,,3103.057359047234,go,squareblack.png,right,0.1,,,,,,,,,,,,,,,0.0016234442591667175,0.49145355075597763,,3105.5595594346523,test,1,,,,,,,,,,3103.0739632844925,3103.5747500881553,3103.5747500881553,3103.5747500881553,3103.674950018525,3104.190223097801,3104.5747927576303,3105.5763422325253,right,1,0.3691595271229744,0.1,,,,,,,,,,,s043,001,2024-09-27_16h09.25.137,simplestop_skeleton,2022.2.2,59.86915366502262,
$currentCorrectResponse,$currentGoStim,,,,,,,,,0,0,0,0,4,2,18,0,,,,,,,,,3105.5600278675556,stop,squareblack.png,right,0.1,,,,,,,,,,,,,,,0.001158982515335083,0.48993122577667236,0.5899966210126877,3108.063430853188,test,1,,,,,,,,,,3105.5763422325253,3106.0758533477783,3106.0758533477783,3106.0758533477783,3106.17627107352,3106.6763294413686,3107.0768454149365,3108.0810966789722,left,0,0.2961169481277466,0.05,,,,,,,,,,,s043,001,2024-09-27_16h09.25.137,simplestop_skeleton,2022.2.2,59.86915366502262,
None,None,,,,,,,,,0,0,0,0,4,3,19,2,,,,,,,,,3108.0638803318143,go,circleblack.png,left,0.05,,,,,,,,,,,,,,,0.0018688812851905823,0.4901108071208,,3110.567216053605,test,1,,,,,,,,,,3108.0810966789722,3108.5799146294594,3108.5799146294594,3108.5965288951993,3108.629953175783,3109.130554445088,3109.5796172246337,3110.588528484106,left,1,0.38917987048625946,0.05,,,,,,,,,,,s043,001,2024-09-27_16h09.25.137,simplestop_skeleton,2022.2.2,59.86915366502262,
None,None,,,,,,,,,0,0,0,0,5,0,20,1,,,,,,,,,3110.5676859095693,go,squareblack.png,right,0.05,,,,,,,,,,,,,,,0.0023327097296714783,0.48634476959705353,,3113.070055194199,test,1,,,,,,,,,,3110.588528484106,3111.0811665058136,3111.0811665058136,3111.09799747169,3111.1312690004706,3111.631931900978,3112.0822957009077,3113.0911865904927,right,1,0.3237341120839119,0.05,,,,,,,,,,,s043,001,2024-09-27_16h09.25.137,simplestop_skeleton,2022.2.2,59.86915366502262,
$currentCorrectResponse,$currentGoStim,,,,,,,,,0,0,0,0,5,1,21,0,,,,,,,,,3113.0705460831523,stop,squareblack.png,right,0.05,,,,,,,,,,,,,,,0.002182476222515106,0.4860711842775345,0.5361284092068672,3115.573382332921,test,1,,,,,,,,,,3113.0911865904927,3113.5840887203813,3113.5840887203813,3113.6006128638983,3113.6339347437024,3114.1355940401554,3114.585011102259,3115.5980447009206,None,0,,0.1,,,,,,,,,,,s043,001,2024-09-27_16h09.25.137,simplestop_skeleton,2022.2.2,59.86915366502262,
$currentCorrectResponse,$currentGoStim,,,,,,,,,0,0,0,0,5,2,22,0,,,,,,,,,3115.5740236938,stop,circleblack.png,left,0.1,,,,,,,,,,,,,,,0.002399645745754242,0.4830111563205719,0.5832529440522194,3118.073721140623,test,1,,,,,,,,,,3115.5980447009206,3116.0867762491107,3116.0867762491107,3116.103601656854,3116.1869854703546,3116.687572531402,3117.0878506973386,3118.0907649323344,left,1,0.4979949817061424,0.05,,,,,,,,,,,s043,001,2024-09-27_16h09.25.137,simplestop_skeleton,2022.2.2,59.86915366502262,
None,None,,,,,,,,,0,0,0,0,5,3,23,2,,,,,,,,,3118.074174232781,go,circleblack.png,left,0.05,,,,,,,,,,,,,,,0.001227833330631256,0.489240825176239,,3120.5761174708605,test,1,,,,,,,,,,3118.0907649323344,3118.589515596628,3118.589515596628,3118.6062413156033,3118.6399542987347,3119.1402652561665,3119.5906744226813,3120.593006066978,left,1,0.6609295979142189,0.05,,,,,,,,,,,s043,001,2024-09-27_16h09.25.137,simplestop_skeleton,2022.2.2,59.86915366502262,
None,None,,,,,,,,,0,0,0,0,6,0,24,1,,,,,,,,,3120.576569788158,go,circleblack.png,left,0.05,,,,,,,,,,,,,,,0.0012604668736457825,0.490038238465786,,3123.079015940428,test,1,,,,,,,,,,3120.593006066978,3121.092603355646,3121.092603355646,3121.092603355646,3121.1424700692296,3121.643065035343,3122.093367792666,3123.0963213443756,left,1,0.5680833160877228,0.05,,,,,,,,,,,s043,001,2024-09-27_16h09.25.137,simplestop_skeleton,2022.2.2,59.86915366502262,
None,None,,,,,,,,,0,0,0,0,6,1,25,2,,,,,,,,,3123.079476416111,stop,circleblack.png,left,0.05,,,,,,,,,,,,,,,0.0012239068746566772,0.48957305401563644,0.5395259410142899,3125.5817905142903,test,1,,,,,,,,,,3123.0963213443756,3123.594924211502,3123.594924211502,3123.6116956546903,3123.6450638324022,3124.147398762405,3124.5960369706154,3125.5989363491535,None,0,,0.1,,,,,,,,,,,s043,001,2024-09-27_16h09.25.137,simplestop_skeleton,2022.2.2,59.86915366502262,
None,None,,,,,,,,,0,0,0,0,6,2,26,3,,,,,,,,,3125.582239612937,stop,squareblack.png,right,0.1,,,,,,,,,,,,,,,0.0016524791717529297,0.49040399491786957,0.5906115397810936,3128.0845518261194,test,1,,,,,,,,,,3125.5989363491535,3126.099041208625,3126.099041208625,3126.099041208625,3126.199316687882,3126.698459342122,3127.0988371372223,3128.102005392313,None,0,,0.15,,,,,,,,,,,s043,001,2024-09-27_16h09.25.137,simplestop_skeleton,2022.2.2,59.86915366502262,
None,None,,,,,,,,,0,0,0,0,6,3,27,1,,,,,,,,,3128.0850148126483,go,circleblack.png,left,0.15,,,,,,,,,,,,,,,0.0017370730638504028,0.48944438993930817,,3130.5873010903597,test,1,,,,,,,,,,3128.102005392313,3128.602949768305,3128.602949768305,3128.618292145431,3128.7519319579005,3129.2515503689647,3129.618316113949,3130.604614108801,left,1,0.5700861141085625,0.15,,,,,,,,,,,s043,001,2024-09-27_16h09.25.137,simplestop_skeleton,2022.2.2,59.86915366502262,
None,None,,,,,,,,,0,0,0,0,7,0,28,1,,,,,,,,,3130.5877485349774,go,squareblack.png,right,0.15,,,,,,,,,,,,,,,0.0016548782587051392,0.48960018903017044,,3133.0899317488074,test,1,,,,,,,,,,3130.604614108801,3131.1035985946655,3131.1035985946655,3131.1202622279525,3131.2534137666225,3131.7540899664164,3132.1044012606144,3133.106838017702,right,1,0.5055514574050903,0.15,,,,,,,,,,,s043,001,2024-09-27_16h09.25.137,simplestop_skeleton,2022.2.2,59.86915366502262,
None,None,,,,,,,,,0,0,0,0,7,1,29,3,,,,,,,,,3133.0903851911426,go,squareblack.png,right,0.15,,,,,,,,,,,,,,,0.0014577805995941162,0.49062579870224,,3135.5927148908377,test,1,,,,,,,,,,3133.106838017702,3133.606915771961,3133.606915771961,3133.606915771961,3133.757461696863,3134.25697594136,3134.6076070591807,3135.6099416315556,right,1,0.4303276613354683,0.15,,,,,,,,,,,s043,001,2024-09-27_16h09.25.137,simplestop_skeleton,2022.2.2,59.86915366502262,
None,None,,,,,,,,,0,0,0,0,7,2,30,3,,,,,,,,,3135.5931696221232,go,circleblack.png,left,0.15,,,,,,,,,,,,,,,0.0018075928092002869,0.49078238010406494,,3138.0954605564475,test,1,,,,,,,,,,3135.6099416315556,3136.109452471137,3136.109452471137,3136.109452471137,3136.261321976781,3136.7762261107564,3137.1098685264587,3138.1127692312,left,1,0.4028499498963356,0.15,,,,,,,,,,,s043,001,2024-09-27_16h09.25.137,simplestop_skeleton,2022.2.2,59.86915366502262,
$currentCorrectResponse,$currentGoStim,,,,,,,,,0,0,0,0,7,3,31,0,,,,,,,,,3138.095940977335,go,squareblack.png,right,0.15,,,,,,,,,,,,,,,0.0015849694609642029,0.48970552533864975,,3140.5982234850526,test,1,,,,,,,,,,3138.1127692312,3138.6115117892623,3138.6115117892623,3138.6282859295607,3138.7628416642547,3139.2622162923217,3139.612629264593,3140.615453146398,right,1,0.35899533331394196,0.15,,,,,,,,,,,s043,001,2024-09-27_16h09.25.137,simplestop_skeleton,2022.2.2,59.86915366502262,
None,None,,,,,,,,,0,0,0,0,8,0,32,3,,,,,,,,,3140.5986866652966,stop,circleblack.png,left,0.15,,,,,,,,,,,,,,,0.0017471909523010254,0.48979635536670685,0.6407873705029488,3143.101177714765,test,1,,,,,,,,,,3140.615453146398,3141.1147285327315,3141.1147285327315,3141.1313143372536,3141.2656361982226,3141.765289284289,3142.1153829470277,3143.1194670647383,None,0,,0.2,,,,,,,,,,,s043,001,2024-09-27_16h09.25.137,simplestop_skeleton,2022.2.2,59.86915366502262,
None,None,,,,,,,,,0,0,0,0,8,1,33,1,,,,,,,,,3143.101651594043,go,squareblack.png,right,0.2,,,,,,,,,,,,,,,0.0016874298453330994,0.48891060799360275,,3145.60541177541,test,1,,,,,,,,,,3143.1194670647383,3143.6172404438257,3143.6172404438257,3143.6337230578065,3143.8181496337056,3144.3180717527866,3144.618114888668,3145.6227236017585,right,1,0.5080066621303558,0.2,,,,,,,,,,,s043,001,2024-09-27_16h09.25.137,simplestop_skeleton,2022.2.2,59.86915366502262,
None,None,,,,,,,,,0,0,0,0,8,2,34,2,,,,,,,,,3145.6058521941304,go,circleblack.png,left,0.2,,,,,,,,,,,,,,,0.00186234712600708,0.4884457513689995,,3148.1065025776625,test,1,,,,,,,,,,3145.6227236017585,3146.1199347153306,3146.1199347153306,3146.1366106644273,3146.3201514333487,3146.820582665503,3147.1212686151266,3148.1242537647486,left,1,0.5010668411850929,0.2,,,,,,,,,,,s043,001,2024-09-27_16h09.25.137,simplestop_skeleton,2022.2.2,59.86915366502262,
None,None,,,,,,,,,0,0,0,0,8,3,35,3,,,,,,,,,3148.106967717409,stop,squareblack.png,right,0.2,,,,,,,,,,,,,,,0.0018299520015716553,0.4895692244172096,0.6913604140281677,3150.609521202743,test,1,,,,,,,,,,3148.1242537647486,3148.62260299176,3148.62260299176,3148.6397540047765,3148.8237919285893,3149.323321096599,3149.6236585229635,3150.62680400908,right,1,0.5926435366272926,0.15,,,,,,,,,,,s043,001,2024-09-27_16h09.25.137,simplestop_skeleton,2022.2.2,59.86915366502262,
None,None,,,,,,,,,0,0,0,0,9,0,36,2,,,,,,,,,3150.6099912673235,go,squareblack.png,right,0.15,,,,,,,,,,,,,,,0.0011606663465499878,0.48932822048664093,,3153.112202450633,test,1,,,,,,,,,,3150.62680400908,3151.125409707427,3151.125409707427,3151.1420564204454,3151.276593387127,3151.776113115251,3152.1264609247446,3153.129740305245,right,1,0.49011967331171036,0.15,,,,,,,,,,,s043,001,2024-09-27_16h09.25.137,simplestop_skeleton,2022.2.2,59.86915366502262,
$currentCorrectResponse,$currentGoStim,,,,,,,,,0,0,0,0,9,1,37,0,,,,,,,,,3153.1126490980387,go,circleblack.png,left,0.15,,,,,,,,,,,,,,,0.0018405243754386902,0.4896066263318062,,3155.6163432896137,test,1,,,,,,,,,,3153.129740305245,3153.6280896142125,3153.6280896142125,3153.644810952246,3153.778292223811,3154.279132850468,3154.6292056664824,3155.6335070729256,left,1,0.5876859351992607,0.15,,,,,,,,,,,s043,001,2024-09-27_16h09.25.137,simplestop_skeleton,2022.2.2,59.86915366502262,
None,None,,,,,,,,,0,0,0,0,9,2,38,2,,,,,,,,,3155.6167967021465,stop,circleblack.png,left,0.15,,,,,,,,,,,,,,,0.0013169199228286743,0.4882684499025345,0.6388030648231506,3158.119084633887,test,1,,,,,,,,,,3155.6335070729256,3156.1309751942754,3156.1309751942754,3156.147539973259,3156.281208343804,3156.78196195513,3157.132016636431,3158.1384046003222,None,0,,0.2,,,,,,,,,,,s043,001,2024-09-27_16h09.25.137,simplestop_skeleton,2022.2.2,59.86915366502262,
None,None,,,,,,,,,0,0,0,0,9,3,39,3,,,,,,,,,3158.1195423305035,go,circleblack.png,left,0.2,,,,,,,,,,,,,,,0.0014195293188095093,0.4878699481487274,,3160.6203964427114,test,1,,,,,,,,,,3158.1384046003222,3158.633653052151,3158.633653052151,3158.650342218578,3158.8339063972235,3159.3344605714083,3159.634792752564,3160.637136951089,left,1,0.35685617476701736,0.2,,,,,,,,,,,s043,001,2024-09-27_16h09.25.137,simplestop_skeleton,2022.2.2,59.86915366502262,
$currentCorrectResponse,$currentGoStim,,,,,,,,,0,0,0,0,10,0,40,0,,,,,,,,,3160.6208365038037,stop,circleblack.png,left,0.2,,,,,,,,,,,,,,,0.0012375861406326294,0.4896121546626091,0.6897748187184334,3163.1232405155897,test,1,,,,,,,,,,3160.637136951089,3161.1364759132266,3161.1364759132266,3161.1364759132266,3161.336800940335,3161.837130114436,3162.137536637485,3163.1451955735683,None,0,,0.25,,,,,,,,,,,s043,001,2024-09-27_16h09.25.137,simplestop_skeleton,2022.2.2,59.86915366502262,
None,None,,,,,,,,,0,0,0,0,10,1,41,1,,,,,,,,,3163.12369196862,stop,squareblack.png,right,0.25,,,,,,,,,,,,,,,0.007288835942745209,0.4897289276123047,0.741058923304081,3165.6262156516314,test,1,,,,,,,,,,3163.1451955735683,3163.6391772329807,3163.6391772329807,3163.655849687755,3163.89054132998,3164.389926970005,3164.640345618129,3165.642995364964,right,1,0.4204975739121437,0.2,,,,,,,,,,,s043,001,2024-09-27_16h09.25.137,simplestop_skeleton,2022.2.2,59.86915366502262,
None,None,,,,,,,,,0,0,0,0,10,2,42,1,,,,,,,,,3165.626659721136,go,squareblack.png,right,0.2,,,,,,,,,,,,,,,0.0011855736374855042,0.4895476698875427,,3168.1307749971747,test,1,,,,,,,,,,3165.642995364964,3166.142492964864,3166.142492964864,3166.142492964864,3166.3435364738107,3166.843035109341,3167.1430752947927,3168.152399353683,right,1,0.43261144310235977,0.2,,,,,,,,,,,s043,001,2024-09-27_16h09.25.137,simplestop_skeleton,2022.2.2,59.86915366502262,
None,None,,,,,,,,,0,0,0,0,10,3,43,1,,,,,,,,,3168.131305463612,go,circleblack.png,left,0.2,,,,,,,,,,,,,,,0.002776198089122772,0.4861276298761368,,3170.6334551647305,test,1,,,,,,,,,,3168.152399353683,3168.6447180509567,3168.6447180509567,3168.6613938063383,3168.8448841646314,3169.345594331622,3169.645749039948,3170.6579053774476,left,1,0.56160619109869,0.2,,,,,,,,,,,s043,001,2024-09-27_16h09.25.137,simplestop_skeleton,2022.2.2,59.86915366502262,
None,None,,,,,,,,,0,0,0,0,11,0,44,1,,,,,,,,,3170.6339359357953,go,squareblack.png,right,0.2,,,,,,,,,,,,,,,0.0022172480821609497,0.48342593014240265,,3173.1370393186808,test,1,,,,,,,,,,3170.6579053774476,3171.147543914616,3171.147543914616,3171.1641371771693,3171.3476670607924,3171.8483805805445,3172.148621827364,3173.1593926027417,right,1,0.4129324182868004,0.2,,,,,,,,,,,s043,001,2024-09-27_16h09.25.137,simplestop_skeleton,2022.2.2,59.86915366502262,
None,None,,,,,,,,,0,0,0,0,11,1,45,3,,,,,,,,,3173.137762196362,go,squareblack.png,right,0.2,,,,,,,,,,,,,,,0.0013877972960472107,0.4840100184082985,,3175.6370218619704,test,1,,,,,,,,,,3173.1593926027417,3173.650208570063,3173.650208570063,3173.667020648718,3173.8504048511386,3174.351620979607,3174.6531794816256,3175.6545083373785,right,1,0.4176335483789444,0.2,,,,,,,,,,,s043,001,2024-09-27_16h09.25.137,simplestop_skeleton,2022.2.2,59.86915366502262,
None,None,,,,,,,,,0,0,0,0,11,2,46,1,,,,,,,,,3175.637459754944,go,circleblack.png,left,0.2,,,,,,,,,,,,,,,0.0018079131841659546,0.48986852169036865,,3178.140646919608,test,1,,,,,,,,,,3175.6545083373785,3176.153051868081,3176.153051868081,3176.1696726977825,3176.353225812316,3176.853851377964,3177.1543804109097,3178.1607608795166,left,1,0.48554231226444244,0.2,,,,,,,,,,,s043,001,2024-09-27_16h09.25.137,simplestop_skeleton,2022.2.2,59.86915366502262,
None,None,,,,,,,,,0,0,0,0,11,3,47,3,,,,,,,,,3178.141332194209,stop,squareblack.png,right,0.2,,,,,,,,,,,,,,,0.0024201050400733948,0.48658493161201477,0.6869699135422707,3180.6436501443386,test,1,,,,,,,,,,3178.1607608795166,3178.6557402685285,3178.6557402685285,3178.6724272295833,3178.856614500284,3179.357050321996,3179.6575056016445,3180.683025754988,None,0,,0.25,,,,,,,,,,,s043,001,2024-09-27_16h09.25.137,simplestop_skeleton,2022.2.2,59.86915366502262,
,,,,,,,,,,0,0,0,0,,,,,,"[{'fileName': 'squareblack.png', 'correct_response': 'right', 'condition': 'go'}, {'fileName': 'squareblack.png', 'correct_response': 'right', 'condition': 'go'}, {'fileName': 'circleblack.png', 'correct_response': 'left', 'condition': 'stop'}, {'fileName': 'squareblack.png', 'correct_response': 'right', 'condition': 'stop'}, {'fileName': 'circleblack.png', 'correct_response': 'left', 'condition': 'stop'}, {'fileName': 'squareblack.png', 'correct_response': 'right', 'condition': 'go'}, {'fileName': 'squareblack.png', 'correct_response': 'right', 'condition': 'stop'}, {'fileName': 'circleblack.png', 'correct_response': 'left', 'condition': 'go'}, {'fileName': 'circleblack.png', 'correct_response': 'left', 'condition': 'go'}, {'fileName': 'circleblack.png', 'correct_response': 'left', 'condition': 'go'}, {'fileName': 'squareblack.png', 'correct_response': 'right', 'condition': 'go'}, {'fileName': 'circleblack.png', 'correct_response': 'left', 'condition': 'go'}, {'fileName': 'squareblack.png', 'correct_response': 'right', 'condition': 'go'}, {'fileName': 'squareblack.png', 'correct_response': 'right', 'condition': 'go'}, {'fileName': 'circleblack.png', 'correct_response': 'left', 'condition': 'go'}, {'fileName': 'squareblack.png', 'correct_response': 'right', 'condition': 'stop'}, {'fileName': 'circleblack.png', 'correct_response': 'left', 'condition': 'stop'}, {'fileName': 'circleblack.png', 'correct_response': 'left', 'condition': 'stop'}, {'fileName': 'squareblack.png', 'correct_response': 'right', 'condition': 'go'}, {'fileName': 'circleblack.png', 'correct_response': 'left', 'condition': 'go'}, {'fileName': 'squareblack.png', 'correct_response': 'right', 'condition': 'stop'}, {'fileName': 'circleblack.png', 'correct_response': 'left', 'condition': 'go'}, {'fileName': 'circleblack.png', 'correct_response': 'left', 'condition': 'go'}, {'fileName': 'squareblack.png', 'correct_response': 'right', 'condition': 'go'}, {'fileName': 'squareblack.png', 'correct_response': 'right', 'condition': 'go'}, {'fileName': 'squareblack.png', 'correct_response': 'right', 'condition': 'go'}, {'fileName': 'squareblack.png', 'correct_response': 'right', 'condition': 'stop'}, {'fileName': 'circleblack.png', 'correct_response': 'left', 'condition': 'go'}, {'fileName': 'squareblack.png', 'correct_response': 'right', 'condition': 'stop'}, {'fileName': 'squareblack.png', 'correct_response': 'right', 'condition': 'go'}, {'fileName': 'circleblack.png', 'correct_response': 'left', 'condition': 'go'}, {'fileName': 'circleblack.png', 'correct_response': 'left', 'condition': 'go'}, {'fileName': 'circleblack.png', 'correct_response': 'left', 'condition': 'go'}, {'fileName': 'circleblack.png', 'correct_response': 'left', 'condition': 'stop'}, {'fileName': 'squareblack.png', 'correct_response': 'right', 'condition': 'go'}, {'fileName': 'circleblack.png', 'correct_response': 'left', 'condition': 'stop'}, {'fileName': 'circleblack.png', 'correct_response': 'left', 'condition': 'go'}, {'fileName': 'circleblack.png', 'correct_response': 'left', 'condition': 'go'}, {'fileName': 'squareblack.png', 'correct_response': 'right', 'condition': 'go'}, {'fileName': 'squareblack.png', 'correct_response': 'right', 'condition': 'stop'}, {'fileName': 'squareblack.png', 'correct_response': 'right', 'condition': 'go'}, {'fileName': 'squareblack.png', 'correct_response': 'right', 'condition': 'go'}, {'fileName': 'circleblack.png', 'correct_response': 'left', 'condition': 'go'}, {'fileName': 'circleblack.png', 'correct_response': 'left', 'condition': 'stop'}, {'fileName': 'squareblack.png', 'correct_response': 'right', 'condition': 'stop'}, {'fileName': 'circleblack.png', 'correct_response': 'left', 'condition': 'go'}, {'fileName': 'squareblack.png', 'correct_response': 'right', 'condition': 'go'}, {'fileName': 'circleblack.png', 'correct_response': 'left', 'condition': 'stop'}]",,,,,,,,,,,,,,,,,,,,,,,,,,,,,,,,,,,,,,,,,,,,,,,,,,,,,3180.683025754988,3180.683025754988,return,28.43295928835869,,,,,,,s043,001,2024-09-27_16h09.25.137,simplestop_skeleton,2022.2.2,59.86915366502262,
None,None,,,,,,,,,1,0,1,0,0,0,0,2,,,,,,,,,3209.151078738272,go,squareblack.png,right,0.25,,,,,,,,,,,,,,,0.0017840787768363953,0.49544383585453033,,3211.661931924522,test,2,,,,,,,,,,3209.173922598362,3209.6748472601175,3209.6748472601175,3209.6748472601175,3209.92502912879,3210.4255868569016,3210.6758020743728,3211.6810516938567,right,1,0.5628593787550926,0.25,,,,,,,,,,,s043,001,2024-09-27_16h09.25.137,simplestop_skeleton,2022.2.2,59.86915366502262,
None,None,,,,,,,,,1,0,1,0,0,1,1,1,,,,,,,,,3211.662481352687,go,squareblack.png,right,0.25,,,,,,,,,,,,,,,0.001407906413078308,0.48910122364759445,,3214.162766598165,test,2,,,,,,,,,,3211.6810516938567,3212.1775878593326,3212.1775878593326,3212.194118477404,3212.427745334804,3212.92718911916,3213.177601970732,3214.181314587593,right,1,0.47224992513656616,0.25,,,,,,,,,,,s043,001,2024-09-27_16h09.25.137,simplestop_skeleton,2022.2.2,59.86915366502262,
None,None,,,,,,,,,1,0,1,0,0,2,2,1,,,,,,,,,3214.163206078112,stop,circleblack.png,left,0.25,,,,,,,,,,,,,,,0.002483561635017395,0.48923947662115097,0.7394484505057335,3216.6667671352625,test,2,,,,,,,,,,3214.181314587593,3214.6788679137826,3214.6788679137826,3214.695497393608,3214.9291991889477,3215.430103085935,3215.680137641728,3216.685358323157,left,1,0.4757028818130493,0.2,,,,,,,,,,,s043,001,2024-09-27_16h09.25.137,simplestop_skeleton,2022.2.2,59.86915366502262,
None,None,,,,,,,,,1,0,1,0,0,3,3,3,,,,,,,,,3216.6672152653337,stop,squareblack.png,right,0.2,,,,,,,,,,,,,,,0.001886315643787384,0.487998865544796,0.6882137060165405,3219.1686188802123,test,2,,,,,,,,,,3216.685358323157,3217.181597813964,3217.181597813964,3217.1982089430094,3217.3818551823497,3217.8823339119554,3218.1845700219274,3219.1857849806547,None,0,,0.25,,,,,,,,,,,s043,001,2024-09-27_16h09.25.137,simplestop_skeleton,2022.2.2,59.86915366502262,
None,None,,,,,,,,,1,0,1,0,1,0,4,3,,,,,,,,,3219.169270850718,stop,circleblack.png,left,0.25,,,,,,,,,,,,,,,0.0017901435494422913,0.4890790954232216,0.7394176945090294,3221.6723737865686,test,2,,,,,,,,,,3219.1857849806547,3219.684417001903,3219.684417001903,3219.7010093927383,3219.9347110018134,3220.4351390078664,3220.6856099143624,3221.6936596110463,None,0,,0.3,,,,,,,,,,,s043,001,2024-09-27_16h09.25.137,simplestop_skeleton,2022.2.2,59.86915366502262,
None,None,,,,,,,,,1,0,1,0,1,1,5,2,,,,,,,,,3221.6731114834547,go,squareblack.png,right,0.3,,,,,,,,,,,,,,,0.00208224356174469,0.48594363033771515,,3224.1738341376185,test,2,,,,,,,,,,3221.6936596110463,3222.1886167898774,3222.1886167898774,3222.203756824136,3222.487596333027,3222.9879518151283,3223.188308931887,3224.1906903013587,right,1,0.35960957407951355,0.3,,,,,,,,,,,s043,001,2024-09-27_16h09.25.137,simplestop_skeleton,2022.2.2,59.86915366502262,
None,None,,,,,,,,,1,0,1,0,1,2,6,3,,,,,,,,,3224.1742791235447,stop,squareblack.png,right,0.3,,,,,,,,,,,,,,,0.0011659562587738037,0.4896066337823868,0.7898630946874619,3226.677616611123,test,2,,,,,,,,,,3224.1906903013587,3224.68989777565,3224.68989777565,3224.68989777565,3224.9902101159096,3225.4912810325623,3225.691041201353,3226.697990603745,right,1,0.5363069921731949,0.25,,,,,,,,,,,s043,001,2024-09-27_16h09.25.137,simplestop_skeleton,2022.2.2,59.86915366502262,
None,None,,,,,,,,,1,0,1,0,1,3,7,3,,,,,,,,,3226.678073875606,go,circleblack.png,left,0.25,,,,,,,,,,,,,,,0.002522967755794525,0.48847080022096634,,3229.180000565946,test,2,,,,,,,,,,3226.697990603745,3227.19407042861,3227.19407042861,3227.2107037231326,3227.4428777471185,3227.943445689976,3228.1937821507454,3229.1974304914474,left,1,0.3540797233581543,0.25,,,,,,,,,,,s043,001,2024-09-27_16h09.25.137,simplestop_skeleton,2022.2.2,59.86915366502262,
None,None,,,,,,,,,1,0,1,0,2,0,8,1,,,,,,,,,3229.1804754585028,go,circleblack.png,left,0.25,,,,,,,,,,,,,,,0.0013967230916023254,0.48903870582580566,,3231.682146295905,test,2,,,,,,,,,,3229.1974304914474,3229.6956341415644,3229.6956341415644,3229.7119655013084,3229.9457221627235,3230.4461777359247,3230.6975424662232,3231.6989519819617,left,1,0.5618161037564278,0.25,,,,,,,,,,,s043,001,2024-09-27_16h09.25.137,simplestop_skeleton,2022.2.2,59.86915366502262,
None,None,,,,,,,,,1,0,1,0,2,1,9,2,,,,,,,,,3231.682658880949,go,circleblack.png,left,0.25,,,,,,,,,,,,,,,0.001250527799129486,0.49145808070898056,,3234.1848992183805,test,2,,,,,,,,,,3231.6989519819617,3232.20000782609,3232.20000782609,3232.20000782609,3232.4484327435493,3232.948997795582,3233.200029961765,3234.2069357186556,left,1,0.48487284034490585,0.25,,,,,,,,,,,s043,001,2024-09-27_16h09.25.137,simplestop_skeleton,2022.2.2,59.86915366502262,
None,None,,,,,,,,,1,0,1,0,2,2,10,3,,,,,,,,,3234.1853732690215,go,squareblack.png,right,0.25,,,,,,,,,,,,,,,0.007284536957740784,0.49064208567142487,,3236.687648460269,test,2,,,,,,,,,,3234.2069357186556,3234.702044405043,3234.702044405043,3234.7185011953115,3234.953002117574,3235.468379817903,3235.701997384429,3236.70491220057,right,1,0.3369678556919098,0.25,,,,,,,,,,,s043,001,2024-09-27_16h09.25.137,simplestop_skeleton,2022.2.2,59.86915366502262,
None,None,,,,,,,,,1,0,1,0,2,3,11,1,,,,,,,,,3236.6881079375744,go,circleblack.png,left,0.25,,,,,,,,,,,,,,,0.0017341598868370056,0.4910418316721916,,3239.190418474376,test,2,,,,,,,,,,3236.70491220057,3237.2050330266356,3237.2050330266356,3237.2050330266356,3237.4557852074504,3237.9710531383753,3238.2046654224396,3239.2077335864305,left,1,0.323666088283062,0.25,,,,,,,,,,,s043,001,2024-09-27_16h09.25.137,simplestop_skeleton,2022.2.2,59.86915366502262,
None,None,,,,,,,,,1,0,1,0,3,0,12,2,,,,,,,,,3239.1908790543675,go,squareblack.png,right,0.25,,,,,,,,,,,,,,,0.0016144588589668274,0.4894658774137497,,3241.695178486407,test,2,,,,,,,,,,3239.2077335864305,3239.7065486833453,3239.7065486833453,3239.7236242443323,3239.9580549821258,3240.4574036598206,3240.707465916872,3241.7123242095113,right,1,0.3728572353720665,0.25,,,,,,,,,,,s043,001,2024-09-27_16h09.25.137,simplestop_skeleton,2022.2.2,59.86915366502262,
$currentCorrectResponse,$currentGoStim,,,,,,,,,1,0,1,0,3,1,13,0,,,,,,,,,3241.6956335678697,go,squareblack.png,right,0.25,,,,,,,,,,,,,,,0.001439601182937622,0.4874560907483101,,3244.1979301795363,test,2,,,,,,,,,,3241.7123242095113,3242.2091813236475,3242.2091813236475,3242.225818872452,3242.4594510644674,3242.96184579283,3243.210220962763,3244.2192800045013,right,1,0.5481683164834976,0.25,,,,,,,,,,,s043,001,2024-09-27_16h09.25.137,simplestop_skeleton,2022.2.2,59.86915366502262,
None,None,,,,,,,,,1,0,1,0,3,2,14,1,,,,,,,,,3244.1984358876944,go,circleblack.png,left,0.25,,,,,,,,,,,,,,,0.002540498971939087,0.48625461012125015,,3246.70089147985,test,2,,,,,,,,,,3244.2192800045013,3244.7120366171002,3244.7120366171002,3244.728655681014,3244.96224629879,3245.462868101895,3245.713122971356,3246.7219168245792,left,1,0.405292384326458,0.25,,,,,,,,,,,s043,001,2024-09-27_16h09.25.137,simplestop_skeleton,2022.2.2,59.86915366502262,
None,None,,,,,,,,,1,0,1,0,3,3,15,3,,,,,,,,,3246.7013567462564,stop,squareblack.png,right,0.25,,,,,,,,,,,,,,,0.002408050000667572,0.4862808808684349,0.7365694716572762,3249.2036456763744,test,2,,,,,,,,,,3246.7219168245792,3247.2147441729903,3247.2147441729903,3247.2313847839832,3247.464899584651,3247.965704061091,3248.2157895714045,3249.225921817124,right,1,0.3607758954167366,0.2,,,,,,,,,,,s043,001,2024-09-27_16h09.25.137,simplestop_skeleton,2022.2.2,59.86915366502262,
None,None,,,,,,,,,1,0,1,0,4,0,16,2,,,,,,,,,3249.2041107714176,stop,circleblack.png,left,0.2,,,,,,,,,,,,,,,0.002655930817127228,0.4856441169977188,0.6858481913805008,3251.706362210214,test,2,,,,,,,,,,3249.225921817124,3249.717387057841,3249.717387057841,3249.734172947705,3249.917722992599,3250.4183665961027,3250.7185216248035,3251.7275494262576,None,0,,0.25,,,,,,,,,,,s043,001,2024-09-27_16h09.25.137,simplestop_skeleton,2022.2.2,59.86915366502262,
None,None,,,,,,,,,1,0,1,0,4,1,17,1,,,,,,,,,3251.7069327533245,stop,circleblack.png,left,0.25,,,,,,,,,,,,,,,0.0018829628825187683,0.48552946001291275,0.7357508316636086,3254.208393871784,test,2,,,,,,,,,,3251.7275494262576,3252.220210067928,3252.220210067928,3252.236855134368,3252.4705699533224,3252.971172347665,3253.22143407166,3254.23001357913,left,1,0.41097255796194077,0.2,,,,,,,,,,,s043,001,2024-09-27_16h09.25.137,simplestop_skeleton,2022.2.2,59.86915366502262,
None,None,,,,,,,,,1,0,1,0,4,2,18,2,,,,,,,,,3254.2088449522853,go,squareblack.png,right,0.2,,,,,,,,,,,,,,,0.0024133846163749695,0.4861300140619278,,3256.710029862821,test,2,,,,,,,,,,3254.23001357913,3254.7230249121785,3254.7230249121785,3254.7397031635046,3254.9232329279184,3255.4239692538977,3255.7242102473974,3256.7281010746956,right,1,0.4877283647656441,0.2,,,,,,,,,,,s043,001,2024-09-27_16h09.25.137,simplestop_skeleton,2022.2.2,59.86915366502262,
None,None,,,,,,,,,1,0,1,0,4,3,19,2,,,,,,,,,3256.71049810946,go,circleblack.png,left,0.2,,,,,,,,,,,,,,,0.0017917603254318237,0.48894721269607544,,3259.213689416647,test,2,,,,,,,,,,3256.7281010746956,3257.2258090153337,3257.2258090153337,3257.242401458323,3257.4260742142797,3257.9266183003783,3258.2270428538322,3259.232489384711,left,1,0.6123726889491081,0.2,,,,,,,,,,,s043,001,2024-09-27_16h09.25.137,simplestop_skeleton,2022.2.2,59.86915366502262,
None,None,,,,,,,,,1,0,1,0,5,0,20,3,,,,,,,,,3259.2142632976174,stop,squareblack.png,right,0.2,,,,,,,,,,,,,,,0.0024124905467033386,0.4873897582292557,0.6875720322132111,3261.718986570835,test,2,,,,,,,,,,3259.232489384711,3259.728499546647,3259.728499546647,3259.745127722621,3259.9288733825088,3260.4293043985963,3260.7315224185586,3261.7362201958895,None,0,,0.25,,,,,,,,,,,s043,001,2024-09-27_16h09.25.137,simplestop_skeleton,2022.2.2,59.86915366502262,
$currentCorrectResponse,$currentGoStim,,,,,,,,,1,0,1,0,5,1,21,0,,,,,,,,,3261.719461493194,go,circleblack.png,left,0.25,,,,,,,,,,,,,,,0.00181686133146286,0.48542262613773346,,3264.217975333333,test,2,,,,,,,,,,3261.7362201958895,3262.2314563691616,3262.2314563691616,3262.247895166278,3262.481472030282,3262.9820399731398,3263.233367472887,3264.2359240725636,left,1,0.6378219276666641,0.25,,,,,,,,,,,s043,001,2024-09-27_16h09.25.137,simplestop_skeleton,2022.2.2,59.86915366502262,
None,None,,,,,,,,,1,0,1,0,5,2,22,2,,,,,,,,,3264.2184591442347,go,circleblack.png,left,0.25,,,,,,,,,,,,,,,0.0012915655970573425,0.49122995138168335,,3266.7213289141655,test,2,,,,,,,,,,3264.2359240725636,3264.7357956394553,3264.7357956394553,3264.7357956394553,3264.98428132385,3265.48492744565,3265.7361395955086,3266.7403397783637,left,1,0.6315408125519753,0.25,,,,,,,,,,,s043,001,2024-09-27_16h09.25.137,simplestop_skeleton,2022.2.2,59.86915366502262,
$currentCorrectResponse,$currentGoStim,,,,,,,,,1,0,1,0,5,3,23,0,,,,,,,,,3266.7218911647797,go,squareblack.png,right,0.25,,,,,,,,,,,,,,,0.0019372552633285522,0.48826538771390915,,3269.2235907763243,test,2,,,,,,,,,,3266.7403397783637,3267.2369313016534,3267.2369313016534,3267.253573358059,3267.48725862056,3267.9876797497272,3268.2378311380744,3269.240300960839,right,1,0.6649791970849037,0.25,,,,,,,,,,,s043,001,2024-09-27_16h09.25.137,simplestop_skeleton,2022.2.2,59.86915366502262,
$currentCorrectResponse,$currentGoStim,,,,,,,,,1,0,1,0,6,0,24,0,,,,,,,,,3269.2240446656942,go,squareblack.png,right,0.25,,,,,,,,,,,,,,,0.0011853277683258057,0.4902263581752777,,3271.726274318993,test,2,,,,,,,,,,3269.240300960839,3269.740883871913,3269.740883871913,3269.740883871913,3269.9916713908315,3270.5070948153734,3270.740685991943,3271.7431904897094,right,1,0.6420589834451675,0.25,,,,,,,,,,,s043,001,2024-09-27_16h09.25.137,simplestop_skeleton,2022.2.2,59.86915366502262,
None,None,,,,,,,,,1,0,1,0,6,1,25,1,,,,,,,,,3271.7267362624407,go,squareblack.png,right,0.25,,,,,,,,,,,,,,,0.0012452825903892517,0.4893427863717079,,3274.2291415929794,test,2,,,,,,,,,,3271.7431904897094,3272.2423076704144,3272.2423076704144,3272.2423076704144,3272.493518382311,3272.9931712523103,3273.243399269879,3274.2458714693785,right,1,0.660874679684639,0.25,,,,,,,,,,,s043,001,2024-09-27_16h09.25.137,simplestop_skeleton,2022.2.2,59.86915366502262,
None,None,,,,,,,,,1,0,1,0,6,2,26,3,,,,,,,,,3274.22960229218,stop,squareblack.png,right,0.25,,,,,,,,,,,,,,,0.0011865347623825073,0.4894622787833214,0.7419120445847511,3276.7339069098234,test,2,,,,,,,,,,3274.2458714693785,3274.745055913925,3274.745055913925,3274.745055913925,3274.9963604435325,3275.496037065983,3275.7461961731315,3276.7616769373417,None,0,,0.3,,,,,,,,,,,s043,001,2024-09-27_16h09.25.137,simplestop_skeleton,2022.2.2,59.86915366502262,
$currentCorrectResponse,$currentGoStim,,,,,,,,,1,0,1,0,6,3,27,0,,,,,,,,,3276.734404861927,go,circleblack.png,left,0.3,,,,,,,,,,,,,,,0.009004689753055573,0.48617322742938995,,3279.23659491539,test,2,,,,,,,,,,3276.7616769373417,3277.2477657422423,3277.2477657422423,3277.264409817755,3277.548155359924,3278.0488826930523,3278.248843804002,3279.2581877037883,left,1,0.4286717548966408,0.3,,,,,,,,,,,s043,001,2024-09-27_16h09.25.137,simplestop_skeleton,2022.2.2,59.86915366502262,
None,None,,,,,,,,,1,0,1,0,7,0,28,1,,,,,,,,,3279.2370790168643,stop,squareblack.png,right,0.3,,,,,,,,,,,,,,,0.002585090696811676,0.4861341044306755,0.7864919528365135,3281.738580688834,test,2,,,,,,,,,,3279.2581877037883,3279.7505909875035,3279.7505909875035,3279.767252959311,3280.050913244486,3280.5516915991902,3280.7519805282354,3281.757108040154,None,0,,0.35,,,,,,,,,,,s043,001,2024-09-27_16h09.25.137,simplestop_skeleton,2022.2.2,59.86915366502262,
None,None,,,,,,,,,1,0,1,0,7,1,29,1,,,,,,,,,3281.739108964801,go,squareblack.png,right,0.35,,,,,,,,,,,,,,,0.0014692172408103943,0.48756881803274155,,3284.2411047145724,test,2,,,,,,,,,,3281.757108040154,3282.2533108517528,3282.2533108517528,3282.270110592246,3282.6037750691175,3283.104463674128,3283.2546921521425,3284.2615442723036,right,1,0.6221598461270332,0.35,,,,,,,,,,,s043,001,2024-09-27_16h09.25.137,simplestop_skeleton,2022.2.2,59.86915366502262,
$currentCorrectResponse,$currentGoStim,,,,,,,,,1,0,1,0,7,2,30,0,,,,,,,,,3284.2415715008974,go,circleblack.png,left,0.35,,,,,,,,,,,,,,,0.004260413348674774,0.4882977530360222,,3286.745419509709,test,2,,,,,,,,,,3284.2615442723036,3284.7561167106032,3284.7561167106032,3284.772736430168,3285.1064844056964,3285.6071571856737,3285.7573091983795,3286.763062030077,left,1,0.5260825380682945,0.35,,,,,,,,,,,s043,001,2024-09-27_16h09.25.137,simplestop_skeleton,2022.2.2,59.86915366502262,
None,None,,,,,,,,,1,0,1,0,7,3,31,2,,,,,,,,,3286.7458770126104,go,circleblack.png,left,0.35,,,,,,,,,,,,,,,0.0018230229616165161,0.48684459924697876,,3289.245530895889,test,2,,,,,,,,,,3286.763062030077,3287.2590111270547,3287.2590111270547,3287.275678925216,3287.609227783978,3288.1097655296326,3288.2600497975945,3289.2626888155937,left,1,0.551401674747467,0.35,,,,,,,,,,,s043,001,2024-09-27_16h09.25.137,simplestop_skeleton,2022.2.2,59.86915366502262,
None,None,,,,,,,,,1,0,1,0,8,0,32,3,,,,,,,,,3289.246087744832,go,circleblack.png,left,0.35,,,,,,,,,,,,,,,0.0012302398681640625,0.49127984791994095,,3291.7483726739883,test,2,,,,,,,,,,3289.2626888155937,3289.7636030465364,3289.7636030465364,3289.7636030465364,3290.11204174906,3290.612469829619,3290.7637337073684,3291.765226006508,left,1,0.725736953318119,0.35,,,,,,,,,,,s043,001,2024-09-27_16h09.25.137,simplestop_skeleton,2022.2.2,59.86915366502262,
None,None,,,,,,,,,1,0,1,0,8,1,33,3,,,,,,,,,3291.748832054436,stop,circleblack.png,left,0.35,,,,,,,,,,,,,,,0.001238986849784851,0.4909549355506897,0.8401964902877808,3294.2511788234115,test,2,,,,,,,,,,3291.765226006508,3292.265459790826,3292.265459790826,3292.265459790826,3292.6148186698556,3293.1152542307973,3293.265831887722,3294.2733388617635,None,0,,0.4,,,,,,,,,,,s043,001,2024-09-27_16h09.25.137,simplestop_skeleton,2022.2.2,59.86915366502262,
$currentCorrectResponse,$currentGoStim,,,,,,,,,1,0,1,0,8,2,34,0,,,,,,,,,3294.251650877297,go,squareblack.png,right,0.4,,,,,,,,,,,,,,,0.007220886647701263,0.48951365053653717,,3296.7539623752236,test,2,,,,,,,,,,3294.2733388617635,3294.767089523375,3294.767089523375,3294.7838473320007,3295.1695221066475,3295.6847514137626,3295.7683184072375,3296.771482974291,right,1,0.5869202092289925,0.4,,,,,,,,,,,s043,001,2024-09-27_16h09.25.137,simplestop_skeleton,2022.2.2,59.86915366502262,
None,None,,,,,,,,,1,0,1,0,8,3,35,1,,,,,,,,,3296.7544269040227,stop,circleblack.png,left,0.4,,,,,,,,,,,,,,,0.0017864331603050232,0.4893965795636177,0.8909557834267616,3299.258532181382,test,2,,,,,,,,,,3296.771482974291,3297.269959613681,3297.269959613681,3297.286587432027,3297.672212816775,3298.1876948326826,3298.2710450813174,3299.2793830111623,None,0,,0.45,,,,,,,,,,,s043,001,2024-09-27_16h09.25.137,simplestop_skeleton,2022.2.2,59.86915366502262,
None,None,,,,,,,,,1,0,1,0,9,0,36,2,,,,,,,,,3299.2589923217893,go,circleblack.png,left,0.45,,,,,,,,,,,,,,,0.0020949244499206543,0.48655612021684647,,3301.7613573223352,test,2,,,,,,,,,,3299.2793830111623,3299.772690601647,3299.772690601647,3299.7893861159682,3300.223076991737,3300.723608389497,3300.773818515241,3301.783851929009,left,1,0.4510512873530388,0.45,,,,,,,,,,,s043,001,2024-09-27_16h09.25.137,simplestop_skeleton,2022.2.2,59.86915366502262,
None,None,,,,,,,,,1,0,1,0,9,1,37,1,,,,,,,,,3301.7618477493525,go,circleblack.png,left,0.45,,,,,,,,,,,,,,,0.0017364397644996643,0.48437708616256714,,3304.263503305614,test,2,,,,,,,,,,3301.783851929009,3302.2754135876894,3302.2754135876894,3302.292095385492,3302.726265475154,3303.2266286686063,3303.276468537748,3304.286680087447,left,1,0.44674941152334213,0.45,,,,,,,,,,,s043,001,2024-09-27_16h09.25.137,simplestop_skeleton,2022.2.2,59.86915366502262,
None,None,,,,,,,,,1,0,1,0,9,2,38,2,,,,,,,,,3304.2639845609665,go,squareblack.png,right,0.45,,,,,,,,,,,,,,,0.0071845874190330505,0.4873957484960556,,3306.766436010599,test,2,,,,,,,,,,3304.286680087447,3304.7782550156116,3304.7782550156116,3304.794825196266,3305.2288629710674,3305.7294079884887,3305.779500924051,3306.784573301673,right,1,0.5918594747781754,0.45,,,,,,,,,,,s043,001,2024-09-27_16h09.25.137,simplestop_skeleton,2022.2.2,59.86915366502262,
None,None,,,,,,,,,1,0,1,0,9,3,39,2,,,,,,,,,3306.766899101436,stop,squareblack.png,right,0.45,,,,,,,,,,,,,,,0.0019070208072662354,0.48911647498607635,0.9378183037042618,3309.2677453532815,test,2,,,,,,,,,,3306.784573301673,3307.2825931832194,3307.2825931832194,3307.297671698034,3307.7314776554704,3308.2321765720844,3308.282152451575,3309.2845964953303,None,0,,0.5,,,,,,,,,,,s043,001,2024-09-27_16h09.25.137,simplestop_skeleton,2022.2.2,59.86915366502262,
None,None,,,,,,,,,1,0,1,0,10,0,40,3,,,,,,,,,3309.2682018876076,go,squareblack.png,right,0.5,,,,,,,,,,,,,,,0.0011891573667526245,0.489809513092041,,3311.770770534873,test,2,,,,,,,,,,3309.2845964953303,3309.7839046493173,3309.7839046493173,3309.7839046493173,3310.2842785790563,3310.7848788127303,3310.7848788127303,3311.787749417126,right,1,0.6910225003957748,0.5,,,,,,,,,,,s043,001,2024-09-27_16h09.25.137,simplestop_skeleton,2022.2.2,59.86915366502262,
$currentCorrectResponse,$currentGoStim,,,,,,,,,1,0,1,0,10,1,41,0,,,,,,,,,3311.7712479382753,go,squareblack.png,right,0.5,,,,,,,,,,,,,,,0.0011650621891021729,0.491244800388813,,3314.2731783017516,test,2,,,,,,,,,,3311.787749417126,3312.288289129734,3312.288289129734,3312.288289129734,3312.787093155086,3313.2882119715214,3313.2882119715214,3314.2972136214375,right,1,0.6242444887757301,0.5,,,,,,,,,,,s043,001,2024-09-27_16h09.25.137,simplestop_skeleton,2022.2.2,59.86915366502262,
$currentCorrectResponse,$currentGoStim,,,,,,,,,1,0,1,0,10,2,42,0,,,,,,,,,3314.273658849299,go,circleblack.png,left,0.5,,,,,,,,,,,,,,,0.008277468383312225,0.4907969906926155,,3316.776011452079,test,2,,,,,,,,,,3314.2972136214375,3314.7910388335586,3314.7910388335586,3314.807676538825,3315.2899290695786,3315.790296085179,3315.790296085179,3316.8071789219975,left,1,0.4975074380636215,0.5,,,,,,,,,,,s043,001,2024-09-27_16h09.25.137,simplestop_skeleton,2022.2.2,59.86915366502262,
$currentCorrectResponse,$currentGoStim,,,,,,,,,1,0,1,0,10,3,43,0,,,,,,,,,3316.77646574378,stop,circleblack.png,left,0.5,,,,,,,,,,,,,,,0.0012414753437042236,0.49183840304613113,0.9919100850820541,3319.2807829901576,test,2,,,,,,,,,,3316.8071789219975,3317.292930983007,3317.292930983007,3317.309455230832,3317.7942997068167,3318.310017220676,3318.2930508702993,3319.302421912551,left,1,0.45531371980905533,0.45,,,,,,,,,,,s043,001,2024-09-27_16h09.25.137,simplestop_skeleton,2022.2.2,59.86915366502262,
None,None,,,,,,,,,1,0,1,0,11,0,44,1,,,,,,,,,3319.281263127923,stop,squareblack.png,right,0.45,,,,,,,,,,,,,,,0.002636641263961792,0.4860338494181633,0.9365546479821205,3321.7836438417435,test,2,,,,,,,,,,3319.302421912551,3319.79470667243,3319.79470667243,3319.8114764913917,3320.245299041271,3320.7457787767053,3320.7957656010985,3321.804565012455,right,1,0.3897208496928215,0.4,,,,,,,,,,,s043,001,2024-09-27_16h09.25.137,simplestop_skeleton,2022.2.2,59.86915366502262,
$currentCorrectResponse,$currentGoStim,,,,,,,,,1,0,1,0,11,1,45,0,,,,,,,,,3321.7841028496623,go,circleblack.png,left,0.4,,,,,,,,,,,,,,,0.002437584102153778,0.4864450767636299,,3324.284971565008,test,2,,,,,,,,,,3321.804565012455,3322.297388188541,3322.297388188541,3322.314259290695,3322.698052674532,3323.1986328065395,3323.2987816035748,3324.3038746118546,left,1,0.39010247588157654,0.4,,,,,,,,,,,s043,001,2024-09-27_16h09.25.137,simplestop_skeleton,2022.2.2,59.86915366502262,
None,None,,,,,,,,,1,0,1,0,11,2,46,3,,,,,,,,,3324.2854139581323,go,squareblack.png,right,0.4,,,,,,,,,,,,,,,0.0016614794731140137,0.4884299337863922,,3326.7869711369276,test,2,,,,,,,,,,3324.3038746118546,3324.8003272637725,3324.8003272637725,3324.816995769739,3325.2007608264685,3325.70135384053,3325.8015067875385,3326.8057716935873,right,1,0.5969098955392838,0.4,,,,,,,,,,,s043,001,2024-09-27_16h09.25.137,simplestop_skeleton,2022.2.2,59.86915366502262,
$currentCorrectResponse,$currentGoStim,,,,,,,,,1,0,1,0,11,3,47,0,,,,,,,,,3326.7874247208238,stop,circleblack.png,left,0.4,,,,,,,,,,,,,,,0.001835651695728302,0.4890631213784218,0.8890179619193077,3329.2899707257748,test,2,,,,,,,,,,3326.8057716935873,3327.3034340292215,3327.3034340292215,3327.3199215605855,3327.703509002924,3328.2046078667045,3328.3043609559536,3329.3096316084266,left,1,0.47048863023519516,0.35,,,,,,,,,,,s043,001,2024-09-27_16h09.25.137,simplestop_skeleton,2022.2.2,59.86915366502262,
,,,,,,,,,,1,0,1,0,,,,,,,,,,,,,,,,,,,,,,,,,,,,,,,,,,,,,,,,,,,,,,,,,,,,,,,,,,,3329.3096316084266,3329.3096316084266,return,3.2014033272862434,"[{'fileName': 'circleblack.png', 'correct_response': 'left', 'condition': 'go'}, {'fileName': 'circleblack.png', 'correct_response': 'left', 'condition': 'go'}, {'fileName': 'squareblack.png', 'correct_response': 'right', 'condition': 'go'}, {'fileName': 'circleblack.png', 'correct_response': 'left', 'condition': 'go'}, {'fileName': 'squareblack.png', 'correct_response': 'right', 'condition': 'go'}, {'fileName': 'circleblack.png', 'correct_response': 'left', 'condition': 'go'}, {'fileName': 'circleblack.png', 'correct_response': 'left', 'condition': 'stop'}, {'fileName': 'circleblack.png', 'correct_response': 'left', 'condition': 'stop'}, {'fileName': 'squareblack.png', 'correct_response': 'right', 'condition': 'stop'}, {'fileName': 'squareblack.png', 'correct_response': 'right', 'condition': 'go'}, {'fileName': 'squareblack.png', 'correct_response': 'right', 'condition': 'stop'}, {'fileName': 'squareblack.png', 'correct_response': 'right', 'condition': 'go'}, {'fileName': 'squareblack.png', 'correct_response': 'right', 'condition': 'stop'}, {'fileName': 'circleblack.png', 'correct_response': 'left', 'condition': 'stop'}, {'fileName': 'circleblack.png', 'correct_response': 'left', 'condition': 'go'}, {'fileName': 'circleblack.png', 'correct_response': 'left', 'condition': 'go'}, {'fileName': 'squareblack.png', 'correct_response': 'right', 'condition': 'go'}, {'fileName': 'squareblack.png', 'correct_response': 'right', 'condition': 'go'}, {'fileName': 'circleblack.png', 'correct_response': 'left', 'condition': 'go'}, {'fileName': 'circleblack.png', 'correct_response': 'left', 'condition': 'stop'}, {'fileName': 'squareblack.png', 'correct_response': 'right', 'condition': 'go'}, {'fileName': 'squareblack.png', 'correct_response': 'right', 'condition': 'stop'}, {'fileName': 'squareblack.png', 'correct_response': 'right', 'condition': 'go'}, {'fileName': 'circleblack.png', 'correct_response': 'left', 'condition': 'go'}, {'fileName': 'squareblack.png', 'correct_response': 'right', 'condition': 'go'}, {'fileName': 'circleblack.png', 'correct_response': 'left', 'condition': 'go'}, {'fileName': 'squareblack.png', 'correct_response': 'right', 'condition': 'stop'}, {'fileName': 'squareblack.png', 'correct_response': 'right', 'condition': 'go'}, {'fileName': 'circleblack.png', 'correct_response': 'left', 'condition': 'go'}, {'fileName': 'squareblack.png', 'correct_response': 'right', 'condition': 'go'}, {'fileName': 'circleblack.png', 'correct_response': 'left', 'condition': 'go'}, {'fileName': 'circleblack.png', 'correct_response': 'left', 'condition': 'stop'}, {'fileName': 'circleblack.png', 'correct_response': 'left', 'condition': 'go'}, {'fileName': 'squareblack.png', 'correct_response': 'right', 'condition': 'go'}, {'fileName': 'squareblack.png', 'correct_response': 'right', 'condition': 'stop'}, {'fileName': 'circleblack.png', 'correct_response': 'left', 'condition': 'stop'}, {'fileName': 'circleblack.png', 'correct_response': 'left', 'condition': 'go'}, {'fileName': 'circleblack.png', 'correct_response': 'left', 'condition': 'go'}, {'fileName': 'squareblack.png', 'correct_response': 'right', 'condition': 'go'}, {'fileName': 'squareblack.png', 'correct_response': 'right', 'condition': 'go'}, {'fileName': 'circleblack.png', 'correct_response': 'left', 'condition': 'stop'}, {'fileName': 'circleblack.png', 'correct_response': 'left', 'condition': 'stop'}, {'fileName': 'circleblack.png', 'correct_response': 'left', 'condition': 'go'}, {'fileName': 'squareblack.png', 'correct_response': 'right', 'condition': 'go'}, {'fileName': 'squareblack.png', 'correct_response': 'right', 'condition': 'go'}, {'fileName': 'circleblack.png', 'correct_response': 'left', 'condition': 'go'}, {'fileName': 'squareblack.png', 'correct_response': 'right', 'condition': 'stop'}, {'fileName': 'squareblack.png', 'correct_response': 'right', 'condition': 'stop'}]",,,,,,s043,001,2024-09-27_16h09.25.137,simplestop_skeleton,2022.2.2,59.86915366502262,
None,None,,,,,,,,,2,0,2,0,0,0,0,2,,,,,,,,,3332.539997152984,go,circleblack.png,left,0.35,,,,,,,,,,,,,,,0.0012292638421058655,0.49321693927049637,,3335.048129118979,test,3,,,,,,,,,,3332.5567950084805,3333.0593277812004,3333.0593277812004,3333.0593277812004,3333.41066968441,3333.911835692823,3334.0621565282345,3335.0669729933143,left,1,0.7236500531435013,0.35,,,,,,,,,,,s043,001,2024-09-27_16h09.25.137,simplestop_skeleton,2022.2.2,59.86915366502262,
None,None,,,,,,,,,2,0,2,0,0,1,1,3,,,,,,,,,3335.048686221242,go,circleblack.png,left,0.35,,,,,,,,,,,,,,,0.0014842376112937927,0.48857852816581726,,3337.548982746899,test,3,,,,,,,,,,3335.0669729933143,3335.5627213567495,3335.5627213567495,3335.578977011144,3335.912978067994,3336.413309365511,3336.5633112043142,3337.570807866752,left,1,0.6091704741120338,0.35,,,,,,,,,,,s043,001,2024-09-27_16h09.25.137,simplestop_skeleton,2022.2.2,59.86915366502262,
$currentCorrectResponse,$currentGoStim,,,,,,,,,2,0,2,0,0,2,2,0,,,,,,,,,3337.549439638853,go,squareblack.png,right,0.35,,,,,,,,,,,,,,,0.007080644369125366,0.48959264904260635,,3340.053826600313,test,3,,,,,,,,,,3337.570807866752,3338.064983844757,3338.064983844757,3338.0816091373563,3338.4166596978903,3338.9159165918827,3339.066109865904,3340.076258189976,right,1,0.44601253420114517,0.35,,,,,,,,,,,s043,001,2024-09-27_16h09.25.137,simplestop_skeleton,2022.2.2,59.86915366502262,
None,None,,,,,,,,,2,0,2,0,0,3,3,2,,,,,,,,,3340.0543254464865,go,circleblack.png,left,0.35,,,,,,,,,,,,,,,0.0027162134647369385,0.4854426309466362,,3342.5557583346963,test,3,,,,,,,,,,3340.076258189976,3340.567669659853,3340.567669659853,3340.584352247417,3340.918066062033,3341.4204581975937,3341.5689959824085,3342.5745880380273,left,1,0.5094332322478294,0.35,,,,,,,,,,,s043,001,2024-09-27_16h09.25.137,simplestop_skeleton,2022.2.2,59.86915366502262,
$currentCorrectResponse,$currentGoStim,,,,,,,,,2,0,2,0,1,0,4,0,,,,,,,,,3342.55621432513,go,squareblack.png,right,0.35,,,,,,,,,,,,,,,0.002329401671886444,0.48743046075105667,,3345.0579584613442,test,3,,,,,,,,,,3342.5745880380273,3343.070472933352,3343.070472933352,3343.087043762207,3343.420805051923,3343.9215269088745,3344.071659758687,3345.0765099152923,right,1,0.45747195929288864,0.35,,,,,,,,,,,s043,001,2024-09-27_16h09.25.137,simplestop_skeleton,2022.2.2,59.86915366502262,
None,None,,,,,,,,,2,0,2,0,1,1,5,3,,,,,,,,,3345.0584155470133,go,circleblack.png,left,0.35,,,,,,,,,,,,,,,0.0018691346049308777,0.4900623485445976,,3347.5599456056952,test,3,,,,,,,,,,3345.0765099152923,3345.5750748738647,3345.5750748738647,3345.5900629237294,3345.9237363785505,3346.4258128777146,3346.5754504576325,3347.5767366737127,left,1,0.5712879598140717,0.35,,,,,,,,,,,s043,001,2024-09-27_16h09.25.137,simplestop_skeleton,2022.2.2,59.86915366502262,
None,None,,,,,,,,,2,0,2,0,1,2,6,2,,,,,,,,,3347.5604688823223,stop,circleblack.png,left,0.35,,,,,,,,,,,,,,,0.0012367293238639832,0.49144215881824493,0.8398818597197533,3350.062894977629,test,3,,,,,,,,,,3347.5767366737127,3348.0779475718737,3348.0779475718737,3348.0779475718737,3348.4262849763036,3348.9269187897444,3349.0774411186576,3350.080061160028,None,0,,0.4,,,,,,,,,,,s043,001,2024-09-27_16h09.25.137,simplestop_skeleton,2022.2.2,59.86915366502262,
$currentCorrectResponse,$currentGoStim,,,,,,,,,2,0,2,0,1,3,7,0,,,,,,,,,3350.063359104097,stop,circleblack.png,left,0.4,,,,,,,,,,,,,,,0.0012786909937858582,0.4899953007698059,0.8913882225751877,3352.5656895413995,test,3,,,,,,,,,,3350.080061160028,3350.579594619572,3350.579594619572,3350.579594619572,3350.9812664091587,3351.4963064193726,3351.5797812864184,3352.5830852091312,left,1,0.5615972429513931,0.35,,,,,,,,,,,s043,001,2024-09-27_16h09.25.137,simplestop_skeleton,2022.2.2,59.86915366502262,
None,None,,,,,,,,,2,0,2,0,2,0,8,2,,,,,,,,,3352.566148377955,stop,squareblack.png,right,0.35,,,,,,,,,,,,,,,0.001777850091457367,0.4890884682536125,0.840303398668766,3355.070465967059,test,3,,,,,,,,,,3352.5830852091312,3353.0814037173986,3353.0814037173986,3353.0981696248055,3353.433202497661,3353.9326627627015,3354.0824713781476,3355.091859512031,right,1,0.44226596504449844,0.3,,,,,,,,,,,s043,001,2024-09-27_16h09.25.137,simplestop_skeleton,2022.2.2,59.86915366502262,
None,None,,,,,,,,,2,0,2,0,2,1,9,3,,,,,,,,,3355.070943713188,go,squareblack.png,right,0.3,,,,,,,,,,,,,,,0.0019888728857040405,0.4855423718690872,,3357.5730209499598,test,3,,,,,,,,,,3355.091859512031,3355.5842901170254,3355.5842901170254,3355.6008988767862,3355.8846134468913,3356.3854607865214,3356.585584975779,3357.5932571440935,right,1,0.5355693697929382,0.3,,,,,,,,,,,s043,001,2024-09-27_16h09.25.137,simplestop_skeleton,2022.2.2,59.86915366502262,
None,None,,,,,,,,,2,0,2,0,2,2,10,2,,,,,,,,,3357.5737824738026,stop,squareblack.png,right,0.3,,,,,,,,,,,,,,,0.001296892762184143,0.48400841653347015,0.7843553051352501,3360.07391127944,test,3,,,,,,,,,,3357.5932571440935,3358.086986899376,3358.086986899376,3358.1036395058036,3358.3873154744506,3358.887865573168,3359.0881908088923,3360.0904752016068,None,0,,0.35,,,,,,,,,,,s043,001,2024-09-27_16h09.25.137,simplestop_skeleton,2022.2.2,59.86915366502262,
None,None,,,,,,,,,2,0,2,0,2,3,11,3,,,,,,,,,3360.0743496418,go,squareblack.png,right,0.35,,,,,,,,,,,,,,,0.0012696832418441772,0.4897041916847229,,3362.5763527452946,test,3,,,,,,,,,,3360.0904752016068,3360.589943639934,3360.589943639934,3360.589943639934,3360.940124541521,3361.440695822239,3361.592145524919,3362.593287885189,right,1,0.568524643778801,0.35,,,,,,,,,,,s043,001,2024-09-27_16h09.25.137,simplestop_skeleton,2022.2.2,59.86915366502262,
$currentCorrectResponse,$currentGoStim,,,,,,,,,2,0,2,0,3,0,12,0,,,,,,,,,3362.5767921954393,stop,squareblack.png,right,0.35,,,,,,,,,,,,,,,0.0011673197150230408,0.4910011738538742,0.8405152037739754,3365.0794790685177,test,3,,,,,,,,,,3362.593287885189,3363.093445688486,3363.093445688486,3363.093445688486,3363.4430859982967,3363.9434471577406,3364.0936203897,3365.102454483509,right,1,0.7740369737148285,0.3,,,,,,,,,,,s043,001,2024-09-27_16h09.25.137,simplestop_skeleton,2022.2.2,59.86915366502262,
None,None,,,,,,,,,2,0,2,0,3,1,13,1,,,,,,,,,3365.0799369663,stop,circleblack.png,left,0.3,,,,,,,,,,,,,,,0.008267246186733246,0.48993293195962906,0.7911540195345879,3367.582354262471,test,3,,,,,,,,,,3365.102454483509,3365.595588363707,3365.595588363707,3365.6119103953242,3365.8969363868237,3366.3960880041122,3366.5963932797313,3367.600281357765,None,0,,0.35,,,,,,,,,,,s043,001,2024-09-27_16h09.25.137,simplestop_skeleton,2022.2.2,59.86915366502262,
$currentCorrectResponse,$currentGoStim,,,,,,,,,2,0,2,0,3,2,14,0,,,,,,,,,3367.5828773602843,go,circleblack.png,left,0.35,,,,,,,,,,,,,,,0.001314595341682434,0.4887331947684288,,3370.0849685817957,test,3,,,,,,,,,,3367.600281357765,3368.098093472421,3368.098093472421,3368.114754512906,3368.44835793972,3368.9492035657167,3369.0992648899555,3370.1026563718915,left,1,0.5162449926137924,0.35,,,,,,,,,,,s043,001,2024-09-27_16h09.25.137,simplestop_skeleton,2022.2.2,59.86915366502262,
None,None,,,,,,,,,2,0,2,0,3,3,15,2,,,,,,,,,3370.085424736142,go,circleblack.png,left,0.35,,,,,,,,,,,,,,,0.0013117715716362,0.4890016093850136,,3372.5884811654687,test,3,,,,,,,,,,3370.1026563718915,3370.600745394826,3370.600745394826,3370.6174364537,3370.951206982136,3371.453561589122,3371.6038124859333,3372.606501162052,left,1,0.9120468571782112,0.35,,,,,,,,,,,s043,001,2024-09-27_16h09.25.137,simplestop_skeleton,2022.2.2,59.86915366502262,
None,None,,,,,,,,,2,0,2,0,4,0,16,1,,,,,,,,,3372.58891774714,go,squareblack.png,right,0.35,,,,,,,,,,,,,,,0.0019334182143211365,0.48874642699956894,,3375.090291544795,test,3,,,,,,,,,,3372.606501162052,3373.103669218719,3373.103669218719,3373.1204059049487,3373.453992985189,3373.954571709037,3374.1060887500644,3375.1071114987135,right,1,0.5209797918796539,0.35,,,,,,,,,,,s043,001,2024-09-27_16h09.25.137,simplestop_skeleton,2022.2.2,59.86915366502262,
None,None,,,,,,,,,2,0,2,0,4,1,17,1,,,,,,,,,3375.090808428824,go,squareblack.png,right,0.35,,,,,,,,,,,,,,,0.0011906996369361877,0.4910693094134331,,3377.5930447131395,test,3,,,,,,,,,,3375.1071114987135,3375.607351653278,3375.607351653278,3375.607351653278,3375.9568803682923,3376.45729919523,3376.6073954850435,3377.6105156838894,right,1,0.4761141464114189,0.35,,,,,,,,,,,s043,001,2024-09-27_16h09.25.137,simplestop_skeleton,2022.2.2,59.86915366502262,
None,None,,,,,,,,,2,0,2,0,4,2,18,1,,,,,,,,,3377.5935107916594,go,circleblack.png,left,0.35,,,,,,,,,,,,,,,0.0018528476357460022,0.48990971595048904,,3380.09780010581,test,3,,,,,,,,,,3377.6105156838894,3378.10914157331,3378.10914157331,3378.1257452070713,3378.4615047350526,3378.9766253605485,3379.1102028414607,3380.116412386298,left,1,0.5856662765145302,0.35,,,,,,,,,,,s043,001,2024-09-27_16h09.25.137,simplestop_skeleton,2022.2.2,59.86915366502262,
None,None,,,,,,,,,2,0,2,0,4,3,19,2,,,,,,,,,3380.098280645907,stop,circleblack.png,left,0.35,,,,,,,,,,,,,,,0.0022451430559158325,0.4864029660820961,0.8367028534412384,3382.5999671965837,test,3,,,,,,,,,,3380.116412386298,3380.6117891445756,3380.6117891445756,3380.628456823528,3380.9622741043568,3381.464754872024,3381.613103866577,3382.618313319981,left,1,0.5186400786042213,0.3,,,,,,,,,,,s043,001,2024-09-27_16h09.25.137,simplestop_skeleton,2022.2.2,59.86915366502262,
None,None,,,,,,,,,2,0,2,0,5,0,20,1,,,,,,,,,3382.600422255695,go,squareblack.png,right,0.3,,,,,,,,,,,,,,,0.0023505091667175293,0.48762787133455276,,3385.1036884486675,test,3,,,,,,,,,,3382.618313319981,3383.114620767534,3383.114620767534,3383.1313780918717,3383.415009304881,3383.9156289100647,3384.115936771035,3385.121161095798,right,1,0.512296549975872,0.3,,,,,,,,,,,s043,001,2024-09-27_16h09.25.137,simplestop_skeleton,2022.2.2,59.86915366502262,
None,None,,,,,,,,,2,0,2,0,5,1,21,3,,,,,,,,,3385.1041463389993,stop,squareblack.png,right,0.3,,,,,,,,,,,,,,,0.002108275890350342,0.48903048038482666,0.7874221205711365,3387.6043665856123,test,3,,,,,,,,,,3385.121161095798,3385.6193991452456,3385.6193991452456,3385.635976418853,3385.9175959676504,3386.4186262711883,3386.619604215026,3387.6209310889244,right,1,0.6657553389668465,0.25,,,,,,,,,,,s043,001,2024-09-27_16h09.25.137,simplestop_skeleton,2022.2.2,59.86915366502262,
None,None,,,,,,,,,2,0,2,0,5,2,22,3,,,,,,,,,3387.6048255488276,go,squareblack.png,right,0.25,,,,,,,,,,,,,,,0.0011682957410812378,0.4896691292524338,,3390.1068715155125,test,3,,,,,,,,,,3387.6209310889244,3388.12015748024,3388.12015748024,3388.12015748024,3388.3706606030464,3388.870926886797,3389.1211735606194,3390.12464120239,right,1,0.6980734393000603,0.25,,,,,,,,,,,s043,001,2024-09-27_16h09.25.137,simplestop_skeleton,2022.2.2,59.86915366502262,
$currentCorrectResponse,$currentGoStim,,,,,,,,,2,0,2,0,5,3,23,0,,,,,,,,,3390.1073304861784,go,circleblack.png,left,0.25,,,,,,,,,,,,,,,0.0019093453884124756,0.49001505970954895,,3392.6116747558117,test,3,,,,,,,,,,3390.12464120239,3390.623082473874,3390.623082473874,3390.63976136595,3390.8744737133384,3391.3739465773106,3391.6239964067936,3392.632783703506,left,1,0.459186390042305,0.25,,,,,,,,,,,s043,001,2024-09-27_16h09.25.137,simplestop_skeleton,2022.2.2,59.86915366502262,
$currentCorrectResponse,$currentGoStim,,,,,,,,,2,0,2,0,6,0,24,0,,,,,,,,,3392.612146168947,go,squareblack.png,right,0.25,,,,,,,,,,,,,,,0.002357371151447296,0.48626481741666794,,3395.113298229873,test,3,,,,,,,,,,3392.632783703506,3393.1255693286657,3393.1255693286657,3393.142424866557,3393.3759519681334,3393.878119789064,3394.1268132030964,3395.1307855397463,right,1,0.5445834025740623,0.25,,,,,,,,,,,s043,001,2024-09-27_16h09.25.137,simplestop_skeleton,2022.2.2,59.86915366502262,
None,None,,,,,,,,,2,0,2,0,6,1,25,1,,,,,,,,,3395.113737821579,go,circleblack.png,left,0.25,,,,,,,,,,,,,,,0.001827925443649292,0.490493968129158,,3397.615107960999,test,3,,,,,,,,,,3395.1307855397463,3395.6302942186594,3395.6302942186594,3395.6302942186594,3395.8786517307162,3396.37924772501,3396.631982974708,3397.632640130818,left,1,0.5297425761818886,0.25,,,,,,,,,,,s043,001,2024-09-27_16h09.25.137,simplestop_skeleton,2022.2.2,59.86915366502262,
None,None,,,,,,,,,2,0,2,0,6,2,26,2,,,,,,,,,3397.615589596331,stop,squareblack.png,right,0.25,,,,,,,,,,,,,,,0.0016205757856369019,0.48948362469673157,0.7398738339543343,3400.117935575545,test,3,,,,,,,,,,3397.632640130818,3398.1315724924207,3398.1315724924207,3398.148020334542,3398.3815570622683,3398.881882175803,3399.1321708634496,3400.1491897776723,None,0,,0.3,,,,,,,,,,,s043,001,2024-09-27_16h09.25.137,simplestop_skeleton,2022.2.2,59.86915366502262,
None,None,,,,,,,,,2,0,2,0,6,3,27,1,,,,,,,,,3400.1184100285172,go,squareblack.png,right,0.3,,,,,,,,,,,,,,,0.0011903271079063416,0.4898887798190117,,3402.6225256323814,test,3,,,,,,,,,,3400.1491897776723,3400.6341137737036,3400.6341137737036,3400.650573939085,3400.935339361429,3401.434832803905,3401.634974978864,3402.6441271677613,right,1,0.6574647426605225,0.3,,,,,,,,,,,s043,001,2024-09-27_16h09.25.137,simplestop_skeleton,2022.2.2,59.86915366502262,
None,None,,,,,,,,,2,0,2,0,7,0,28,3,,,,,,,,,3402.623010352254,go,circleblack.png,left,0.3,,,,,,,,,,,,,,,0.0024724453687667847,0.4865216538310051,,3405.124563574791,test,3,,,,,,,,,,3402.6441271677613,3403.1367237865925,3403.1367237865925,3403.153354384005,3403.4370007514954,3403.9376869276166,3404.1377186477184,3405.1437875181437,left,1,0.43074577301740646,0.3,,,,,,,,,,,s043,001,2024-09-27_16h09.25.137,simplestop_skeleton,2022.2.2,59.86915366502262,
None,None,,,,,,,,,2,0,2,0,7,1,29,3,,,,,,,,,3405.1250872313976,go,squareblack.png,right,0.3,,,,,,,,,,,,,,,0.002446591854095459,0.48739681392908096,,3407.6261661574244,test,3,,,,,,,,,,3405.1437875181437,3405.6393978893757,3405.6393978893757,3405.656123429537,3405.939801096916,3406.441073678434,3406.6407658606768,3407.6434753760695,right,1,0.4864261597394943,0.3,,,,,,,,,,,s043,001,2024-09-27_16h09.25.137,simplestop_skeleton,2022.2.2,59.86915366502262,
None,None,,,,,,,,,2,0,2,0,7,2,30,1,,,,,,,,,3407.626620441675,go,circleblack.png,left,0.3,,,,,,,,,,,,,,,0.001742921769618988,0.4899328202009201,,3410.1289360895753,test,3,,,,,,,,,,3407.6434753760695,3408.142536699772,3408.142536699772,3408.1593963950872,3408.442585773766,3408.943111203611,3409.1442855894566,3410.1456894278526,left,1,0.602543443441391,0.3,,,,,,,,,,,s043,001,2024-09-27_16h09.25.137,simplestop_skeleton,2022.2.2,59.86915366502262,
None,None,,,,,,,,,2,0,2,0,7,3,31,1,,,,,,,,,3410.1293855011463,stop,circleblack.png,left,0.3,,,,,,,,,,,,,,,0.0012547895312309265,0.4908932000398636,0.790121778845787,3412.631679430604,test,3,,,,,,,,,,3410.1456894278526,3410.646058268845,3410.646058268845,3410.646058268845,3410.9453898221254,3411.445988729596,3411.646029599011,3412.648471057415,None,0,,0.35,,,,,,,,,,,s043,001,2024-09-27_16h09.25.137,simplestop_skeleton,2022.2.2,59.86915366502262,
$currentCorrectResponse,$currentGoStim,,,,,,,,,2,0,2,0,8,0,32,0,,,,,,,,,3412.6321196109056,go,circleblack.png,left,0.35,,,,,,,,,,,,,,,0.0012237951159477234,0.48966314643621445,,3415.136405557394,test,3,,,,,,,,,,3412.648471057415,3413.147679813206,3413.147679813206,3413.147679813206,3413.4989867135882,3413.9987092912197,3414.1487445905805,3415.1633078083396,left,1,0.7047518864274025,0.35,,,,,,,,,,,s043,001,2024-09-27_16h09.25.137,simplestop_skeleton,2022.2.2,59.86915366502262,
$currentCorrectResponse,$currentGoStim,,,,,,,,,2,0,2,0,8,1,33,0,,,,,,,,,3415.137011103332,go,squareblack.png,right,0.35,,,,,,,,,,,,,,,0.007773242890834808,0.48612411320209503,,3417.6376758664846,test,3,,,,,,,,,,3415.1633078083396,3415.6505235135555,3415.6505235135555,3415.6672294661403,3416.0009374171495,3416.501621827483,3416.6517674550414,3417.654794588685,right,1,0.6374029889702797,0.35,,,,,,,,,,,s043,001,2024-09-27_16h09.25.137,simplestop_skeleton,2022.2.2,59.86915366502262,
None,None,,,,,,,,,2,0,2,0,8,2,34,1,,,,,,,,,3417.6381147131324,stop,squareblack.png,right,0.35,,,,,,,,,,,,,,,0.0012605637311935425,0.48917240649461746,0.8397126793861389,3420.1401432156563,test,3,,,,,,,,,,3417.654794588685,3418.153242148459,3418.153242148459,3418.17008497566,3418.5037099272013,3419.004311710596,3419.1544515937567,3420.15762129426,right,1,0.49526846408843994,0.3,,,,,,,,,,,s043,001,2024-09-27_16h09.25.137,simplestop_skeleton,2022.2.2,59.86915366502262,
None,None,,,,,,,,,2,0,2,0,8,3,35,3,,,,,,,,,3420.1406057476997,stop,circleblack.png,left,0.3,,,,,,,,,,,,,,,0.001813344657421112,0.4895007982850075,0.7896656170487404,3422.6428846120834,test,3,,,,,,,,,,3420.15762129426,3420.6562115997076,3420.6562115997076,3420.672784782946,3420.956476174295,3421.4569809287786,3421.6579514816403,3422.6594968289137,left,1,0.42065541446208954,0.25,,,,,,,,,,,s043,001,2024-09-27_16h09.25.137,simplestop_skeleton,2022.2.2,59.86915366502262,
None,None,,,,,,,,,2,0,2,0,9,0,36,2,,,,,,,,,3422.6433529555798,go,circleblack.png,left,0.25,,,,,,,,,,,,,,,0.0012455806136131287,0.49064573645591736,,3425.145519800484,test,3,,,,,,,,,,3422.6594968289137,3423.1598819717765,3423.1598819717765,3423.1598819717765,3423.410863697529,3423.9262860044837,3424.1598277315497,3425.1622952893376,left,1,0.5567581504583359,0.25,,,,,,,,,,,s043,001,2024-09-27_16h09.25.137,simplestop_skeleton,2022.2.2,59.86915366502262,
$currentCorrectResponse,$currentGoStim,,,,,,,,,2,0,2,0,9,1,37,0,,,,,,,,,3425.1459927633405,go,circleblack.png,left,0.25,,,,,,,,,,,,,,,0.0012388676404953003,0.4897579178214073,,3427.6502882763743,test,3,,,,,,,,,,3425.1622952893376,3425.661540605128,3425.661540605128,3425.661540605128,3425.911811232567,3426.4123619794846,3426.662609040737,3427.6720082238317,left,1,0.6430662646889687,0.25,,,,,,,,,,,s043,001,2024-09-27_16h09.25.137,simplestop_skeleton,2022.2.2,59.86915366502262,
None,None,,,,,,,,,2,0,2,0,9,2,38,2,,,,,,,,,3427.650802694261,go,squareblack.png,right,0.25,,,,,,,,,,,,,,,0.0025988593697547913,0.4859155863523483,,3430.1519938111305,test,3,,,,,,,,,,3427.6720082238317,3428.16438832134,3428.16438832134,3428.1809086874127,3428.4146152809262,3428.9154158607125,3429.1655279919505,3430.170151486993,right,1,0.5705958381295204,0.25,,,,,,,,,,,s043,001,2024-09-27_16h09.25.137,simplestop_skeleton,2022.2.2,59.86915366502262,
$currentCorrectResponse,$currentGoStim,,,,,,,,,2,0,2,0,9,3,39,0,,,,,,,,,3430.1524425148964,go,squareblack.png,right,0.25,,,,,,,,,,,,,,,0.0013391822576522827,0.48853494226932526,,3432.653792217374,test,3,,,,,,,,,,3430.170151486993,3430.666996665299,3430.666996665299,3430.6836791858077,3430.917340800166,3431.4179132580757,3431.669280230999,3432.6709571778774,right,1,0.585764117538929,0.25,,,,,,,,,,,s043,001,2024-09-27_16h09.25.137,simplestop_skeleton,2022.2.2,59.86915366502262,
None,None,,,,,,,,,2,0,2,0,10,0,40,3,,,,,,,,,3432.654239475727,stop,circleblack.png,left,0.25,,,,,,,,,,,,,,,0.0017855390906333923,0.4916877821087837,0.7419182658195496,3435.1567109897733,test,3,,,,,,,,,,3432.6709571778774,3433.171661429107,3433.171661429107,3433.171661429107,3433.421784557402,3433.9372878819704,3434.17094938457,3435.173416122794,left,1,0.4569074809551239,0.2,,,,,,,,,,,s043,001,2024-09-27_16h09.25.137,simplestop_skeleton,2022.2.2,59.86915366502262,
None,None,,,,,,,,,2,0,2,0,10,1,41,2,,,,,,,,,3435.1571743562818,stop,circleblack.png,left,0.2,,,,,,,,,,,,,,,0.0012572333216667175,0.4894583374261856,0.6903491839766502,3437.661502316594,test,3,,,,,,,,,,3435.173416122794,3435.672566719353,3435.672566719353,3435.672566719353,3435.8735660240054,3436.3735866844654,3436.67362844944,3437.682732194662,None,0,,0.25,,,,,,,,,,,s043,001,2024-09-27_16h09.25.137,simplestop_skeleton,2022.2.2,59.86915366502262,
$currentCorrectResponse,$currentGoStim,,,,,,,,,2,0,2,0,10,2,42,0,,,,,,,,,3437.6620013192296,go,circleblack.png,left,0.25,,,,,,,,,,,,,,,0.002205595374107361,0.48574909567832947,,3440.1625053733587,test,3,,,,,,,,,,3437.682732194662,3438.175382733345,3438.175382733345,3438.192069090903,3438.425807662308,3438.9276652261615,3439.176693379879,3440.1798837557435,left,1,0.5222576335072517,0.25,,,,,,,,,,,s043,001,2024-09-27_16h09.25.137,simplestop_skeleton,2022.2.2,59.86915366502262,
None,None,,,,,,,,,2,0,2,0,10,3,43,1,,,,,,,,,3440.162964835763,go,squareblack.png,right,0.25,,,,,,,,,,,,,,,0.0016340464353561401,0.49093394726514816,,3442.6647280603647,test,3,,,,,,,,,,3440.1798837557435,3440.6799321994185,3440.6799321994185,3440.6799321994185,3440.9283798262477,3441.4289373382926,3441.6791658625007,3442.6814137399197,right,1,0.515565775334835,0.25,,,,,,,,,,,s043,001,2024-09-27_16h09.25.137,simplestop_skeleton,2022.2.2,59.86915366502262,
None,None,,,,,,,,,2,0,2,0,11,0,44,1,,,,,,,,,3442.6652019768953,go,squareblack.png,right,0.25,,,,,,,,,,,,,,,0.0011771619319915771,0.49161604046821594,,3445.1680536568165,test,3,,,,,,,,,,3442.6814137399197,3443.1819625347853,3443.1819625347853,3443.1819625347853,3443.4330730885267,3443.948452681303,3444.181938454509,3445.1863165572286,right,1,0.5408562868833542,0.25,,,,,,,,,,,s043,001,2024-09-27_16h09.25.137,simplestop_skeleton,2022.2.2,59.86915366502262,
None,None,,,,,,,,,2,0,2,0,11,1,45,3,,,,,,,,,3445.16852696985,go,circleblack.png,left,0.25,,,,,,,,,,,,,,,0.0019330978393554688,0.4888648986816406,,3447.6718851700425,test,3,,,,,,,,,,3445.1863165572286,3445.6836472973228,3445.6836472973228,3445.700245730579,3445.9340977296233,3446.436377219856,3446.684711456299,3447.6923921257257,left,1,0.45923930406570435,0.25,,,,,,,,,,,s043,001,2024-09-27_16h09.25.137,simplestop_skeleton,2022.2.2,59.86915366502262,
None,None,,,,,,,,,2,0,2,0,11,2,46,3,,,,,,,,,3447.6723507270217,stop,squareblack.png,right,0.25,,,,,,,,,,,,,,,0.002412743866443634,0.48732273280620575,0.7376372218132019,3450.1731660291553,test,3,,,,,,,,,,3447.6923921257257,3448.186388298869,3448.186388298869,3448.2031243294477,3448.4367872849107,3448.9372201934457,3449.1885625198483,3450.189873471856,right,1,0.4004613012075424,0.2,,,,,,,,,,,s043,001,2024-09-27_16h09.25.137,simplestop_skeleton,2022.2.2,59.86915366502262,
None,None,,,,,,,,,2,0,2,0,11,3,47,2,,,,,,,,,3450.1736052259803,stop,squareblack.png,right,0.2,,,,,,,,,,,,,,,0.0011662915349006653,0.4906294643878937,0.691539891064167,3452.676006734371,test,3,,,,,,,,,,3450.189873471856,3450.6909764260054,3450.6909764260054,3450.6909764260054,3450.8913856446743,3451.4065994098783,3451.690433166921,3452.6914036870003,None,0,,0.25,,,,,,,,,,,s043,001,2024-09-27_16h09.25.137,simplestop_skeleton,2022.2.2,59.86915366502262,
